raw_accel_x,raw_accel_y,raw_accel_z,raw_gyro_x,raw_gyro_y,raw_gyro_z,world_accel_x,world_accel_y,yaw,fused_heading,x,y,z,left_encoder_rate,right_encoder_rate,left_motor,right_motor,temp,fpga time,navx time
-0.0166016,-0.0150146,1.01166-0.12207,-0.183105,0,0.001,-0.002,-7.06,-0.0917816,-0.115021,0,0,0,0,0,40.91,1216.84,2448444
-0.0187988,-0.0111084,1.01404-0.0610352,-0.0610352,0,0,0,0,-0.0917816,-0.115021,0,0,0,0,0,40.91,1216.84,2448459
-0.0187988,-0.0111084,1.01404-0.0610352,-0.0610352,0,0,0,0,-0.0917816,-0.115021,0,0,0,0,0,40.91,1216.85,2448459
-0.0189819,-0.0131226,1.01385-0.0610352,-0.12207,-0.0610352,0,-0.001,0,0,0,0,0,0,0,0,40.91,1216.87,2448490
-0.0211182,-0.0111694,1.01373-0.0610352,-0.0610352,-0.0610352,-0.002,0,0,0,0,0,0,0,0,0,40.91,1216.89,2448504
-0.0153809,-0.0143433,1.010250,0,-0.0610352,0.002,-0.002,0,0,0,0,0,0,0,0,40.91,1216.91,2448519
-0.019043,-0.0134888,1.01404-0.0610352,-0.12207,-0.0610352,0,-0.001,0,0,0,0,0,0,0,0,40.91,1216.93,2448550
-0.0181274,-0.0114746,1.01434-0.12207,-0.12207,-0.12207,0,0,0,0,0,0,0,0,0,0,40.91,1216.95,2448564
-0.0189209,-0.0110474,1.01666-0.0610352,-0.12207,-0.12207,0,0.001,0,0,0,0,0,0,0,0,40.91,1216.97,2448579
-0.0172729,-0.0123291,1.00897-0.0610352,0.0610352,-0.0610352,0,0,0,0,0,0,0,0,0,0,40.91,1216.99,2448610
-0.0189819,-0.0134277,1.01813-0.12207,-0.0610352,-0.0610352,0,-0.001,0,0,0,0,0,0,0,0,40.91,1217.01,2448625
-0.0200806,-0.0109253,1.01831-0.0610352,-0.183105,-0.0610352,-0.001,0.001,0,0,0,0,0,0,0,0,40.91,1217.03,2448639
-0.0195923,-0.0131836,1.01270,0,-0.183105,-0.001,0,0,0,0,0,0,0,0,0,40.9,1217.05,2448670
-0.0192261,-0.0145874,1.014710.0610352,0,-0.183105,0,-0.002,0,0,0,0,0,0,0,0,40.9,1217.08,2448684
-0.0198364,-0.0123901,1.01636-0.0610352,-0.12207,-0.0610352,-0.001,0,0,0,0,0,0,0,0,0,40.9,1217.09,2448699
-0.0159302,-0.0119019,1.01410.0610352,0,-0.0610352,0.002,0,0,0,0,0,0,0,0,0,40.9,1217.11,2448730
-0.0147095,-0.0126343,1.01971-0.0610352,-0.183105,-0.12207,0.003,0,0,0,0,0,0,0,0,0,40.9,1217.13,2448745
-0.0215454,-0.0129395,1.016780,0,-0.0610352,-0.003,0,0,0,0,0,0,0,0,0,40.9,1217.15,2448760
-0.0201416,-0.0122681,1.01715-0.0610352,-0.0610352,-0.0610352,-0.001,0,0,0,0,0,0,0,0,0,40.9,1217.19,2448805
-0.0201416,-0.0122681,1.01715-0.0610352,-0.0610352,-0.0610352,-0.001,0,0,0,0,0,0,0,0,0,40.9,1217.2,2448805
-0.015564,-0.00964355,1.012880,0.0610352,0,0.002,0.002,0,0,0,0,0,0,0,0,40.9,1217.21,2448820
-0.0159912,-0.0122681,1.01257-0.0610352,-0.12207,-0.0610352,0.002,0,0,0,0,0,0,0,0,0,40.9,1217.23,2448850
-0.019043,-0.0119019,1.01343-0.0610352,-0.0610352,-0.0610352,0,0,0,0,0,0,0,0,0,0,40.9,1217.25,2448865
-0.0180054,-0.0126343,1.0163-0.0610352,-0.12207,-0.12207,0,0,0,0,0,0,0,0,0,0,40.9,1217.27,2448880
-0.0169067,-0.0126343,1.01422-0.0610352,-0.12207,-0.12207,0.001,0,0,0,0,0,0,0,0,0,40.9,1217.29,2448910
-0.0166016,-0.0110474,1.0152-0.0610352,-0.12207,0,0.001,0.001,0,0,0,0,0,0,0,0,40.9,1217.31,2448925
-0.0175781,-0.0128174,1.01599-0.183105,-0.244141,0,0,0,0,0,0,0,0,0,0,0,40.9,1217.33,2448940
-0.0197754,-0.0139771,1.01135-0.0610352,-0.12207,0,-0.001,-0.001,0,0,0,0,0,0,0,0,40.9,1217.35,2448970
-0.0179443,-0.00933838,1.01245-0.0610352,0,0.0610352,0,0.002,0,0,0,0,0,0,0,0,40.9,1217.37,2448985
-0.0172119,-0.00726318,1.010930.0610352,0.0610352,0,0,0.004,0,0,0,0,0,0,0,0,40.9,1217.39,2449000
-0.0180664,-0.0111694,1.011840,0,0,0,0,0,0,0,0,0,0,0,0,40.9,1217.41,2449030
-0.0166626,-0.00872803,1.01379-0.183105,-0.0610352,-0.12207,0.001,0.003,0,0,0,0,0,0,0,0,40.9,1217.43,2449045
-0.0159302,-0.0136719,1.012150,0,-0.0610352,0.002,-0.001,0,0,0,0,0,0,0,0,40.9,1217.45,2449060
-0.0151978,-0.00921631,1.01141-0.12207,-0.183105,-0.0610352,0.002,0.002,0,0,0,0,0,0,0,0,40.9,1217.47,2449090
-0.0172119,-0.0113525,1.01862-0.0610352,-0.12207,0.12207,0.001,0,0,0,0,0,0,0,0,0,40.9,1217.49,2449105
-0.0183716,-0.0150757,1.011470,0,-0.0610352,0,-0.003,0,0,0,0,0,0,0,0,40.9,1217.51,2449120
-0.0159302,-0.0129395,1.014340,0,-0.12207,0.002,0,0,0,0,0,0,0,0,0,40.9,1217.53,2449150
-0.0172119,-0.0126953,1.01483-0.0610352,-0.12207,-0.0610352,0.001,0,0,0,0,0,0,0,0,0,40.9,1217.55,2449165
-0.0180054,-0.0112305,1.012880,-0.0610352,0,0,0,0,0,0,0,0,0,0,0,40.9,1217.57,2449180
-0.0183105,-0.0122681,1.01422-0.0610352,-0.183105,0,0,0,0,0,0,0,0,0,0,0,40.9,1217.59,2449210
-0.0189819,-0.0132446,1.01685-0.0610352,-0.0610352,-0.0610352,0,-0.001,0,0,0,0,0,0,0,0,40.9,1217.61,2449225
-0.0164185,-0.0112305,1.01215-0.0610352,-0.183105,0,0.001,0,0,0,0,0,0,0,0,0,40.9,1217.63,2449240
-0.0189209,-0.0149536,1.010930,0,-0.0610352,0,-0.003,0,0,0,0,0,0,0,0,40.9,1217.65,2449270
-0.0159302,-0.012085,1.01215-0.12207,-0.12207,0,0.002,0,0,0,0,0,0,0,0,0,40.9,1217.67,2449285
-0.0163574,-0.00799561,1.01410,0.0610352,-0.12207,0.001,0.003,0,0,0,0,0,0,0,0,40.9,1217.69,2449300
-0.0183105,-0.0119629,1.01385-0.0610352,-0.0610352,0,0,0,0,0,0,0,0,0,0,0,40.9,1217.71,2449330
-0.0198364,-0.0112305,1.01324-0.0610352,-0.0610352,0,-0.001,0,0,0,0,0,0,0,0,0,40.9,1217.73,2449345
-0.0196533,-0.0134888,1.01447-0.0610352,-0.12207,-0.12207,-0.001,-0.001,0,0,0,0,0,0,0,0,40.9,1217.75,2449360
-0.0137329,-0.0157471,1.0152-0.12207,-0.12207,0,0.004,-0.003,0,0,0,0,0,0,0,0,40.9,1217.77,2449390
-0.019165,-0.0128784,1.020140.0610352,0.0610352,0,0,0,0,0,0,0,0,0,0,0,40.9,1217.79,2449405
-0.0153198,-0.0130005,1.015990.183105,0,-0.0610352,0.003,-0.001,0,0,0,0,0,0,0,0,40.9,1217.81,2449420
-0.0178223,-0.0127563,1.01202-0.12207,-0.12207,-0.0610352,0,0,0,0,0,0,0,0,0,0,40.9,1217.83,2449450
-0.0204468,-0.0161133,1.01367-0.183105,-0.0610352,-0.183105,-0.002,-0.004,0,0,0,0,0,0,0,0,40.9,1217.85,2449465
-0.0187378,-0.0130005,1.01044-0.0610352,-0.183105,-0.0610352,0,-0.001,0,0,0,0,0,0,0,0,40.9,1217.87,2449480
-0.0174561,-0.00964355,1.01813-0.0610352,0,-0.0610352,0,0.002,0,0,0,0,0,0,0,0,40.9,1217.89,2449510
-0.0181274,-0.0120239,1.01935-0.0610352,-0.0610352,0,0,0,0,0,0,0,0,0,0,0,40.9,1217.91,2449525
-0.0193481,-0.0118408,1.010990,0,0.0610352,-0.001,0,0,0,0,0,0,0,0,0,40.9,1217.93,2449540
-0.0187988,-0.015625,1.019710,0,-0.183105,0,-0.003,0,0,0,0,0,0,0,0,40.9,1217.95,2449571
-0.0142822,-0.0107422,1.018740.0610352,0.12207,-0.12207,0.003,0.001,0,0,0,0,0,0,0,0,40.9,1217.97,2449585
-0.0186157,-0.0100708,1.019410,0.0610352,0,0,0.001,0,0,0,0,0,0,0,0,40.9,1218,2449615
-0.0187378,-0.013855,1.01318-0.0610352,-0.0610352,-0.183105,0,-0.002,0,0,0,0,0,0,0,0,40.9,1218.01,2449631
-0.0189819,-0.0111084,1.01202-0.0610352,-0.0610352,-0.0610352,0,0,0,0,0,0,0,0,0,0,40.9,1218.03,2449645
-0.0176392,-0.0125122,1.017210,0,-0.12207,0,0,0,0,0,0,0,0,0,0,40.9,1218.05,2449660
-0.019043,-0.0116577,1.01312-0.12207,-0.12207,-0.0610352,0,0,0,0,0,0,0,0,0,0,40.91,1218.07,2449691
-0.0180054,-0.0124512,1.0105-0.0610352,-0.0610352,0,0,0,0,0,0,0,0,0,0,0,40.91,1218.09,2449705
-0.015564,-0.0106812,1.01343-0.0610352,-0.183105,-0.0610352,0.002,0.001,0,0,0,0,0,0,0,0,40.91,1218.11,2449720
-0.0165405,-0.012085,1.012510,-0.0610352,0.0610352,0.001,0,0,0,0,0,0,0,0,0,40.91,1218.13,2449751
-0.0176392,-0.0100098,1.01001-0.0610352,-0.12207,-0.12207,0,0.001,0,0,0,0,0,0,0,0,40.91,1218.15,2449765
-0.0159302,-0.0117188,1.01447-0.12207,-0.0610352,-0.12207,0.002,0,0,0,0,0,0,0,0,0,40.91,1218.17,2449780
-0.0187378,-0.0108643,1.01654-0.12207,-0.12207,0,0,0,0,0,0,0,0,0,0,0,40.91,1218.19,2449811
-0.0200195,-0.00982666,1.014280,0.0610352,-0.183105,-0.001,0.001,0,0,0,0,0,0,0,0,40.91,1218.21,2449825
-0.0186157,-0.0136108,1.01312-0.0610352,-0.0610352,0,0,-0.001,0,0,0,0,0,0,0,0,40.91,1218.23,2449840
-0.019104,-0.0108643,1.01337-0.0610352,-0.12207,-0.12207,0,0,0,0,0,0,0,0,0,0,40.91,1218.25,2449871
-0.019104,-0.012207,1.01501-0.0610352,-0.0610352,0,0,0,0,0,0,0,0,0,0,0,40.91,1218.27,2449885
-0.0161743,-0.0119629,1.01495-0.0610352,-0.0610352,0,0.002,0,0,0,0,0,0,0,0,0,40.91,1218.29,2449900
-0.0161133,-0.0111694,1.01489-0.0610352,0.0610352,-0.0610352,0.002,0,0,0,0,0,0,0,0,0,40.91,1218.31,2449931
-0.0180054,-0.010498,1.01233-0.0610352,-0.0610352,-0.0610352,0,0.001,0,0,0,0,0,0,0,0,40.91,1218.33,2449945
-0.0176392,-0.0112915,1.010190,0.0610352,-0.12207,0,0,0,0,0,0,0,0,0,0,40.91,1218.35,2449960
-0.0184937,-0.0100098,1.015440,0,-0.0610352,0,0.001,0,0,0,0,0,0,0,0,40.91,1218.37,2449991
-0.0164185,-0.0153198,1.01495-0.12207,-0.12207,-0.12207,0.001,-0.003,0,0,0,0,0,0,0,0,40.91,1218.39,2450005
-0.0186157,-0.00915527,1.0188-0.0610352,-0.0610352,0,0,0.002,0,0,0,0,0,0,0,0,40.91,1218.41,2450020
-0.0198364,-0.0123901,1.0094-0.0610352,-0.0610352,0,-0.001,0,0,0,0,0,0,0,0,0,40.91,1218.43,2450051
-0.0184326,-0.0126953,1.01294-0.0610352,-0.0610352,-0.12207,0,0,0,0,0,0,0,0,0,0,40.91,1218.45,2450065
-0.0177612,-0.0114136,1.01520,-0.12207,0,0,0,0,0,0,0,0,0,0,0,40.91,1218.47,2450080
-0.0180054,-0.0130615,1.01074-0.0610352,-0.0610352,0.0610352,0,-0.001,0,0,0,0,0,0,0,0,40.91,1218.5,2450111
-0.0186768,-0.0117798,1.019410,0,0.0610352,0,0,0,0,0,0,0,0,0,0,40.91,1218.51,2450126
-0.0166016,-0.00915527,1.01404-0.183105,-0.0610352,-0.0610352,0.001,0.002,0,0,0,0,0,0,0,0,40.91,1218.53,2450141
-0.0187988,-0.0107422,1.01910,0,0.0610352,0,0.001,0,0,0,0,0,0,0,0,40.91,1218.55,2450171
-0.0193481,-0.0108643,1.01599-0.0610352,-0.12207,0,-0.001,0,0,0,0,0,0,0,0,0,40.91,1218.57,2450186
-0.0144043,-0.0122681,1.01013-0.12207,-0.0610352,0,0.003,0,0,0,0,0,0,0,0,0,40.9,1218.59,2450201
-0.0194702,-0.0125732,1.01782-0.0610352,-0.12207,-0.12207,-0.001,0,0,0,0,0,0,0,0,0,40.9,1218.61,2450231
-0.0184937,-0.0100098,1.01318-0.0610352,-0.12207,0,0,0.001,0,0,0,0,0,0,0,0,40.9,1218.63,2450246
-0.017395,-0.0139771,1.015010,0.0610352,-0.0610352,0,-0.002,0,0,0,0,0,0,0,0,40.9,1218.65,2450261
-0.0183105,-0.0119019,1.013-0.0610352,-0.12207,-0.0610352,0,0,0,0,0,0,0,0,0,0,40.9,1218.67,2450291
-0.0170288,-0.0116577,1.01233-0.0610352,-0.183105,-0.12207,0.001,0,0,0,0,0,0,0,0,0,40.9,1218.69,2450306
-0.017334,-0.0100098,1.014830.0610352,0.183105,-0.0610352,0,0.001,0,0,0,0,0,0,0,0,40.9,1218.72,2450321
-0.0161133,-0.0111084,1.01349-0.0610352,-0.12207,-0.12207,0.002,0,0,0,0,0,0,0,0,0,40.9,1218.73,2450351
-0.0159912,-0.0108643,1.010380,0,-0.0610352,0.002,0,0,0,0,0,0,0,0,0,40.9,1218.75,2450366
-0.0196533,-0.00946045,1.017520,0,0,-0.001,0.002,0,0,0,0,0,0,0,0,40.9,1218.77,2450381
-0.0228882,-0.013916,1.00903-0.12207,-0.12207,-0.0610352,-0.004,-0.002,0,0,0,0,0,0,0,0,40.9,1218.79,2450411
-0.0170898,-0.0112305,1.01483-0.183105,-0.183105,-0.0610352,0.001,0,0,0,0,0,0,0,0,0,40.9,1218.81,2450426
-0.0164185,-0.00714111,1.012510,0,-0.12207,0.001,0.004,0,0,0,0,0,0,0,0,40.9,1218.83,2450441
-0.0193481,-0.0131836,1.014160,-0.0610352,0.0610352,-0.001,-0.001,0,0,0,0,0,0,0,0,40.9,1218.85,2450471
-0.0159302,-0.0090332,1.015010,-0.12207,-0.0610352,0.002,0.002,0,0,0,0,0,0,0,0,40.9,1218.87,2450486
-0.0157471,-0.0135498,1.01599-0.0610352,-0.244141,-0.0610352,0.002,-0.001,0,0,0,0,0,0,0,0,40.9,1218.89,2450501
-0.019165,-0.012207,1.014340,0,0,-0.001,0,0,0,0,0,0,0,0,0,40.9,1218.91,2450516
-0.0168457,-0.0105591,1.016170.12207,0,0.12207,0.001,0.001,0,0,0,0,0,0,0,0,40.9,1218.93,2450546
-0.0180054,-0.0108643,1.01208-0.12207,-0.0610352,-0.12207,0,0,0,0,0,0,0,0,0,0,40.9,1218.95,2450561
-0.0160522,-0.010437,1.01373-0.12207,-0.0610352,-0.0610352,0.002,0.001,0,0,0,0,0,0,0,0,40.9,1218.97,2450591
-0.0154419,-0.00878906,1.007630.0610352,-0.12207,-0.12207,0.002,0.002,0,0,0,0,0,0,0,0,40.9,1218.99,2450606
-0.0322876,-0.0552368,1.01483-0.0610352,-0.0610352,2.74658,-0.014,-0.043,-0.02,0,-1.52588e-05,0,0,0,0,0,40.9,1219.01,2450621
-0.0181885,0.012146,1.00946-0.0610352,-0.244141,5.00488,0,0.023,-0.19,0,-0.000152588,0,0,0,0,0,40.9,1219.03,2450651
-0.0352783,-0.0271606,1.01050.0610352,0,5.49316,-0.017,-0.015,-0.27,0,-0.000198364,0,0,0,0,0,40.9,1219.05,2450666
-0.00866699,-0.0180664,1.01074-0.244141,-0.366211,5.61523,0.009,-0.006,-0.36,0,-0.000274658,0,0,0,0,0,40.9,1219.07,2450681
-0.0152588,-0.0202637,1.01672-0.732422,-1.0376,13.7939,0.003,-0.007,-0.64,0,-0.000518799,0,0,0,0,0,40.91,1219.09,2450711
-0.0101318,0.0090332,1.01801-0.366211,-0.488281,12.9395,0.007,0.021,-0.84,0,-0.000640869,0,0,0,0,0,40.91,1219.11,2450726
-0.0251465,-0.0303345,0.99646-0.244141,-0.427246,13.3667,-0.006,-0.018,-1.04,0,-0.000762939,0,0,0,0,0,40.91,1219.13,2450742
-0.0165405,0.0113525,1.018130.549316,-0.549316,19.104,0,0.023,-1.56,0,-0.00106812,0,0,0,0,0,40.91,1219.15,2450771
-0.0319214,-0.03479,1.019350.610352,-0.793457,18.6157,-0.013,-0.023,-1.84,0,-0.0012207,0,0,0,0,0,40.91,1219.17,2450786
-0.0202026,-0.024231,1.016910.488281,-0.915527,20.1416,-0.001,-0.012,-2.13,0,-0.00140381,0,0,0,0,0,40.91,1219.19,2450801
-0.0167236,-0.022522,1.01129-0.976562,-0.976562,21.1182,0.001,-0.01,-2.44,0,-0.00158691,0,0,0,0,0,40.91,1219.21,2450816
-0.0186157,-0.0187378,1.01587-1.09863,-0.915527,18.9819,0,-0.006,-3.04,0,-0.00158691,0,0,0,0,0,40.91,1219.23,2450846
-0.00415039,-0.0337524,0.997009-0.793457,-0.671387,19.5312,0.014,-0.02,-3.33,0,-0.00160217,0,0,0,0,0,40.91,1219.25,2450861
-0.00408936,0.00976562,1.015870,-0.366211,19.3481,0.011,0.023,-3.63,0,-0.00161743,0,0,0,0,0,40.91,1219.27,2450876
-0.0131836,-0.0249023,1.022030.549316,-0.0610352,18.6768,0.004,-0.012,-4.19,0,-0.00161743,0,0,0,0,0,40.91,1219.29,2450906
-0.00811768,-0.0415649,1.038940.244141,0.305176,18.5547,0.011,-0.028,-4.47,0,-0.00164795,0,0,0,0,0,40.91,1219.31,2450921
0.000671387,-0.0258179,1.01697-4.3335,-0.549316,21.3623,0.018,-0.009,-5.09,0,-0.0019989,0,0,0,0,0,40.91,1219.33,2450951
-0.0206299,0.0280151,0.987183-2.19727,-0.12207,19.043,-0.008,0.042,-5.39,0,-0.00221252,0,0,0,0,0,40.91,1219.35,2450966
-0.0294189,-0.0165405,0.9760130.549316,-0.305176,19.165,-0.012,-0.003,-5.67,0,-0.00238037,0,0,0,0,0,40.91,1219.37,2450981
-0.0183716,-0.0357666,1.004582.62451,0.12207,18.4937,0,-0.021,-5.96,0,-0.00256348,0,0,0,0,0,40.91,1219.39,2450996
-0.0449829,-0.0583496,1.01709-0.183105,-0.610352,20.3857,-0.022,-0.045,-6.53,0,-0.00318909,0,0,0,0,0,40.91,1219.41,2451026
-0.0167847,-0.00683594,1.02606-1.46484,-0.793457,23.9258,0,0.009,-7.21,-6.10352e-05,-0.00401306,0,0,0,0,0,40.91,1219.44,2451056
-0.0167847,-0.00683594,1.02606-1.46484,-0.793457,23.9258,0,0.009,-7.21,-6.10352e-05,-0.00401306,0,0,0,0,0,40.91,1219.45,2451056
-0.00762939,-0.0143433,0.996461.2207,-1.40381,25.6348,0.008,0.002,-7.96,-6.10352e-05,-0.00401306,0,0,0,0,0,40.91,1219.47,2451086
-0.00823975,-0.0611572,1.034790.915527,-1.34277,27.4658,0.015,-0.042,-8.36,-6.10352e-05,-0.00404358,0,0,0,0,0,40.91,1219.49,2451101
-0.00616455,-0.0157471,1.00775-0.610352,-0.427246,28.5645,0.009,0.002,-9.21,-6.10352e-05,-0.00424194,0,0,0,0,0,40.91,1219.51,2451132
0.0202026,-0.0169678,1.00024-0.0610352,-0.732422,29.9072,0.035,0.005,-9.66,-3.05176e-05,-0.00424194,0,0,0,0,0,40.91,1219.54,2451146
-0.0151978,-0.0101318,1.021550.549316,-0.671387,28.9917,0,0.006,-10.1,1.52588e-05,-0.00424194,0,0,0,0,0,40.91,1219.55,2451161
-0.015686,-0.0373535,1.032780.671387,-0.183105,28.4424,0.004,-0.02,-10.53,7.62939e-05,-0.0042572,0,0,0,0,0,40.91,1219.57,2451176
-0.00738525,-0.0976562,1.01788-1.77002,-0.12207,29.1138,0.024,-0.077,-11.39,9.15527e-05,-0.00436401,0,0,0,0,0,40.91,1219.59,2451206
0.00256348,-0.0275269,1.00409-2.92969,-0.915527,30.0903,0.02,-0.005,-11.85,0.000137329,-0.0045166,0,0,0,0,0,40.9,1219.61,2451221
-0.0601807,-0.0670776,0.974731-1.64795,-0.0610352,26.9165,-0.033,-0.057,-12.69,0.000289917,-0.00494385,0,0,0,0,0,40.9,1219.63,2451252
-0.00274658,0.0552979,0.9625240.976562,-1.09863,26.001,-0.004,0.074,-13.09,0.000335693,-0.00520325,0,0,0,0,0,40.9,1219.65,2451266
0.0261841,0.000549316,1.007872.0752,-0.488281,24.6582,0.036,0.028,-13.47,0.000411987,-0.00537109,0,0,0,0,0,40.9,1219.67,2451281
-0.059021,-0.0736084,1.053830.732422,-0.854492,26.6113,-0.027,-0.063,-14.22,0.000564575,-0.00584412,0,0,0,0,0,40.9,1219.69,2451312
-0.0125122,-0.0496826,1.0332-1.83105,-0.793457,28.2593,0.011,-0.028,-14.63,0.000610352,-0.00619507,0,0,0,0,0,40.9,1219.71,2451326
-0.00250244,-0.0982056,1.05707-2.62451,-0.305176,30.6396,0.034,-0.069,-15.94,0.000900269,-0.00733948,0,0,0,0,0,40.9,1219.75,2451372
0.010376,-0.0215454,0.943359-0.915527,-0.976562,27.3437,0.023,0.005,-16.36,0.00105286,-0.00785828,0,0,0,0,0,40.9,1219.77,2451386
-0.0471802,0.010498,0.9998781.83105,-0.488281,27.5269,-0.04,0.02,-16.77,0.00120544,-0.00836182,0,0,0,0,0,40.9,1219.8,2451401
0.00402832,-0.14093,1.04841.52588,-0.305176,29.3579,0.055,-0.108,-17.64,0.00149536,-0.00939941,0,0,0,0,0,40.9,1219.81,2451432
-0.0160522,0.0231323,0.979309-0.366211,-0.915527,29.602,-0.014,0.039,-18.08,0.00169373,-0.0100098,0,0,0,0,0,40.9,1219.83,2451446
-0.0283813,-0.106689,1.06311-2.0752,0.12207,32.5928,0.015,-0.084,-18.56,0.00189209,-0.0106354,0,0,0,0,0,40.9,1219.85,2451461
0.0132446,0.0742798,1.03033-2.50244,-1.15967,32.2876,-0.004,0.099,-19.05,0.00189209,-0.011261,0,0,0,0,0,40.9,1219.87,2451476
-0.0670776,-0.0745239,1.06433-3.90625,0.610352,31.0669,-0.031,-0.064,-19.99,0.00189209,-0.0125885,0,0,0,0,0,40.9,1219.89,2451507
-0.00201416,-0.0216675,0.973633-2.86865,-0.915527,28.5645,0.01,0.005,-20.44,0.00186157,-0.0133514,0,0,0,0,0,40.9,1219.91,2451522
-0.0358276,-0.0272217,1.017330.671387,-0.427246,27.4048,-0.019,-0.011,-21.27,0.00201416,-0.0149841,0,0,0,0,0,40.9,1219.93,2451552
0.00585938,-0.0575562,0.9405522.0752,-1.46484,26.2451,0.031,-0.026,-21.66,0.00212097,-0.0158539,0,0,0,0,0,40.9,1219.95,2451567
0.0400391,-0.14447,1.102110.976562,0.549316,27.5269,0.096,-0.088,-22.07,0.00231934,-0.0167999,0,0,0,0,0,40.9,1219.97,2451582
-0.0181885,-0.0614624,0.953918-1.09863,-0.915527,27.2217,0.01,-0.037,-22.88,0.00294495,-0.0190125,0,0,0,0,0,40.9,1219.99,2451612
-0.0151978,0.0835571,1.037781.95312,-0.549316,28.8086,-0.043,0.099,-23.31,0.00325012,-0.0201111,0,0,0,0,0,40.9,1220.01,2451627
-0.0415649,-0.071106,1.022522.01416,-0.732422,27.6489,-0.005,-0.054,-23.73,0.00350952,-0.0211792,0,0,0,0,0,40.9,1220.03,2451642
-0.0600586,-0.0542603,1.046941.70898,0.549316,29.8462,-0.028,-0.045,-24.16,0.00376892,-0.0223236,0,0,0,0,0,40.9,1220.05,2451657
-0.0379028,-0.0227661,1.030761.89209,-1.34277,31.5552,-0.021,-0.01,-25.09,0.00427246,-0.0245514,0,0,0,0,0,40.9,1220.07,2451687
-0.0497437,-0.0438843,0.9780270.610352,-1.34277,33.2031,-0.022,-0.036,-25.58,0.00450134,-0.0256805,0,0,0,0,0,40.9,1220.09,2451702
0.0119629,-0.0233765,0.9854130.0610352,-1.83105,33.3862,0.024,0.008,-26.09,0.00473022,-0.026825,0,0,0,0,0,40.9,1220.11,2451717
0.012146,0.00299072,0.996216-0.976562,-2.38037,32.7148,0.011,0.032,-27.08,0.00518799,-0.0290833,0,0,0,0,0,40.92,1220.13,2451747
-0.00317383,-0.012207,1.00842-0.732422,-0.793457,33.9966,0.004,0.012,-27.59,0.00518799,-0.0301819,0,0,0,0,0,40.92,1220.15,2451762
0.012146,0.00189209,1.04999-0.732422,-1.0376,33.02,0.01,0.032,-28.59,0.00526428,-0.0322723,0,0,0,0,0,40.92,1220.17,2451792
-0.0112915,0.0195923,1.01117-0.671387,-1.2207,32.3486,-0.018,0.035,-29.08,0.00532532,-0.0332642,0,0,0,0,0,40.92,1220.19,2451807
-0.000732422,0.0126953,1.02740,-0.976562,33.0811,-0.006,0.034,-29.57,0.00532532,-0.0342102,0,0,0,0,0,40.92,1220.21,2451822
-0.00439453,-0.024353,0.995117-0.671387,-1.58691,33.6304,0.008,0,-30.57,0.00532532,-0.036026,0,0,0,0,0,40.92,1220.23,2451852
-0.00640869,-0.0055542,1.03906-1.95312,0.12207,33.4473,-0.003,0.015,-31.07,0.00532532,-0.036026,0,0,0,0,0,40.92,1220.25,2451867
-0.00738525,-0.00531006,1.01776-1.28174,-1.09863,32.8369,-0.004,0.015,-31.56,0.00532532,-0.036026,0,0,0,0,0,40.92,1220.27,2451882
-0.0378418,-0.0145874,1.055730,-0.12207,32.1655,-0.025,-0.008,-32.55,0.00535583,-0.0361328,0,0,0,0,0,40.92,1220.29,2451912
0.0183716,-0.00787354,1.01434-0.12207,-2.13623,33.2642,0.018,0.026,-33.05,0.00537109,-0.0361786,0,0,0,0,0,40.92,1220.31,2451927
-0.0206299,-0.0345459,0.95874-1.52588,-1.52588,28.5034,0,-0.019,-33.5,0.00537109,-0.0362396,0,0,0,0,0,40.92,1220.33,2451942
0.0205078,0.208984,0.9724730.671387,-2.44141,20.9961,-0.103,0.205,-34.19,0.0052948,-0.0361938,0,0,0,0,0,40.92,1220.36,2451972
-0.0189209,0.010498,0.9956051.40381,-2.0752,15.9302,-0.024,0.018,-34.46,0.00512695,-0.0359344,0,0,0,0,0,40.92,1220.38,2451987
0.0211182,0.0721436,1.012942.50244,-2.01416,12.8174,-0.026,0.091,-34.67,0.00492859,-0.035614,0,0,0,0,0,40.92,1220.39,2452002
-0.0159912,-0.0144043,1.056582.2583,-0.12207,13.6719,-0.007,0,-34.87,0.00471497,-0.0352173,0,0,0,0,0,40.92,1220.41,2452017
-0.0109863,-0.0197144,1.028931.52588,-0.366211,11.6577,0,-0.004,-35.27,0.00450134,-0.034317,0,0,0,0,0,40.92,1220.43,2452047
0.027771,-0.00604248,1.031251.64795,-0.244141,10.376,0.024,0.028,-35.43,0.0045166,-0.0338287,0,0,0,0,0,40.92,1220.45,2452062
0.0228271,-0.0283813,0.9661871.52588,-0.610352,12.085,0.033,0.006,-35.61,0.00457764,-0.0333252,0,0,0,0,0,40.92,1220.47,2452077
-0.0281982,-0.00219727,1.05713-0.610352,-0.183105,11.5967,-0.023,0,-35.99,0.00473022,-0.0328217,0,0,0,0,0,40.92,1220.49,2452107
-0.0130615,-0.0233154,0.99762-0.427246,0.12207,14.0381,0.001,-0.009,-36.18,0.00479126,-0.0328217,0,0,0,0,0,40.92,1220.51,2452122
-0.0136108,0.0125122,0.947510.244141,0.305176,15.686,-0.019,0.017,-36.42,0.00485229,-0.0328217,0,0,0,0,0,40.92,1220.53,2452137
-0.0493164,-0.0305786,1.07794-0.610352,0.244141,15.5029,-0.022,-0.035,-36.85,0.00483704,-0.0328522,0,0,0,0,0,40.92,1220.56,2452167
-0.00866699,0.0626221,0.9561160.427246,-0.671387,15.8691,-0.045,0.06,-37.09,0.004776,-0.0328674,0,0,0,0,0,40.92,1220.57,2452182
-0.0318604,0.00299072,1.098630.488281,1.28174,15.9302,-0.027,0,-37.56,0.00463867,-0.0328522,0,0,0,0,0,40.92,1220.59,2452212
0.0375366,-0.0184326,0.98761-0.854492,-0.854492,14.7095,0.04,0.024,-37.78,0.00457764,-0.0328369,0,0,0,0,0,40.92,1220.61,2452227
0.010437,0.00439453,0.9302370.305176,0.488281,14.9536,0.004,0.024,-38.01,0.00454712,-0.0327911,0,0,0,0,0,40.91,1220.63,2452242
0.0285645,-0.0195923,1.11737-0.976562,-0.488281,14.2212,0.033,0.02,-38.45,0.00448608,-0.0326996,0,0,0,0,0,40.91,1220.65,2452272
-0.0425415,0.0290527,1.008-0.244141,0.732422,16.9067,-0.052,0.012,-38.69,0.00444031,-0.0326385,0,0,0,0,0,40.91,1220.67,2452287
-0.0181885,0.0101318,0.9095460.549316,-0.305176,16.3574,-0.02,0.01,-38.94,0.00434875,-0.0326385,0,0,0,0,0,40.91,1220.69,2452302
-0.0130615,-0.0409546,1.055730.793457,-0.610352,16.2354,0.015,-0.023,-39.18,0.00424194,-0.0326385,0,0,0,0,0,40.91,1220.71,2452317
0.0306396,0.0234985,0.9284061.15967,-1.52588,16.9067,0.009,0.051,-39.72,0.00398254,-0.0326843,0,0,0,0,0,40.91,1220.73,2452347
-0.0171509,-0.0457153,0.9907230.488281,-0.427246,18.1885,0.016,-0.031,-39.98,0.00386047,-0.0326691,0,0,0,0,0,40.91,1220.75,2452362
0.0699463,-0.0189819,1.01489-0.976562,-1.34277,16.2964,0.065,0.046,-40.51,0.00357056,-0.0326843,0,0,0,0,0,40.91,1220.77,2452393
0.0139771,0.0192261,0.971375-0.12207,0.366211,17.8833,-0.001,0.038,-40.77,0.00346375,-0.0326233,0,0,0,0,0,40.91,1220.79,2452407
-0.0275879,-0.00823975,1.01526-0.915527,0.366211,16.6626,-0.015,-0.009,-41.03,0.00346375,-0.0325317,0,0,0,0,0,40.91,1220.81,2452422
-0.0426636,0.00891113,1.03998-3.90625,0.976562,11.7798,-0.039,-0.004,-41.44,0.003479,-0.0325317,0,0,0,0,0,40.91,1220.83,2452453
0.0139771,0.083313,0.890137-2.50244,-0.0610352,7.93457,-0.045,0.085,-41.58,0.00341797,-0.032486,0,0,0,0,0,40.91,1220.85,2452467
-0.0165405,-0.136719,1.13605-0.244141,1.2207,5.31006,0.077,-0.094,-41.67,0.00338745,-0.0324249,0,0,0,0,0,40.91,1220.87,2452482
-0.00305176,-0.164307,0.868164-0.305176,0.549316,0.12207,0.107,-0.11,-41.74,0.00352478,-0.032547,0,0,0,0,0,40.91,1220.89,2452513
-0.0718994,-0.0680542,1.133482.2583,1.09863,-1.77002,-0.008,-0.079,-41.72,0.00370789,-0.0327759,0,0,0,0,0,40.91,1220.91,2452527
-0.0917358,-0.0403442,1.108891.46484,0.671387,-1.09863,-0.04,-0.073,-41.7,0.00384521,-0.0331116,0,0,0,0,0,40.91,1220.93,2452542
-0.0272827,-0.0858765,1.060420.488281,0.183105,-2.38037,0.038,-0.066,-41.61,0.00422668,-0.0341187,0,0,0,0,0,40.91,1220.95,2452573
-0.0609131,-0.00927734,1.08435-0.0610352,-0.427246,-1.0376,-0.038,-0.029,-41.59,0.00444031,-0.0347443,0,0,0,0,0,40.91,1220.97,2452587
0.0300293,-0.043396,0.945496-0.793457,-0.12207,-1.34277,0.052,0.002,-41.57,0.00466919,-0.0353851,0,0,0,0,0,40.91,1220.99,2452602
-0.0495605,-0.0178833,1.03979-2.50244,0.0610352,0.854492,-0.024,-0.028,-41.56,0.00515747,-0.0354156,0,0,0,0,0,40.91,1221.01,2452633
0.046814,0.0217285,1.01135-0.549316,0.183105,-0.610352,0.021,0.064,-41.56,0.00538635,-0.0354156,0,0,0,0,0,40.91,1221.03,2452647
-0.0385132,-0.0881348,1.02844-0.976562,-0.183105,-0.671387,0.03,-0.074,-41.55,0.00564575,-0.0354309,0,0,0,0,0,40.91,1221.05,2452662
-0.00585938,0.0765381,0.9269411.77002,-0.610352,-0.671387,-0.054,0.069,-41.57,0.006073,-0.0351562,0,0,0,0,0,40.91,1221.07,2452693
-0.0209961,0.0777588,1.088621.09863,-0.12207,0,-0.066,0.062,-41.57,0.00617981,-0.0348511,0,0,0,0,0,40.91,1221.09,2452707
-0.00402832,-0.0734253,0.99231-0.0610352,-0.366211,0.549316,0.047,-0.041,-41.58,0.0062561,-0.0345154,0,0,0,0,0,40.91,1221.11,2452722
-0.0314941,-0.0755005,1.07770.244141,-0.12207,-0.183105,0.028,-0.059,-41.57,0.00643921,-0.033844,0,0,0,0,0,40.92,1221.13,2452753
-0.0109863,0.0673218,0.9773560.305176,-0.305176,-0.427246,-0.051,0.059,-41.57,0.0065155,-0.0335083,0,0,0,0,0,40.92,1221.15,2452767
-0.017334,-0.0214233,0.9732060.305176,-0.12207,-0.610352,0.003,-0.011,-41.57,0.00656128,-0.0331421,0,0,0,0,0,40.92,1221.18,2452782
-0.0490723,0.0259399,1.093930.610352,0.244141,-0.183105,-0.051,0.005,-41.56,0.00657654,-0.0331421,0,0,0,0,0,40.92,1221.19,2452797
0.0158691,0.0125122,0.8966062.2583,-1.52588,-0.183105,0.005,0.034,-41.58,0.0065155,-0.03302,0,0,0,0,0,40.92,1221.21,2452827
-0.0420532,-0.0297852,1.084410,0.610352,0.915527,-0.008,-0.033,-41.59,0.0065155,-0.0329437,0,0,0,0,0,40.92,1221.23,2452842
0.00323486,0.0203857,1.011470,-1.2207,0.488281,-0.007,0.033,-41.6,0.0065155,-0.0328522,0,0,0,0,0,40.92,1221.25,2452857
-0.026062,-0.0263062,0.991821-0.488281,1.34277,0,0.001,-0.021,-41.6,0.0065155,-0.0326385,0,0,0,0,0,40.92,1221.27,2452888
0.0270386,0.0100708,1.05444-0.427246,0.366211,-0.915527,0.017,0.042,-41.59,0.0065155,-0.0325317,0,0,0,0,0,40.92,1221.29,2452903
0.0130005,0.0452881,1.002440.305176,0.671387,-1.0376,-0.016,0.058,-41.58,0.0065155,-0.0323486,0,0,0,0,0,40.92,1221.31,2452918
-0.0111694,-0.0117188,0.9989010.793457,1.09863,-0.549316,0.004,0,-41.55,0.00639343,-0.0318909,0,0,0,0,0,40.92,1221.33,2452948
-0.0272217,0.000305176,0.9998782.01416,0.549316,-0.427246,-0.015,-0.002,-41.54,0.00631714,-0.0318909,0,0,0,0,0,40.92,1221.35,2452963
-0.00671387,0.0522461,0.9308470.427246,-0.915527,0.427246,-0.034,0.049,-41.55,0.00628662,-0.0320129,0,0,0,0,0,40.92,1221.37,2452993
-0.0461426,-0.0855103,1.040950.427246,-0.671387,0.915527,0.028,-0.078,-41.56,0.0062561,-0.0321045,0,0,0,0,0,40.92,1221.39,2453008
-0.090332,-0.0184937,1.102540.915527,0.244141,0.793457,-0.048,-0.056,-41.58,0.00619507,-0.0322876,0,0,0,0,0,40.92,1221.41,2453023
-0.0126343,0.00604248,0.9667972.38037,-1.09863,0.244141,-0.007,0.01,-41.59,0.00613403,-0.0325012,0,0,0,0,0,40.92,1221.44,2453053
-0.0441284,-0.00134277,1.070861.89209,0.427246,-1.15967,-0.024,-0.015,-41.58,0.00610352,-0.0325012,0,0,0,0,0,40.92,1221.45,2453068
0.0681152,0.0310059,0.9820563.2959,0,-1.89209,0.037,0.081,-41.56,0.006073,-0.0324554,0,0,0,0,0,40.92,1221.47,2453083
-0.0550537,0.0136108,1.07331.70898,1.64795,-1.83105,-0.041,-0.013,-41.51,0.00611877,-0.0323334,0,0,0,0,0,40.92,1221.49,2453113
0.012146,-0.000915527,0.9940191.64795,0.915527,-1.46484,0.018,0.019,-41.5,0.00611877,-0.0323334,0,0,0,0,0,40.92,1221.51,2453128
-0.0228271,-0.00537109,0.9996341.52588,1.0376,-1.46484,-0.004,-0.007,-41.47,0.00611877,-0.0323334,0,0,0,0,0,40.92,1221.53,2453143
-0.105591,-0.0383301,1.06274-0.0610352,1.34277,-1.28174,-0.043,-0.085,-41.45,0.00608826,-0.0323944,0,0,0,0,0,40.92,1221.55,2453158
-0.0324097,-0.0124512,0.9657590.732422,0.0610352,-1.95312,-0.005,-0.018,-41.42,0.00598145,-0.0325317,0,0,0,0,0,40.92,1221.57,2453188
-0.104614,0.0189819,1.022340.427246,-0.366211,-0.976562,-0.079,-0.041,-41.4,0.00587463,-0.0326233,0,0,0,0,0,40.92,1221.59,2453203
0.0608521,0.0111084,1.012631.46484,-0.549316,-1.46484,0.049,0.061,-41.38,0.0057373,-0.0326996,0,0,0,0,0,40.92,1221.61,2453218
-0.0440674,0.0281982,1.023681.34277,-0.549316,-0.732422,-0.039,0.004,-41.34,0.00550842,-0.0327454,0,0,0,0,0,40.92,1221.63,2453248
0.0482178,0.00238037,0.9644172.68555,-0.366211,-0.976562,0.046,0.044,-41.33,0.00537109,-0.0327148,0,0,0,0,0,40.89,1221.65,2453263
-0.0307007,-0.0193481,1.05892.31934,0.0610352,-1.2207,0.002,-0.023,-41.31,0.00527954,-0.0326691,0,0,0,0,0,40.89,1221.67,2453278
0.0317993,-0.0251465,0.959292.56348,0,0.671387,0.053,0.011,-41.33,0.00505066,-0.0326538,0,0,0,0,0,40.89,1221.69,2453308
-0.0442505,-0.0045166,1.066532.2583,0.854492,0.854492,-0.015,-0.022,-41.34,0.00495911,-0.0326538,0,0,0,0,0,40.89,1221.71,2453323
-0.0322876,0.012146,1.014711.83105,0.488281,0.854492,-0.017,-0.002,-41.36,0.00495911,-0.0326691,0,0,0,0,0,40.89,1221.73,2453338
-0.0396118,0.00585938,1.086612.2583,0.671387,0,-0.016,-0.012,-41.37,0.00498962,-0.0326691,0,0,0,0,0,40.89,1221.75,2453368
-0.0351562,0.0228882,0.9991463.2959,-0.183105,0.976562,-0.025,0.002,-41.38,0.00498962,-0.0326538,0,0,0,0,0,40.89,1221.77,2453383
-0.072937,-0.00708008,1.075934.27246,0.305176,2.01416,-0.031,-0.046,-41.42,0.00495911,-0.0326843,0,0,0,0,0,40.89,1221.79,2453413
-0.0270996,0.0109863,0.9926154.69971,-0.427246,2.13623,-0.008,-0.004,-41.45,0.00491333,-0.0327301,0,0,0,0,0,40.89,1221.81,2453428
0.000854492,-0.0227051,0.9838265.7373,-0.671387,1.58691,0.034,-0.012,-41.47,0.00488281,-0.0327911,0,0,0,0,0,40.89,1221.83,2453443
-0.0616455,-0.0218506,1.097234.02832,-0.12207,2.62451,-0.009,-0.053,-41.51,0.00488281,-0.0329132,0,0,0,0,0,40.89,1221.85,2453458
0.00262451,-0.00561523,0.9573975.37109,-0.610352,2.0752,0.026,-0.001,-41.57,0.00485229,-0.0331573,0,0,0,0,0,40.89,1221.87,2453488
-0.076355,-0.0333862,1.141913.66211,-0.0610352,2.86865,-0.009,-0.075,-41.61,0.00486755,-0.0333252,0,0,0,0,0,40.89,1221.89,2453503
0.0479736,0.0301514,1.031013.23486,-1.28174,1.2207,0.039,0.054,-41.64,0.00489807,-0.0335083,0,0,0,0,0,40.89,1221.91,2453518
0.019104,0.0490723,1.11542-0.915527,0.12207,-0.366211,0.007,0.048,-41.66,0.00494385,-0.0338593,0,0,0,0,0,40.89,1221.93,2453548
-0.0543823,0.057312,0.986145-1.09863,0.732422,0.549316,-0.056,0.005,-41.66,0.00492859,-0.0339966,0,0,0,0,0,40.89,1221.95,2453563
0.00335693,-0.0157471,1.04803-3.05176,-0.549316,0.427246,0.036,-0.01,-41.68,0.00489807,-0.0339966,0,0,0,0,0,40.89,1221.97,2453578
-0.0567017,-0.00817871,1.008540.610352,-0.610352,1.15967,-0.014,-0.044,-41.7,0.004776,-0.0338135,0,0,0,0,0,40.89,1221.99,2453608
-0.0418091,-0.114502,0.9891970.915527,-2.19727,0.488281,0.067,-0.114,-41.71,0.00473022,-0.0338135,0,0,0,0,0,40.89,1222.01,2453623
0.0065918,0.0804443,1.016972.31934,-2.44141,1.15967,-0.024,0.062,-41.73,0.00471497,-0.033844,0,0,0,0,0,40.89,1222.03,2453638
-0.0339966,-0.0141602,1.04797-0.0610352,-1.09863,1.09863,0.009,-0.036,-41.75,0.00466919,-0.0339661,0,0,0,0,0,40.89,1222.05,2453668
0.0239258,0.175537,1.02350.244141,-0.183105,1.15967,-0.075,0.143,-41.77,0.00462341,-0.0339813,0,0,0,0,0,40.89,1222.07,2453683
-0.0376587,0.0198975,1.07581-2.44141,-0.915527,0.915527,-0.016,-0.013,-41.8,0.00450134,-0.0339203,0,0,0,0,0,40.89,1222.1,2453713
-0.0317383,0.00610352,1.02344-2.01416,-0.305176,1.28174,-0.005,-0.02,-41.84,0.00450134,-0.0337677,0,0,0,0,0,40.89,1222.13,2453743
-0.0180054,0.0675659,1.07971-1.15967,-0.183105,0.976562,-0.035,0.035,-41.86,0.00447083,-0.0336456,0,0,0,0,0,40.89,1222.14,2453758
-0.0180054,0.0675659,1.07971-1.15967,-0.183105,0.976562,-0.035,0.035,-41.86,0.00447083,-0.0336456,0,0,0,0,0,40.89,1222.15,2453758
-0.0307007,0.0740356,1.011110.793457,-0.610352,1.52588,-0.051,0.031,-41.9,0.00444031,-0.0332794,0,0,0,0,0,40.91,1222.17,2453788
-0.0108032,-0.0248413,1.069580.183105,-0.610352,0.671387,0.03,-0.029,-41.92,0.00440979,-0.0330811,0,0,0,0,0,40.91,1222.19,2453803
0.00262451,-0.0241089,0.938477-0.244141,-0.915527,0.793457,0.037,-0.019,-41.93,0.00442505,-0.0329132,0,0,0,0,0,40.91,1222.21,2453818
-0.0111694,-0.0043335,1.0448-0.976562,-0.671387,-0.183105,0.015,-0.014,-41.95,0.00442505,-0.0325317,0,0,0,0,0,40.91,1222.24,2453848
-0.0449219,-0.0288086,0.959473-0.0610352,-2.01416,1.70898,0.005,-0.054,-41.97,0.00442505,-0.0323944,0,0,0,0,0,40.91,1222.26,2453863
0.00231934,-0.00152588,1.02081-0.488281,-1.28174,1.40381,0.023,-0.003,-42,0.00444031,-0.0322723,0,0,0,0,0,40.91,1222.27,2453878
-0.00390625,0.119873,1.08807-0.427246,-0.671387,2.19727,-0.062,0.082,-42.04,0.00445557,-0.032074,0,0,0,0,0,40.91,1222.29,2453908
0.00628662,0.0588379,1.02179-0.0610352,-0.0610352,0.793457,-0.015,0.044,-42.06,0.00437927,-0.0318604,0,0,0,0,0,40.91,1222.31,2453923
0.0010376,-0.00708008,0.985413-0.305176,-0.488281,-0.915527,0.024,-0.008,-42.06,0.00431824,-0.0316162,0,0,0,0,0,40.91,1222.33,2453938
0.0523071,0.0233765,0.97406-0.427246,-0.488281,0.12207,0.041,0.048,-42.09,0.00419617,-0.0310669,0,0,0,0,0,40.91,1222.35,2453968
-0.0672607,-0.000549316,0.961182-0.671387,-0.488281,-0.671387,-0.031,-0.049,-42.08,0.00416565,-0.0307617,0,0,0,0,0,40.91,1222.37,2453983
-0.0135498,-0.133545,0.962524-1.52588,-2.2583,0.793457,0.097,-0.111,-42.12,0.00413513,-0.0303955,0,0,0,0,0,40.91,1222.4,2454014
0.019165,0.201172,1.132575.7373,0.732422,-7.93457,-0.097,0.154,-41.99,0.00405884,-0.0298767,0,0,0,0,0,40.91,1222.43,2454043
0.019165,0.201172,1.132575.7373,0.732422,-7.93457,-0.097,0.154,-41.99,0.00405884,-0.0298767,0,0,0,0,0,40.91,1222.43,2454043
0.0408325,0.164062,1.0822110.9863,2.56348,-15.5029,-0.054,0.138,-41.8,0.00386047,-0.0293121,0,0,0,0,0,40.91,1222.45,2454058
0.0200806,-0.00665283,0.9689337.56836,7.26318,-25.7568,0.046,-0.004,-41.08,0.00361633,-0.0278625,0,0,0,0,0,40.91,1222.47,2454088
-0.0842285,-0.088623,1.01056-1.64795,12.5122,-19.9585,0.023,-0.132,-40.42,0.00379944,-0.0265045,0,0,0,0,0,40.91,1222.5,2454118
0.0609741,-0.032959,1.02789-6.16455,11.7187,-20.2026,0.1,0.006,-40.11,0.00404358,-0.0259705,0,0,0,0,0,40.91,1222.52,2454134
-0.0169678,-0.0487061,1.01837-5.79834,11.7798,-18.3105,0.05,-0.052,-39.83,0.00437927,-0.0254517,0,0,0,0,0,40.91,1222.53,2454148
-0.103638,0.0371094,0.940613-6.89697,11.9629,-13.3057,-0.071,-0.037,-39.61,0.00469971,-0.0249939,0,0,0,0,0,40.91,1222.55,2454163
-0.152283,0.000610352,1.04089-5.06592,4.69971,1.52588,-0.079,-0.085,-39.32,0.00524902,-0.0240479,0,0,0,0,0,40.91,1222.6,2454208
-0.11438,0.0529175,1.05945-4.82178,1.58691,2.86865,-0.081,-0.018,-39.36,0.00523376,-0.0238953,0,0,0,0,0,40.91,1222.61,2454223
-0.216125,-0.00628662,0.921631-3.11279,0.183105,1.70898,-0.127,-0.129,-39.39,0.00508118,-0.0238495,0,0,0,0,0,40.91,1222.63,2454238
-0.0755615,0.0401611,1.00647-3.84521,-4.39453,5.18799,-0.046,-0.001,-39.54,0.00463867,-0.0239716,0,0,0,0,0,40.91,1222.65,2454269
-0.130737,-0.0424805,1.08032-4.21143,-4.39453,4.08936,-0.034,-0.099,-39.61,0.00434875,-0.0241241,0,0,0,0,0,40.9,1222.67,2454284
0.0640869,0.00891113,0.938538-2.80762,-4.45557,2.38037,0.074,0.061,-39.75,0.0038147,-0.0242767,0,0,0,0,0,40.9,1222.69,2454314
-0.0162964,-0.0184937,0.978027-2.86865,-1.64795,0.732422,0.03,-0.01,-39.76,0.00364685,-0.0242615,0,0,0,0,0,40.9,1222.71,2454329
0.052002,0.0366211,1.04279-3.96728,0.549316,0.427246,0.048,0.077,-39.78,0.00354004,-0.0242004,0,0,0,0,0,40.9,1222.73,2454344
0.0964966,0.0236206,1.02411-2.31934,1.15967,-2.44141,0.089,0.095,-39.75,0.00352478,-0.0240326,0,0,0,0,0,40.9,1222.75,2454359
0.00805664,0.0903931,1.03241-5.18799,4.3335,-0.610352,-0.021,0.092,-39.72,0.00363159,-0.0234985,0,0,0,0,0,40.9,1222.77,2454389
-0.00354004,-0.100525,0.948364-8.48389,4.82178,-0.488281,0.088,-0.061,-39.73,0.0037384,-0.0231781,0,0,0,0,0,40.9,1222.79,2454404
-0.0905151,0.0857544,0.931946-11.9629,5.43213,-0.366211,-0.098,0.029,-39.72,0.00382996,-0.0228882,0,0,0,0,0,40.9,1222.81,2454419
-0.113159,0.0067749,1.09729-16.0522,3.78418,-1.64795,-0.063,-0.034,-39.74,0.0037384,-0.0222168,0,0,0,0,0,40.9,1222.84,2454449
-0.15448,0.0524292,1.08203-15.9302,2.2583,0.976562,-0.125,-0.021,-39.74,0.00352478,-0.0219269,0,0,0,0,0,40.9,1222.85,2454464
-0.140625,-0.0217285,0.981873-13.7939,-0.671387,-1.09863,-0.072,-0.067,-39.76,0.00283813,-0.0212555,0,0,0,0,0,40.9,1222.87,2454494
-0.104004,0.00708008,1.04852-13.5498,-0.915527,1.40381,-0.063,-0.016,-39.77,0.00236511,-0.0209656,0,0,0,0,0,40.9,1222.89,2454509
0.0435181,-0.0372925,1.08173-12.7563,-2.0752,0.549316,0.076,0.047,-39.79,0.00190735,-0.0206604,0,0,0,0,0,40.9,1222.91,2454524
-0.0396729,-0.121277,0.99408-8.66699,-2.13623,2.68555,0.061,-0.071,-39.82,0.00100708,-0.0198364,0,0,0,0,0,40.9,1222.94,2454554
0.0741577,-0.0528564,0.920349-4.3335,-1.77002,-0.671387,0.101,0.051,-39.83,0.000686646,-0.0194244,0,0,0,0,0,40.9,1222.95,2454569
0.00299072,-0.0530396,1.029170,-0.0610352,-0.244141,0.046,0.011,-39.83,0.000442505,-0.0189667,0,0,0,0,0,40.9,1222.97,2454584
0.0236206,-0.115601,0.8963620.244141,1.2207,-0.549316,0.1,-0.028,-39.8,0.000259399,-0.0181427,0,0,0,0,0,40.9,1223,2454614
-0.017334,-0.0995483,1.006772.13623,3.05176,-0.549316,0.059,-0.035,-39.79,0.000320435,-0.0177917,0,0,0,0,0,40.9,1223.02,2454629
-0.0518799,-0.115417,1.126162.62451,4.3335,-1.58691,0.044,-0.063,-39.78,0.000457764,-0.0175171,0,0,0,0,0,40.9,1223.04,2454644
0.00146484,-0.0633545,0.9665530.0610352,3.479,0.183105,0.05,0.003,-39.77,0.000671387,-0.0172729,0,0,0,0,0,40.9,1223.05,2454659
-0.125061,-0.0145874,1.059451.34277,2.01416,-0.610352,-0.074,-0.033,-39.75,0.0010376,-0.0168762,0,0,0,0,0,40.9,1223.07,2454689
-0.00335693,0.0537109,0.997437-0.183105,0.915527,1.64795,-0.024,0.093,-39.77,0.00111389,-0.0166473,0,0,0,0,0,40.9,1223.09,2454704
-0.123413,-0.0701904,1.01318-2.74658,0.12207,0.549316,-0.036,-0.076,-39.76,0.00111389,-0.0161743,0,0,0,0,0,40.9,1223.12,2454734
0.0525513,0.0442505,0.945618-0.915527,-1.64795,0.366211,0.024,0.119,-39.78,0.00108337,-0.0159454,0,0,0,0,0,40.9,1223.13,2454749
-0.119385,-0.0650635,1.08545-1.2207,-1.09863,-1.46484,-0.036,-0.066,-39.76,0.0010376,-0.015686,0,0,0,0,0,40.9,1223.16,2454764
0.0479736,-0.0841675,1.0141-0.732422,-0.915527,-0.732422,0.103,0.02,-39.76,0.000854492,-0.0152283,0,0,0,0,0,40.89,1223.17,2454794
-0.16626,0.0180054,0.9978642.01416,-0.0610352,-1.0376,-0.128,-0.038,-39.74,0.000762939,-0.0150146,0,0,0,0,0,40.89,1223.19,2454809
-0.0233765,-0.0737915,1.085390.976562,0.793457,0.12207,0.041,-0.013,-39.74,0.000610352,-0.0148315,0,0,0,0,0,40.89,1223.21,2454824
0.0726929,0.0772705,0.976746-0.183105,-0.0610352,-1.28174,0.017,0.157,-39.72,0.00050354,-0.0145416,0,0,0,0,0,40.89,1223.23,2454839
0.0197754,-0.0588989,0.977356-2.68555,1.95312,-0.366211,0.063,0.019,-39.69,0.000213623,-0.0136261,0,0,0,0,0,40.89,1223.26,2454869
-0.0125122,-0.0394897,1.00092-2.31934,2.19727,-1.15967,0.026,0.015,-39.68,0.000137329,-0.0136261,0,0,0,0,0,40.89,1223.27,2454884
-0.104065,0.0820312,1.03882-2.44141,2.2583,-0.976562,-0.12,0.053,-39.66,0,-0.0135803,0,0,0,0,0,40.89,1223.29,2454899
-0.107422,-0.13324,1.01495-2.50244,2.0752,-2.13623,0.013,-0.113,-39.65,-0.000228882,-0.0131531,0,0,0,0,0,40.89,1223.31,2454929
-0.12207,0.0341797,1.04962-3.11279,2.13623,-0.488281,-0.103,0.009,-39.63,-0.000289917,-0.0130005,0,0,0,0,0,40.89,1223.33,2454944
0.0300293,0.0457153,0.93573-2.50244,1.28174,-0.0610352,0.005,0.109,-39.63,-0.000411987,-0.0127716,0,0,0,0,0,40.89,1223.35,2454959
-0.0415649,-0.116089,0.935913-2.92969,0.305176,-0.610352,0.054,-0.059,-39.61,-0.000762939,-0.0120087,0,0,0,0,0,40.89,1223.37,2454989
0.0202026,-0.000976562,1.00830.976562,1.64795,-0.976562,0.028,0.072,-39.6,-0.000900269,-0.0116119,0,0,0,0,0,40.89,1223.39,2455004
-0.147034,-0.0409546,1.031370.976562,0.610352,-1.28174,-0.074,-0.062,-39.57,-0.00105286,-0.0112,0,0,0,0,0,40.89,1223.41,2455019
-0.0338135,-0.0932007,1.016540.0610352,1.2207,-0.671387,0.046,-0.031,-39.56,-0.00135803,-0.010437,0,0,0,0,0,40.89,1223.43,2455049
-0.121704,0.0239258,1.02985-0.305176,0.305176,0.488281,-0.096,0.003,-39.57,-0.00151062,-0.0100708,0,0,0,0,0,40.89,1223.45,2455064
0.000549316,-0.151489,1.03082-1.34277,0.915527,0.488281,0.11,-0.052,-39.58,-0.00166321,-0.00975037,0,0,0,0,0,40.89,1223.47,2455079
-0.130493,-0.0661621,1.01941-0.793457,0.305176,1.77002,-0.045,-0.07,-39.58,-0.00175476,-0.00924683,0,0,0,0,0,40.89,1223.49,2455109
0.0235596,0.00939941,0.971252-0.976562,-0.183105,4.3335,0.024,0.082,-39.64,-0.0018158,-0.00901794,0,0,0,0,0,40.89,1223.51,2455124
0.00109863,-0.000854492,1.050781.2207,0.183105,5.18799,0.014,0.064,-39.72,-0.00184631,-0.00868225,0,0,0,0,0,40.89,1223.53,2455139
0.0644531,-0.0213013,1.008360.366211,0,9.39941,0.076,0.087,-39.93,-0.00198364,-0.0080719,0,0,0,0,0,40.89,1223.55,2455169
-0.111938,0.031189,1.01123-2.31934,0.366211,10.5591,-0.092,0.015,-40.22,-0.00209045,-0.00738525,0,0,0,0,0,40.89,1223.58,2455199
-0.111938,0.031189,1.01123-2.31934,0.366211,10.5591,-0.092,0.015,-40.22,-0.00209045,-0.00738525,0,0,0,0,0,40.89,1223.59,2455199
-0.010498,-0.0205688,1.02844-1.34277,0.366211,13.7939,0.018,0.041,-40.64,-0.00218201,-0.00735474,0,0,0,0,0,40.89,1223.62,2455229
-0.106201,0.0477295,0.99469-1.15967,-0.427246,13.6719,-0.099,0.029,-40.85,-0.00222778,-0.00726318,0,0,0,0,0,40.89,1223.63,2455244
-0.0848999,0.0178833,1.02826-0.366211,2.19727,14.2822,-0.062,0.023,-41.07,-0.00239563,-0.00714111,0,0,0,0,0,40.89,1223.65,2455259
-0.0875244,-0.133118,1.05176-1.70898,0.854492,13.4888,0.035,-0.09,-41.49,-0.00247192,-0.00714111,0,0,0,0,0,40.89,1223.67,2455289
-0.138245,0.163086,1.01276-0.366211,1.40381,14.4043,-0.199,0.095,-41.7,-0.00256348,-0.00720215,0,0,0,0,0,40.87,1223.69,2455304
0.0742798,-0.0702515,1.03906-1.58691,0.488281,14.0381,0.115,0.065,-41.92,-0.00271606,-0.00715637,0,0,0,0,0,40.87,1223.71,2455319
-0.139709,0.00427246,1.02618-2.68555,0.732422,13.977,-0.094,-0.022,-42.33,-0.00283813,-0.00712585,0,0,0,0,0,40.87,1223.73,2455349
0.0828857,0.00354004,1.00568-2.99072,0.976562,14.4653,0.07,0.125,-42.55,-0.00291443,-0.00708008,0,0,0,0,0,40.87,1223.75,2455364
-0.0639648,-0.0876465,0.965393-2.56348,1.09863,14.4043,0.023,-0.042,-42.78,-0.00294495,-0.00697327,0,0,0,0,0,40.87,1223.77,2455379
-0.0455933,-0.0186157,1.0448-2.99072,0.976562,17.1509,-0.009,0.027,-43.23,-0.00294495,-0.00691223,0,0,0,0,0,40.87,1223.79,2455409
-0.0758667,-0.105957,0.95929-3.23486,0.671387,21.2402,0.027,-0.061,-43.52,-0.00294495,-0.00689697,0,0,0,0,0,40.87,1223.81,2455424
-0.0374146,-0.107056,0.979553-1.64795,-0.183105,21.7285,0.056,-0.034,-43.86,-0.00286865,-0.00695801,0,0,0,0,0,40.87,1223.83,2455439
-0.0512085,-0.0485229,1.02844-0.366211,0.793457,25.7568,0.006,0.002,-44.56,-0.00279236,-0.00714111,0,0,0,0,0,40.87,1223.85,2455469
0.24054,0.668457,0.84442115.564,-5.67627,18.0054,-0.295,0.699,-44.91,-0.00297546,-0.00674438,0,0,0,0,0,40.87,1223.87,2455484
-0.12207,-0.00695801,1.0156218.8599,-5.37109,7.87353,-0.068,-0.027,-45.07,-0.00340271,-0.00590515,0,0,0,0,0,40.87,1223.89,2455499
-0.148804,-0.172974,0.9457421.7895,4.02832,5.00488,0.037,-0.173,-45.33,-0.00410461,-0.00465393,0,0,0,0,0,40.87,1223.91,2455529
0.105652,-0.119507,1.0845919.5312,4.02832,3.41797,0.184,0.049,-45.37,-0.0042572,-0.00422668,0,0,0,0,0,40.87,1223.94,2455544
-0.0875244,-0.183533,1.1077315.3809,5.5542,5.92041,0.098,-0.133,-45.44,-0.00421143,-0.00386047,0,0,0,0,0,40.87,1223.95,2455559
0.0780029,-0.0800171,0.9793092.44141,5.00488,9.64355,0.141,0.053,-45.71,-0.00390625,-0.00375366,0,0,0,0,0,40.87,1223.97,2455589
-0.0993652,-0.0134277,0.9315190.366211,4.08936,12.146,-0.031,-0.029,-45.87,-0.00363159,-0.00375366,0,0,0,0,0,40.87,1223.99,2455604
-0.147644,0.174866,1.006652.68555,1.40381,15.8691,-0.196,0.07,-46.09,-0.00352478,-0.00372314,0,0,0,0,0,40.87,1224.01,2455619
-0.116943,-0.0204468,1.052672.80762,1.09863,21.5454,-0.027,-0.042,-46.63,-0.00379944,-0.00358582,0,0,0,0,0,40.87,1224.03,2455650
-0.0759888,0.146606,0.9981081.52588,-2.31934,28.9917,-0.122,0.098,-47.03,-0.00410461,-0.00350952,0,0,0,0,0,40.87,1224.05,2455665
-0.0443726,-0.0336914,1.007320.0610352,-4.39453,35.7056,0.031,-0.002,-47.53,-0.00445557,-0.00334167,0,0,0,0,0,40.87,1224.07,2455680
-0.0560303,-0.0510864,1.10547-2.0752,-6.40869,38.9404,0.039,-0.02,-48.71,-0.00518799,-0.00297546,0,0,0,0,0,40.87,1224.09,2455710
-0.0709839,-0.0653687,1.01038-3.05176,-5.43213,38.269,0.035,-0.047,-49.27,-0.00550842,-0.00283813,0,0,0,0,0,40.87,1224.11,2455725
0.0110474,0.0640259,0.924866-0.366211,-6.10352,39.3066,-0.013,0.093,-49.85,-0.0058136,-0.00265503,0,0,0,0,0,40.87,1224.13,2455740
-0.00244141,-0.0353394,1.096013.78418,-3.54004,36.1328,0.058,0.023,-50.99,-0.00650024,-0.00187683,0,0,0,0,0,40.87,1224.15,2455770
-0.0784912,-0.0501099,1.050351.28174,-0.976562,36.2549,0.021,-0.047,-51.52,-0.00679016,-0.00144958,0,0,0,0,0,40.87,1224.17,2455785
0.0643921,-0.0292358,1.00604-0.732422,0.183105,35.0342,0.092,0.075,-52.05,-0.00698853,-0.000991821,0,0,0,0,0,40.87,1224.19,2455800
-0.0446777,-0.0142822,1.03479-1.15967,0.976562,35.6445,0.013,-0.001,-53.09,-0.00712585,0.000198364,0,0,0,0,0,40.88,1224.21,2455830
-0.0316162,0.0502319,1.051091.0376,2.19727,39.0015,-0.03,0.047,-53.66,-0.00718689,0.000869751,0,0,0,0,0,40.88,1224.24,2455845
-0.0294189,-0.0275879,0.9975592.13623,3.11279,45.105,0.034,0.001,-54.92,-0.00718689,0.00219727,0,0,0,0,0,40.88,1224.26,2455875
-0.0874023,-0.0290527,1.048221.15967,3.72314,49.5605,0.006,-0.044,-55.65,-0.00712585,0.00282288,0,0,0,0,0,40.88,1224.28,2455890
-0.0249634,0.0275269,1.030150.488281,2.68555,53.2227,-0.005,0.038,-56.42,-0.00706482,0.00344849,0,0,0,0,0,40.88,1224.3,2455905
-0.0872192,0.0658569,1.013921.2207,0.305176,64.3311,-0.069,0.003,-58.24,-0.0071106,0.0040741,0,0,0,0,0,40.88,1224.31,2455935
-0.0813599,0.0333252,1.026061.77002,-1.2207,65.1855,-0.036,-0.009,-59.2,-0.00726318,0.0040741,0,0,0,0,0,40.88,1224.33,2455950
-0.0916748,0.0375977,1.027591.34277,-2.31934,70.0684,-0.044,-0.017,-60.24,-0.00746155,0.0040741,0,0,0,0,0,40.88,1224.35,2455965
-0.0479736,0.0735474,0.9924321.46484,-4.15039,69.8853,-0.054,0.034,-61.29,-0.00773621,0.00408936,0,0,0,0,0,40.88,1224.37,2455980
-0.00860596,0.0615845,1.011171.64795,-5.43213,68.9697,-0.024,0.058,-63.39,-0.00848389,0.00421143,0,0,0,0,0,40.88,1224.39,2456010
-0.0253906,0.0465088,1.024540.183105,-5.06592,64.5142,-0.018,0.033,-64.38,-0.00891113,0.00434875,0,0,0,0,0,40.88,1224.41,2456025
-0.0133057,0.0818481,0.990845-0.915527,-4.5166,63.7207,-0.046,0.056,-65.33,-0.00938416,0.00454712,0,0,0,0,0,40.88,1224.43,2456040
0.036438,0.0901489,0.9371950.12207,-4.08936,62.0728,-0.038,0.097,-67.21,-0.0103607,0.00518799,0,0,0,0,0,40.88,1224.45,2456070
-0.0383911,-0.0065918,1.044370.427246,-3.05176,62.5,0.025,-0.006,-68.15,-0.0108643,0.00561523,0,0,0,0,0,40.88,1224.47,2456085
0.00213623,0.0673828,1.101142.31934,-1.34277,62.439,-0.026,0.058,-69.08,-0.0113678,0.006073,0,0,0,0,0,40.88,1224.49,2456100
-0.0391846,0.0263672,1.008673.2959,0.793457,63.0493,-0.003,0,-70.96,-0.0123291,0.00715637,0,0,0,0,0,40.88,1224.51,2456130
0.0368042,-0.0678711,1.008851.09863,1.0376,62.1338,0.109,0.041,-71.9,-0.0127106,0.00773621,0,0,0,0,0,40.88,1224.53,2456145
-0.0145874,0.0567627,1.050780,0.671387,62.5,-0.024,0.031,-72.84,-0.0130463,0.00836182,0,0,0,0,0,40.88,1224.55,2456160
-0.0387573,0.0349121,0.986023-0.12207,0.305176,61.4624,-0.012,0,-74.69,-0.0136871,0.00901794,0,0,0,0,0,40.88,1224.57,2456190
-0.0266113,0.0134888,0.993164-0.244141,-0.12207,60.852,0.012,0.005,-75.61,-0.0139923,0.00901794,0,0,0,0,0,40.88,1224.59,2456205
-0.083252,0.00842285,0.964844-0.305176,0.427246,59.5093,0.003,-0.052,-76.51,-0.0139923,0.00898743,0,0,0,0,0,40.88,1224.61,2456220
-0.0684814,0.0323486,1.02008-1.15967,-0.854492,57.6782,-0.013,-0.031,-78.27,-0.0139923,0.00888062,0,0,0,0,0,40.88,1224.63,2456250
-0.0443726,0.0637207,0.9873665.18799,-1.77002,52.124,-0.037,-0.005,-79.91,-0.0143127,0.00871277,0,0,0,0,0,40.88,1224.66,2456280
-0.0443726,0.0637207,0.9873665.18799,-1.77002,52.124,-0.037,-0.005,-79.91,-0.0143127,0.00871277,0,0,0,0,0,40.88,1224.67,2456280
-0.0217285,-0.00152588,1.0206911.5967,-2.80762,51.2085,0.037,0.004,-81.46,-0.0149231,0.00871277,0,0,0,0,0,40.88,1224.69,2456310
-0.0688477,0.0308838,1.0269813.0005,-2.86865,48.7061,0.002,-0.039,-82.2,-0.0152283,0.00869751,0,0,0,0,0,40.9,1224.71,2456325
-0.0175781,0.0421753,1.0022614.0991,-2.68555,49.9268,0,0.011,-82.94,-0.0152283,0.00865173,0,0,0,0,0,40.9,1224.73,2456340
-0.0769043,-0.0456543,1.1543613.4888,-2.56348,48.4009,0.101,-0.056,-84.46,-0.0152893,0.00862122,0,0,0,0,0,40.9,1224.75,2456370
0.0137939,0.156799,1.0111712.8174,0.488281,44.1894,-0.096,0.048,-85.13,-0.0152893,0.0085907,0,0,0,0,0,40.9,1224.77,2456385
0.0145264,0.135498,0.8041386.95801,-1.0376,44.9829,-0.084,0.04,-85.81,-0.0154266,0.00863647,0,0,0,0,0,40.9,1224.79,2456400
-0.0363159,0.111694,0.960022-8.78906,2.92969,36.377,-0.054,-0.01,-87.03,-0.016037,0.00862122,0,0,0,0,0,40.9,1224.81,2456430
0.0244751,0.216003,0.908813-13.3667,0.793457,35.0952,-0.16,0.053,-87.55,-0.0165253,0.00862122,0,0,0,0,0,40.9,1224.83,2456445
0.0299683,0.231995,0.998352-13.4888,-0.854492,37.7808,-0.172,0.058,-88.1,-0.0172424,0.00869751,0,0,0,0,0,40.9,1224.86,2456460
-0.109558,0.186707,1.12073-8.11768,-2.99072,41.687,-0.125,-0.085,-89.31,-0.0193939,0.0088501,0,0,0,0,0,40.9,1224.87,2456490
-0.103882,0.128479,1.01678-6.16455,-1.77002,43.8232,-0.071,-0.084,-89.95,-0.0207062,0.0087738,0,0,0,0,0,40.9,1224.89,2456505
0.0595093,0.164062,0.98407-2.92969,-4.21143,44.4946,-0.11,0.075,-90.62,-0.0221405,0.00869751,0,0,0,0,0,40.9,1224.91,2456520
-0.0626221,-0.0492554,0.998962-5.98144,-3.23486,40.1001,0.104,-0.044,-91.84,-0.0249939,0.00862122,0,0,0,0,0,40.9,1224.93,2456550
0.0618896,0.139465,1.00336-6.10352,-3.2959,37.4146,-0.091,0.071,-92.42,-0.0263519,0.0085907,0,0,0,0,0,40.9,1224.95,2456565
-0.0422363,-0.0311279,0.992981-4.39453,-1.40381,34.668,0.082,-0.026,-92.95,-0.02771,0.0085907,0,0,0,0,0,40.9,1224.97,2456580
-0.00616455,0.0117188,1.03625-0.732422,-0.732422,33.8745,0.037,0.007,-93.98,-0.0301819,0.0085907,0,0,0,0,0,40.9,1224.99,2456610
-0.0341797,0.0490723,0.9841920.976562,-0.183105,33.2031,0,-0.024,-94.48,-0.0313721,0.0085907,0,0,0,0,0,40.9,1225.01,2456625
-0.00469971,0.0581665,1.044312.74658,0.244141,30.1514,-0.007,0.004,-94.95,-0.0313721,0.0085907,0,0,0,0,0,40.9,1225.03,2456640
-0.0484619,0.0722656,0.961061.0376,0.488281,29.6631,-0.02,-0.041,-95.87,-0.0312805,0.00848389,0,0,0,0,0,40.9,1225.05,2456670
-0.0217896,0.069519,0.987671-0.488281,1.77002,25.8179,-0.018,-0.013,-96.27,-0.03125,0.00837708,0,0,0,0,0,40.9,1225.07,2456685
-0.0372925,0.134888,1.01294-1.0376,1.15967,27.0386,-0.08,-0.036,-96.66,-0.0312805,0.00822449,0,0,0,0,0,40.9,1225.09,2456700
-0.0212402,0.0852661,1.024960.610352,0.183105,22.2778,-0.029,-0.014,-97.39,-0.0316925,0.0078125,0,0,0,0,0,40.9,1225.11,2456730
-0.0404663,0.0501709,0.984009-1.15967,-1.52588,24.5361,0.005,-0.03,-97.75,-0.0319519,0.00756836,0,0,0,0,0,40.9,1225.13,2456745
0.0178833,0.0852051,0.993774-3.41797,-1.83105,24.9634,-0.036,0.021,-98.13,-0.0322266,0.00730896,0,0,0,0,0,40.9,1225.15,2456760
-0.00872803,0.076355,1.02856-4.69971,-2.92969,26.8555,-0.024,-0.004,-98.89,-0.0328674,0.0067749,0,0,0,0,0,40.9,1225.17,2456790
-0.0241699,0.0722656,1.04254-2.92969,-2.19727,26.5503,-0.017,-0.02,-99.29,-0.0332184,0.00646973,0,0,0,0,0,40.9,1225.19,2456805
-0.05896,0.0921021,1.00952-1.15967,-1.83105,25.1465,-0.032,-0.059,-99.67,-0.0336151,0.00611877,0,0,0,0,0,40.9,1225.21,2456820
-0.0275879,0.0212402,1.006840,-1.0376,22.8271,0.032,-0.016,-100.41,-0.0343933,0.00572205,0,0,0,0,0,40.88,1225.23,2456850
-0.00378418,0.00012207,0.993042-0.610352,-0.732422,18.9209,0.047,0.01,-100.71,-0.0347137,0.00572205,0,0,0,0,0,40.88,1225.25,2456865
-0.00653076,0.0946045,1.01813-0.244141,-0.366211,16.7847,-0.043,-0.01,-100.98,-0.0350342,0.00572205,0,0,0,0,0,40.88,1225.27,2456880
-0.0100708,0.081604,1.011110.854492,0.854492,10.1929,-0.029,-0.011,-101.39,-0.0357361,0.00572205,0,0,0,0,0,40.88,1225.29,2456910
-0.0164185,0.0817871,1.020451.0376,1.58691,6.53076,-0.027,-0.016,-101.51,-0.0361328,0.00572205,0,0,0,0,0,40.88,1225.31,2456925
-0.0213013,0.0628052,1.02130.671387,2.31934,4.94385,-0.007,-0.017,-101.59,-0.0365601,0.00572205,0,0,0,0,0,40.88,1225.33,2456940
-0.0335083,0.0496826,0.989868-0.549316,2.56348,3.23486,0.006,-0.026,-101.7,-0.0365601,0.0057373,0,0,0,0,0,40.88,1225.35,2456970
0.0145264,0.0564575,0.993713-0.427246,1.83105,4.5166,-0.01,0.02,-101.77,-0.0365601,0.0057373,0,0,0,0,0,40.88,1225.38,2456985
-0.0244141,0.0736084,1.02289-0.0610352,1.52588,5.31006,-0.017,-0.02,-101.84,-0.0365601,0.0057373,0,0,0,0,0,40.88,1225.39,2457000
-0.0307007,0.055542,1.013490.549316,2.13623,3.66211,0.001,-0.021,-101.98,-0.0365601,0.00569153,0,0,0,0,0,40.88,1225.41,2457031
-0.0251465,0.0617065,1.004330.488281,2.50244,2.74658,-0.006,-0.017,-102.03,-0.0365601,0.00563049,0,0,0,0,0,40.88,1225.43,2457046
-0.041748,0.0609741,1.004270.244141,2.74658,1.70898,-0.002,-0.032,-102.07,-0.0365601,0.00552368,0,0,0,0,0,40.88,1225.45,2457061
-0.0534058,0.0787964,1.011230.549316,2.68555,0.488281,-0.016,-0.045,-102.11,-0.0365601,0.00520325,0,0,0,0,0,40.88,1225.47,2457091
-0.0384521,0.0510254,1.013550.610352,2.13623,-0.12207,0.007,-0.023,-102.11,-0.0365601,0.00498962,0,0,0,0,0,40.88,1225.49,2457106
-0.0549927,0.0431519,1.020570.244141,1.70898,-0.0610352,0.019,-0.036,-102.11,-0.0365601,0.00471497,0,0,0,0,0,40.88,1225.51,2457121
-0.0467529,0.0511475,0.990784-0.366211,0.12207,0.671387,0.007,-0.03,-102.13,-0.0365601,0.00404358,0,0,0,0,0,40.88,1225.53,2457151
-0.0491333,0.0509033,1.0177-0.183105,-0.427246,0.732422,0.009,-0.031,-102.13,-0.0365601,0.00364685,0,0,0,0,0,40.88,1225.55,2457166
-0.0445557,0.0599976,1.01221-0.12207,-0.915527,0.427246,0,-0.028,-102.14,-0.0365601,0.0032196,0,0,0,0,0,40.88,1225.57,2457181
-0.0307617,0.0462036,1.0141-0.488281,-1.52588,-0.12207,0.01,-0.012,-102.15,-0.0365601,0.00224304,0,0,0,0,0,40.88,1225.59,2457211
-0.0331421,0.0392456,1.01239-0.732422,-1.70898,0,0.016,-0.013,-102.14,-0.0365601,0.00224304,0,0,0,0,0,40.88,1225.61,2457226
-0.0224609,0.0424805,1.01416-0.915527,-1.70898,0.12207,0.011,-0.004,-102.14,-0.0365601,0.00224304,0,0,0,0,0,40.88,1225.63,2457241
-0.0267334,0.0134888,1.02142-0.732422,-1.64795,-0.305176,0.04,-0.002,-102.14,-0.0365295,0.00224304,0,0,0,0,0,40.88,1225.65,2457271
-0.020813,0.0670166,1.02924-0.12207,-0.976562,0.0610352,-0.013,-0.008,-102.13,-0.0364075,0.00224304,0,0,0,0,0,40.88,1225.68,2457301
-0.020813,0.0670166,1.02924-0.12207,-0.976562,0.0610352,-0.013,-0.008,-102.13,-0.0364075,0.00224304,0,0,0,0,0,40.88,1225.69,2457301
-0.0228271,0.0371704,1.000490.488281,-1.28174,-0.12207,0.015,-0.005,-102.13,-0.0364075,0.00224304,0,0,0,0,0,40.88,1225.71,2457331
-0.0313721,0.0308838,1.00568-0.366211,-0.976562,-0.671387,0.023,-0.012,-102.12,-0.036377,0.00224304,0,0,0,0,0,40.89,1225.73,2457346
-0.0322876,0.0532837,1.01361-1.09863,-0.854492,-0.610352,0.001,-0.018,-102.11,-0.0363464,0.00224304,0,0,0,0,0,40.89,1225.75,2457361
-0.0217896,0.0706787,1.030580.915527,-0.793457,0.366211,-0.016,-0.011,-102.12,-0.0363312,0.00224304,0,0,0,0,0,40.89,1225.78,2457391
-0.0343018,0.0222778,1.005680.610352,-0.976562,0.0610352,0.032,-0.014,-102.11,-0.0363312,0.00224304,0,0,0,0,0,40.89,1225.79,2457406
-0.0152588,0.0702515,0.992554-0.427246,-0.976562,-0.183105,-0.018,-0.006,-102.12,-0.0363312,0.00224304,0,0,0,0,0,40.89,1225.81,2457421
-0.0147705,0.0308228,1.02887-1.15967,-0.854492,-0.12207,0.021,0.003,-102.11,-0.0363159,0.00224304,0,0,0,0,0,40.89,1225.83,2457451
-0.0322876,0.0457764,0.992432-1.46484,-0.854492,-0.0610352,0.007,-0.018,-102.11,-0.0362854,0.00224304,0,0,0,0,0,40.89,1225.85,2457466
-0.0227051,0.071167,1.00159-0.732422,-1.0376,-0.12207,-0.018,-0.013,-102.11,-0.0362549,0.00224304,0,0,0,0,0,40.89,1225.87,2457481
-0.0365601,0.0370483,1.020630.549316,-0.793457,-0.12207,0.018,-0.019,-102.09,-0.0361633,0.00224304,0,0,0,0,0,40.89,1225.89,2457511
-0.0217896,0.0528564,0.9967650.244141,-1.28174,0,0,-0.009,-102.09,-0.0361023,0.00224304,0,0,0,0,0,40.89,1225.91,2457526
-0.0197144,0.0466919,1.00830.0610352,-1.0376,0.0610352,0.005,-0.005,-102.1,-0.0361023,0.00224304,0,0,0,0,0,40.89,1225.93,2457541
-0.0244751,0.0501709,1.00299-0.366211,-1.46484,-0.427246,0.002,-0.011,-102.09,-0.0361023,0.00224304,0,0,0,0,0,40.89,1225.95,2457571
-0.0117798,0.0598755,1.00067-0.427246,-1.52588,-0.671387,-0.009,-0.001,-102.08,-0.0361023,0.00224304,0,0,0,0,0,40.89,1225.97,2457586
-0.0257568,0.0584106,1.02301-0.366211,-1.15967,-1.0376,-0.004,-0.015,-102.06,-0.0361023,0.00224304,0,0,0,0,0,40.89,1225.99,2457601
-0.0178223,0.0561523,1.01196-0.488281,-1.77002,-0.732422,-0.004,-0.007,-102.03,-0.0361023,0.00224304,0,0,0,0,0,40.89,1226.01,2457631
-0.0252075,0.0477905,1.01282-0.0610352,-1.70898,-0.488281,0.005,-0.013,-102.03,-0.0361023,0.00224304,0,0,0,0,0,40.89,1226.03,2457646
-0.0230713,0.0328369,1.015990.0610352,-1.95312,-0.427246,0.019,-0.008,-102.02,-0.0361023,0.00224304,0,0,0,0,0,40.89,1226.05,2457661
-0.0238037,0.036438,1.00507-0.0610352,-2.38037,-1.15967,0.015,-0.01,-101.99,-0.0361023,0.00224304,0,0,0,0,0,40.89,1226.07,2457691
-0.0169678,0.0516968,1.004270,-2.62451,-1.40381,0,-0.007,-101.98,-0.0361023,0.00224304,0,0,0,0,0,40.89,1226.09,2457706
-0.0273438,0.0403442,1.025150.305176,-2.62451,-1.0376,0.013,-0.015,-101.95,-0.0361023,0.00224304,0,0,0,0,0,40.89,1226.11,2457721
-0.0270386,0.0444336,0.9998780.0610352,-3.05176,-0.854492,0.008,-0.017,-101.92,-0.0361023,0.00224304,0,0,0,0,0,40.89,1226.14,2457751
-0.019165,0.0352173,1.00525-0.0610352,-3.2959,-0.732422,0.015,-0.008,-101.91,-0.0361023,0.00224304,0,0,0,0,0,40.89,1226.15,2457766
-0.0183105,0.0515747,1.01837-0.244141,-3.479,-0.488281,0,-0.011,-101.9,-0.0361023,0.00224304,0,0,0,0,0,40.89,1226.18,2457781
-0.00262451,0.0598145,1.02386-0.976562,-4.02832,0,-0.011,0,-101.89,-0.0360107,0.00224304,0,0,0,0,0,40.89,1226.19,2457811
-0.0281982,0.0845337,1.02203-0.244141,-4.02832,-0.183105,-0.03,-0.031,-101.89,-0.0359955,0.00222778,0,0,0,0,0,40.89,1226.21,2457826
0.00518799,-0.0388184,1.04657-0.244141,-4.57764,-0.305176,0.084,0.026,-101.88,-0.0359192,0.00219727,0,0,0,0,0,40.89,1226.23,2457841
-0.0106201,0.0230713,0.9933470.671387,-5.12695,-0.305176,0.025,-0.004,-101.88,-0.0357819,0.00218201,0,0,0,0,0,40.87,1226.25,2457871
-0.0231934,0.0169678,1.000370.305176,-5.31006,-0.549316,0.035,-0.016,-101.87,-0.035675,0.00218201,0,0,0,0,0,40.87,1226.27,2457886
-0.0170288,0.0348511,0.989685-0.732422,-6.22559,-0.732422,0.015,-0.017,-101.84,-0.0354156,0.00218201,0,0,0,0,0,40.87,1226.3,2457917
-0.0098877,0.0267944,0.997559-1.15967,-6.46973,-0.305176,0.022,-0.01,-101.83,-0.0352631,0.00218201,0,0,0,0,0,40.87,1226.31,2457931
     0,0.0784912,1.02771-1.0376,-6.89697,-0.427246,-0.028,-0.012,-101.82,-0.0351105,0.00218201,0,0,0,0,0,40.87,1226.33,2457946
-0.0200806,0.0323486,1.01074-0.0610352,-7.14111,-0.427246,0.02,-0.024,-101.81,-0.0349731,0.00215149,0,0,0,0,0,40.87,1226.35,2457961
-0.00170898,0.0621948,0.994691.34277,-8.42285,-0.244141,-0.011,-0.016,-101.8,-0.034729,0.00205994,0,0,0,0,0,40.87,1226.37,2457991
-0.0118408,0.0452881,0.9832760.305176,-8.60596,-0.793457,0.007,-0.024,-101.79,-0.034729,0.00196838,0,0,0,0,0,40.87,1226.39,2458006
-0.00439453,0.0618286,1.02014-0.12207,-8.97217,-0.610352,-0.008,-0.022,-101.77,-0.034729,0.00184631,0,0,0,0,0,40.87,1226.41,2458021
0.00671387,0.0599976,1.03943-1.09863,-9.64355,-0.0610352,-0.007,-0.016,-101.75,-0.034729,0.00169373,0,0,0,0,0,40.87,1226.43,2458051
0.0392456,0.0952759,1.060.0610352,-9.46045,-0.610352,-0.046,0.005,-101.74,-0.0347595,0.00169373,0,0,0,0,0,40.87,1226.45,2458066
0.043335,0.0836792,1.03871.95312,-9.21631,-1.89209,-0.035,0.01,-101.71,-0.0348511,0.00169373,0,0,0,0,0,40.87,1226.47,2458081
0.0605469,0.0632935,0.998843.23486,-7.32422,-2.44141,-0.017,0.027,-101.63,-0.0349731,0.00177002,0,0,0,0,0,40.87,1226.5,2458111
0.0587158,0.0658569,0.9995732.62451,-5.18799,-3.78418,-0.018,0.023,-101.58,-0.0349731,0.00186157,0,0,0,0,0,40.87,1226.51,2458126
0.0819092,0.142883,1.007081.77002,-3.41797,-7.93457,-0.096,0.029,-101.49,-0.0350647,0.0019989,0,0,0,0,0,40.87,1226.53,2458141
0.0928345,0.200317,1.016050.427246,-1.34277,-22.8271,-0.151,0.028,-101,-0.0356445,0.00245667,0,0,0,0,0,40.87,1226.55,2458171
0.0668945,0.15979,1.004391.28174,-0.244141,-30.6396,-0.104,0.011,-100.57,-0.0361938,0.00274658,0,0,0,0,0,40.87,1226.57,2458186
0.0570679,0.103027,0.9818120.244141,0.854492,-34.2407,-0.047,0.014,-100.07,-0.0368347,0.00274658,0,0,0,0,0,40.87,1226.59,2458201
0.0470581,0.157654,0.990601-4.27246,4.21143,-38.6353,-0.099,-0.001,-99,-0.0383148,0.00289917,0,0,0,0,0,40.87,1226.61,2458231
0.0831299,0.0945435,1.02936-4.3335,5.85937,-41.5649,-0.04,0.045,-98.39,-0.0391846,0.00302124,0,0,0,0,0,40.87,1226.63,2458246
-0.0447388,-0.208008,1.05865-7.14111,8.66699,-36.438,0.276,-0.038,-97.82,-0.0398865,0.00314331,0,0,0,0,0,40.87,1226.65,2458261
0.039917,0.161682,0.988647-5.7373,16.7847,-22.3999,-0.113,0.005,-97.07,-0.0407715,0.00346375,0,0,0,0,0,40.87,1226.67,2458291
0.145752,-0.0727539,1.06635-1.83105,18.7378,-19.8975,0.109,0.142,-96.77,-0.0411987,0.0037384,0,0,0,0,0,40.87,1226.69,2458306
0.0843506,-0.0345459,1.07662.50244,16.5405,-13.0005,0.078,0.08,-96.56,-0.0415039,0.00416565,0,0,0,0,0,40.87,1226.71,2458321
0.0901489,0.0314331,0.9732679.70459,13.3057,-8.72803,0.01,0.085,-96.31,-0.0419922,0.0052948,0,0,0,0,0,40.87,1226.73,2458351
0.0369873,0.0133057,0.9683848.78906,12.4512,-10.7422,0.035,0.037,-96.18,-0.0421906,0.0059967,0,0,0,0,0,40.86,1226.75,2458366
-0.064209,-0.0186157,0.943054-0.610352,14.2212,-14.8926,0.076,-0.053,-95.77,-0.0424194,0.00741577,0,0,0,0,0,40.86,1226.78,2458397
0.0394287,-0.00970459,1.0636-6.95801,15.1978,-11.5356,0.061,0.054,-95.59,-0.0423889,0.00810242,0,0,0,0,0,40.86,1226.79,2458412
-0.0961914,0.152527,1.06-8.8501,18.3105,-11.9629,-0.089,-0.091,-95.43,-0.0423737,0.0087738,0,0,0,0,0,40.86,1226.81,2458427
-0.039917,0.0720825,1.08264-5.24902,14.2822,-8.60596,-0.016,-0.021,-95.29,-0.04245,0.00935364,0,0,0,0,0,40.86,1226.83,2458442
-0.167725,0.12677,0.9080813.72314,8.66699,-5.24902,-0.068,-0.151,-95.16,-0.0424957,0.0103912,0,0,0,0,0,40.86,1226.85,2458472
-0.16095,-0.0124512,0.9520874.57764,5.49316,-6.95801,0.071,-0.128,-95.08,-0.0425262,0.0106659,0,0,0,0,0,40.86,1226.87,2458487
-0.09729,-0.0145264,1.00974.45557,2.50244,-9.8877,0.07,-0.061,-94.95,-0.04245,0.0108185,0,0,0,0,0,40.86,1226.89,2458502
-0.0892334,0.0489502,0.9696663.23486,-2.01416,-11.1084,0.005,-0.056,-94.62,-0.0420074,0.0106506,0,0,0,0,0,40.86,1226.91,2458532
-0.0859375,0.0197754,0.9777221.40381,-4.27246,-12.9395,0.034,-0.05,-94.44,-0.0417328,0.0104218,0,0,0,0,0,40.86,1226.93,2458547
-0.0874634,0.0214233,0.978271-0.976562,-6.89697,-13.977,0.032,-0.053,-94.22,-0.0413971,0.0101318,0,0,0,0,0,40.86,1226.95,2458562
-0.0786133,0.0823975,1.01868-3.66211,-8.54492,-9.82666,-0.028,-0.05,-93.88,-0.040741,0.00927734,0,0,0,0,0,40.86,1226.97,2458592
-0.0509644,0.121521,1.04449-2.50244,-7.75146,-7.87353,-0.068,-0.025,-93.74,-0.0404968,0.00874329,0,0,0,0,0,40.86,1226.99,2458607
-0.0189819,0.114624,1.03308-0.427246,-7.50732,-7.14111,-0.063,0.004,-93.63,-0.040329,0.00820923,0,0,0,0,0,40.86,1227.01,2458622
0.0065918,0.0863647,1.054081.15967,-6.10352,-9.76562,-0.034,0.028,-93.37,-0.0401917,0.00723267,0,0,0,0,0,40.86,1227.04,2458652
0.0571289,0.0964355,1.02961.58691,-6.28662,-13.5498,-0.047,0.075,-93.2,-0.0402069,0.00682068,0,0,0,0,0,40.86,1227.05,2458667
0.0666504,0.104919,1.015992.31934,-4.88281,-18.3105,-0.055,0.082,-92.94,-0.0402832,0.00653076,0,0,0,0,0,40.86,1227.07,2458682
0.0567017,0.0652466,1.008971.77002,-0.305176,-27.5879,-0.012,0.073,-92.22,-0.0406189,0.00621033,0,0,0,0,0,40.86,1227.09,2458712
0.0701294,0.000244141,1.01135-0.671387,2.56348,-29.9683,0.051,0.088,-91.79,-0.0407715,0.00621033,0,0,0,0,0,40.86,1227.11,2458727
0.0678101,0.0518188,0.982727-2.86865,4.15039,-33.8135,-0.001,0.084,-91.31,-0.0408936,0.00631714,0,0,0,0,0,40.86,1227.13,2458742
0.0407715,0.0360107,1.01495-3.05176,7.08008,-36.7432,0.016,0.059,-90.77,-0.0410156,0.00653076,0,0,0,0,0,40.86,1227.15,2458757
0.0411987,-0.0144653,1.04016-0.854492,6.10352,-35.3394,0.067,0.062,-89.73,-0.0409698,0.00727844,0,0,0,0,0,40.86,1227.17,2458787
-0.0895996,0.0228882,0.952820.183105,7.26318,-38.0249,0.023,-0.068,-89.17,-0.0408783,0.00770569,0,0,0,0,0,40.86,1227.19,2458802
-0.079834,-0.00915527,1.028140.793457,6.83594,-37.4756,0.058,-0.054,-88.6,-0.0407257,0.00804138,0,0,0,0,0,40.86,1227.21,2458817
-0.088501,0.0355225,0.9910894.82178,4.3335,-37.6587,0.011,-0.058,-87.52,-0.0402832,0.00856018,0,0,0,0,0,40.86,1227.23,2458847
-0.11438,0.0334473,0.978765.67627,2.80762,-36.377,0.011,-0.082,-86.96,-0.0402832,0.00869751,0,0,0,0,0,40.86,1227.25,2458862
-0.0992432,0.0539551,0.99532.99072,-0.610352,-36.2549,-0.007,-0.062,-85.91,-0.0402069,0.00865173,0,0,0,0,0,40.87,1227.27,2458892
-0.105408,0.0744019,0.9866941.64795,-1.64795,-36.3159,-0.028,-0.066,-85.37,-0.0401611,0.00848389,0,0,0,0,0,40.87,1227.29,2458907
-0.0735474,0.0774536,0.9973750.183105,-2.74658,-37.4146,-0.028,-0.033,-84.81,-0.0401764,0.008255,0,0,0,0,0,40.87,1227.31,2458922
-0.045166,0.0544434,1.01978-0.793457,-3.23486,-38.6963,-0.002,-0.006,-84.23,-0.0402069,0.00799561,0,0,0,0,0,40.87,1227.33,2458937
0.00622559,0.0479736,1.02185-0.183105,-2.92969,-37.2925,0.009,0.042,-82.53,-0.0405731,0.00802612,0,0,0,0,0,40.87,1227.37,2458982
0.0114136,0.0258789,1.015320.732422,-1.09863,-38.4521,0.032,0.042,-81.39,-0.0405579,0.00834656,0,0,0,0,0,40.87,1227.39,2459012
0.017395,0.0306396,1.013610.427246,-0.610352,-39.7339,0.028,0.048,-80.8,-0.0404968,0.00860596,0,0,0,0,0,40.87,1227.42,2459027
0.0370483,0.0419922,1.048340.183105,0.854492,-39.856,0.022,0.07,-80.21,-0.0404053,0.00894165,0,0,0,0,0,40.87,1227.43,2459042
-0.00726318,0.0140381,1.022951.89209,3.05176,-40.0391,0.041,0.022,-79,-0.0401611,0.00979614,0,0,0,0,0,40.87,1227.46,2459072
-0.0253296,0.0332031,1.02462.31934,3.2959,-38.3911,0.019,0.008,-78.42,-0.039978,0.0102539,0,0,0,0,0,40.87,1227.47,2459087
-0.0556641,0.0478516,1.011353.05176,3.23486,-38.5132,0,-0.016,-77.85,-0.0397797,0.0107269,0,0,0,0,0,40.87,1227.49,2459102
-0.0593262,0.0371704,1.007323.72314,1.58691,-39.3066,0.009,-0.02,-76.69,-0.0397797,0.0115204,0,0,0,0,0,40.87,1227.51,2459132
-0.0941162,0.0202026,1.009032.99072,0.976562,-40.3442,0.017,-0.057,-76.09,-0.0397797,0.0118561,0,0,0,0,0,40.87,1227.53,2459147
-0.0844727,0.09552,1.004213.72314,-0.366211,-40.4663,-0.052,-0.027,-75.48,-0.0398102,0.0121307,0,0,0,0,0,40.87,1227.55,2459162
-0.0442505,0.0263062,1.010314.02832,-1.0376,-40.0391,0.025,-0.006,-74.87,-0.039856,0.0123901,0,0,0,0,0,40.87,1227.57,2459177
-0.0619507,0.0610962,1.025633.11279,-1.83105,-38.208,-0.011,-0.012,-73.71,-0.0398865,0.0128021,0,0,0,0,0,40.87,1227.59,2459207
-0.0400391,0.0484009,0.9875492.0752,-1.83105,-38.5132,0.005,0.003,-73.13,-0.0398865,0.0129852,0,0,0,0,0,40.87,1227.61,2459222
-0.0136719,0.065979,0.9995730.671387,-1.70898,-38.9404,-0.002,0.033,-71.97,-0.0398865,0.0130157,0,0,0,0,0,40.87,1227.63,2459252
-0.0189209,0.0806885,1.019651.0376,-1.58691,-39.2456,-0.016,0.034,-71.39,-0.0398865,0.013092,0,0,0,0,0,40.87,1227.65,2459267
-0.0181274,0.0786743,1.033751.83105,-0.915527,-39.917,-0.012,0.034,-70.8,-0.0398865,0.0132141,0,0,0,0,0,40.87,1227.67,2459282
-0.0363159,0.0464478,1.009462.2583,0.427246,-39.0015,0.01,0.006,-69.62,-0.039856,0.0135803,0,0,0,0,0,40.87,1227.69,2459312
-0.0109253,0.0569458,1.026371.70898,1.09863,-39.3677,0.011,0.034,-69.03,-0.0398102,0.0138092,0,0,0,0,0,40.87,1227.71,2459327
-0.0352173,0.0305786,1.041261.52588,1.28174,-40.4663,0.028,0.003,-68.43,-0.0397339,0.0140686,0,0,0,0,0,40.87,1227.73,2459342
-0.0430908,0.0524902,0.9838870.854492,0.793457,-41.748,0.001,0.004,-67.19,-0.039505,0.0143127,0,0,0,0,0,40.87,1227.75,2459372
-0.0507202,0.0841675,1.045292.62451,0.244141,-41.5039,-0.026,0.012,-66.57,-0.0393982,0.0143127,0,0,0,0,0,40.89,1227.77,2459387
-0.0849609,0.0116577,1.018683.66211,0.0610352,-41.3818,0.024,-0.048,-65.94,-0.0392914,0.0142822,0,0,0,0,0,40.89,1227.79,2459402
-0.0340576,0.0411377,0.9749763.60107,-0.671387,-39.856,0.016,0.009,-65.33,-0.0391541,0.0142365,0,0,0,0,0,40.89,1227.81,2459418
-0.052063,0.0647583,1.026922.56348,-0.854492,-41.3208,-0.008,0.004,-64.13,-0.0391541,0.0140686,0,0,0,0,0,40.89,1227.83,2459447
-0.0454712,0.046936,1.010562.2583,-1.0376,-40.5273,0.009,0.002,-63.52,-0.0391541,0.0139771,0,0,0,0,0,40.89,1227.85,2459462
-0.0579834,0.0238037,0.9918211.46484,-1.09863,-39.978,0.023,-0.019,-62.91,-0.0391235,0.0139771,0,0,0,0,0,40.89,1227.87,2459478
-0.0170898,0.0755005,1.03322.92969,-1.40381,-39.2456,0,0.041,-61.7,-0.0391083,0.0140228,0,0,0,0,0,40.89,1227.89,2459507
-0.0529785,0.0541992,1.02713.35693,-1.34277,-38.5742,0.002,0,-61.13,-0.0391083,0.0140991,0,0,0,0,0,40.89,1227.91,2459522
-0.050354,0.0805664,0.9921880.793457,-0.549316,-39.6729,-0.021,0.014,-59.95,-0.0390472,0.0141754,0,0,0,0,0,40.89,1227.93,2459552
-0.059021,0.0831909,1.038761.09863,-0.12207,-41.626,-0.024,0.01,-59.34,-0.039032,0.0141754,0,0,0,0,0,40.89,1227.95,2459567
-0.0493774,0.02948,1.00110.915527,-0.183105,-42.1753,0.023,-0.009,-58.71,-0.0390167,0.0141754,0,0,0,0,0,40.89,1227.97,2459582
-0.0430298,0.0516357,1.013732.01416,-0.610352,-42.5415,0.009,0.008,-57.43,-0.0390167,0.0142365,0,0,0,0,0,40.89,1227.99,2459612
-0.0708008,0.0648193,1.014953.2959,-0.671387,-42.2363,-0.016,-0.007,-56.79,-0.0390167,0.0142975,0,0,0,0,0,40.89,1228.01,2459627
-0.0430908,0.019043,0.9933472.31934,-0.793457,-41.3208,0.035,-0.009,-56.17,-0.0390015,0.0142975,0,0,0,0,0,40.89,1228.04,2459642
-0.0645142,0.0926514,1.050051.52588,-0.671387,-42.9077,-0.032,0.016,-54.9,-0.0389404,0.0142975,0,0,0,0,0,40.89,1228.05,2459672
-0.0458374,0.0090332,1.001891.83105,-0.549316,-42.2974,0.042,-0.017,-54.27,-0.0389099,0.0142975,0,0,0,0,0,40.89,1228.07,2459687
0.000671387,0.210205,1.029114.21143,-1.2207,-44.1894,-0.088,0.139,-53.61,-0.0389252,0.0143738,0,0,0,0,0,40.89,1228.09,2459702
-0.0388794,0.119934,1.077397.69043,-0.976562,-45.4712,-0.033,0.053,-52.93,-0.0390015,0.0145874,0,0,0,0,0,40.89,1228.11,2459718
-0.0332031,0.0952759,0.9952395.5542,-0.549316,-42.1753,-0.013,0.041,-51.62,-0.0391846,0.0151215,0,0,0,0,0,40.89,1228.13,2459747
-0.0523071,0.0586548,0.9691163.17383,0.854492,-43.5181,0.001,0.003,-50.97,-0.0392761,0.0154266,0,0,0,0,0,40.89,1228.15,2459762
-0.0206299,0.0479736,0.9816280.366211,-0.0610352,-42.0532,0.031,0.021,-50.33,-0.0393372,0.0157623,0,0,0,0,0,40.89,1228.17,2459778
-0.0844116,0.112366,0.988831-1.70898,-0.610352,-44.2505,-0.058,0.016,-49.06,-0.0394897,0.01651,0,0,0,0,0,40.89,1228.19,2459808
-0.0881348,0.0783081,1.01965-1.09863,-0.427246,-44.5557,-0.032,-0.007,-48.39,-0.0396423,0.01651,0,0,0,0,0,40.89,1228.21,2459823
-0.0639648,0.093689,1.003724.3335,-1.64795,-45.6543,-0.027,0.022,-47.04,-0.0400848,0.0166016,0,0,0,0,0,40.89,1228.24,2459853
-0.0545654,0.0331421,1.003664.63867,-2.13623,-44.4946,0.023,-0.013,-46.35,-0.0403442,0.0166626,0,0,0,0,0,40.89,1228.25,2459868
-0.0395508,0.00756836,1.026313.479,-2.99072,-43.0298,0.053,-0.02,-45.69,-0.0405426,0.0167084,0,0,0,0,0,40.89,1228.27,2459883
-0.0177612,0.105591,0.9753421.46484,-1.52588,-42.2974,-0.004,0.063,-44.41,-0.0409241,0.0167999,0,0,0,0,0,40.88,1228.29,2459913
0.0210571,0.150635,1.028873.23486,-2.50244,-42.9687,-0.001,0.122,-43.76,-0.0411377,0.016983,0,0,0,0,0,40.88,1228.31,2459928
-0.0633545,-0.0132446,1.047243.96728,-1.83105,-42.4194,0.051,-0.056,-43.12,-0.0413055,0.0172272,0,0,0,0,0,40.88,1228.33,2459943
-0.0740967,0.12793,1.003913.2959,-0.732422,-41.0156,-0.054,0.04,-42.5,-0.0414886,0.0174408,0,0,0,0,0,40.88,1228.35,2459958
-0.0055542,0.0396729,0.9963381.77002,-0.427246,-41.626,0.055,0.02,-41.23,-0.0418243,0.0181122,0,0,0,0,0,40.88,1228.37,2459988
-0.0784912,0.0540161,1.02661-0.427246,-1.2207,-42.4194,-0.006,-0.016,-40.6,-0.0419464,0.0184784,0,0,0,0,0,40.88,1228.39,2460003
-0.102295,0.108887,1.004880.366211,0.793457,-43.8232,-0.061,0.011,-39.95,-0.042099,0.0184784,0,0,0,0,0,40.88,1228.41,2460018
-0.0422363,0.126526,1.029424.27246,-1.64795,-45.8984,-0.022,0.063,-38.63,-0.0424042,0.0187378,0,0,0,0,0,40.88,1228.43,2460048
-0.135681,0.101501,1.038456.28662,-0.671387,-47.8516,-0.077,-0.014,-37.92,-0.0426178,0.0189362,0,0,0,0,0,40.88,1228.45,2460063
-0.0259399,0.071167,0.9724121.70898,-1.52588,-50.9033,0.022,0.03,-36.43,-0.0429382,0.0189667,0,0,0,0,0,40.88,1228.47,2460093
-0.108215,0.119446,1.050231.52588,-2.2583,-51.5747,-0.064,0.02,-35.66,-0.0430756,0.0190125,0,0,0,0,0,40.88,1228.49,2460108
-0.0223389,0.107666,1.028382.2583,-2.13623,-51.9409,0.011,0.061,-34.87,-0.0432587,0.0191345,0,0,0,0,0,40.88,1228.51,2460123
-0.0578613,0.0467529,0.9783331.89209,-2.44141,-51.5747,0.012,-0.008,-34.1,-0.0434265,0.0192719,0,0,0,0,0,40.88,1228.53,2460138
-0.0220337,0.0935059,1.000851.58691,-3.2959,-51.7578,0.018,0.049,-32.55,-0.0434265,0.0196381,0,0,0,0,0,40.88,1228.55,2460168
-0.0668945,0.0316772,0.9901120.976562,-3.90625,-50.9644,0.011,-0.026,-31.78,-0.0434265,0.0198669,0,0,0,0,0,40.88,1228.57,2460183
-0.0668945,0.0819092,1.026730.427246,-2.92969,-50.8423,-0.011,0.016,-31.01,-0.0434265,0.0200806,0,0,0,0,0,40.88,1228.59,2460198
-0.0709229,0.115356,1.001223.2959,-3.90625,-52.2461,-0.034,0.043,-29.45,-0.0434265,0.0208435,0,0,0,0,0,40.88,1228.61,2460228
-0.0189209,0.0276489,1.045414.5166,-3.05176,-52.3682,0.058,-0.009,-28.66,-0.0434265,0.0213013,0,0,0,0,0,40.88,1228.63,2460243
0.0614624,-0.352539,0.9422-17.0898,-7.62939,-36.0107,0.287,-0.303,-27.25,-0.0421448,0.0216522,0,0,0,0,0,40.88,1228.65,2460273
-0.103027,0.27948,0.945557-16.9067,-4.02832,-24.6582,-0.149,0.187,-26.87,-0.041153,0.0215912,0,0,0,0,0,40.88,1228.67,2460288
-0.0220947,0.0710449,1.12463-20.1416,3.78418,-24.6582,0.028,0.039,-26.5,-0.0402374,0.0216827,0,0,0,0,0,40.88,1228.69,2460303
0.0698242,0.039856,1.12476-18.9209,3.66211,-13.4888,0.122,0.058,-26.26,-0.0392303,0.0218506,0,0,0,0,0,40.88,1228.71,2460318
0.0319214,0.152649,0.988647-16.1743,6.65283,-17.5171,0.029,0.15,-25.91,-0.0372467,0.0227661,0,0,0,0,0,40.88,1228.73,2460348
-0.0827637,0.0612793,0.987183-15.1978,5.49316,-19.5923,-0.033,0.02,-25.64,-0.0363007,0.0234528,0,0,0,0,0,40.88,1228.75,2460363
-0.0951538,0.175171,0.988281-13.4888,6.40869,-23.8037,-0.092,0.122,-25.32,-0.0354309,0.0242462,0,0,0,0,0,40.88,1228.77,2460378
-0.122864,0.0576782,0.938721-13.7329,-0.305176,-38.8794,-0.069,0.011,-24.37,-0.0341034,0.0251312,0,0,0,0,0,40.89,1228.79,2460408
-0.155212,0.0794678,0.988525-14.5874,-1.77002,-45.166,-0.105,0.024,-23.74,-0.0336151,0.0251617,0,0,0,0,0,40.89,1228.81,2460423
-0.200073,0.0318604,0.991333-16.1133,-5.12695,-50.7812,-0.129,-0.031,-23.02,-0.0332947,0.025177,0,0,0,0,0,40.89,1228.83,2460438
-0.0713501,-0.0549927,0.981689-14.6484,-7.8125,-61.2183,0.014,-0.054,-21.3,-0.0328674,0.0251923,0,0,0,0,0,40.89,1228.85,2460468
-0.0639038,-0.0130005,0.996094-15.686,-10.7422,-62.9883,0.003,-0.008,-20.38,-0.0326385,0.0251465,0,0,0,0,0,40.89,1228.87,2460483
0.0126953,-0.00109863,1.0343-15.9302,-9.76562,-65.6128,0.068,0.032,-19.41,-0.0323639,0.025116,0,0,0,0,0,40.89,1228.89,2460498
0.071167,0.0317993,1.07416-15.8081,-7.32422,-62.6831,0.107,0.088,-17.5,-0.0315247,0.0252075,0,0,0,0,0,40.89,1228.92,2460528
0.0714722,-0.0709229,1.03741-16.3574,-4.5166,-61.6455,0.132,-0.008,-16.57,-0.0308838,0.0253448,0,0,0,0,0,40.89,1228.93,2460543
0.0509644,-0.291992,1.19537-13.7939,0.0610352,-59.8755,0.174,-0.218,-15.68,-0.0300446,0.0253296,0,0,0,0,0,40.89,1228.95,2460558
-0.00152588,0.0350342,0.839172-6.04248,4.82178,-42.6025,0.02,0.072,-14.15,-0.0277863,0.0252533,0,0,0,0,0,40.89,1228.97,2460588
0.228577,-0.128296,0.9055181.83105,5.67627,-44.1284,0.285,-0.029,-13.5,-0.0263977,0.0253143,0,0,0,0,0,40.89,1228.99,2460603
0.0205078,-0.0658569,0.9744267.56836,6.28662,-38.6353,0.097,-0.184,-12.32,-0.0230103,0.0252228,0,0,0,0,0,40.89,1229.01,2460633
0.0641479,-0.153748,1.009465.24902,6.53076,-40.4663,0.134,-0.092,-11.74,-0.0211029,0.0249329,0,0,0,0,0,40.89,1229.03,2460648
-0.0899048,-0.0613403,0.9418335.31006,6.65283,-42.0532,-0.037,-0.035,-11.11,-0.0191345,0.0245361,0,0,0,0,0,40.89,1229.05,2460663
-0.1875,-0.00854492,1.069895.18799,4.88281,-46.875,-0.134,0.006,-9.82,-0.0153961,0.0236816,0,0,0,0,0,40.89,1229.07,2460693
-0.0212402,-0.0321045,0.9745482.80762,2.0752,-54.5044,0.029,0.006,-9.04,-0.0136414,0.0236816,0,0,0,0,0,40.89,1229.1,2460708
-0.095459,0.0824585,0.881472.01416,-1.2207,-54.3823,-0.064,0.106,-8.22,-0.0119171,0.0237732,0,0,0,0,0,40.89,1229.11,2460723
-0.112671,0.0498047,0.9901126.28662,-3.54004,-59.082,-0.069,0.076,-6.55,-0.00863647,0.0238953,0,0,0,0,0,40.89,1229.13,2460753
-0.0161743,-0.0914307,0.9176648.05664,-4.5166,-60.1807,0.036,-0.057,-5.64,-0.00704956,0.0239563,0,0,0,0,0,40.89,1229.15,2460768
-0.00585938,-0.0844116,1.037968.66699,-5.61523,-59.082,0.049,-0.047,-4.75,-0.00540161,0.023941,0,0,0,0,0,40.89,1229.17,2460783
0.0490112,-0.0291748,1.125736.71387,-6.16455,-55.9692,0.101,0.011,-3.89,-0.00364685,0.0239105,0,0,0,0,0,40.89,1229.19,2460799
0.043457,0.0372314,0.9849240.0610352,-2.68555,-50.8423,0.082,0.069,-2.32,0.000106812,0.0237885,0,0,0,0,0,40.89,1229.21,2460828
0.015686,-0.169556,1.151180.0610352,1.52588,-46.936,0.066,-0.132,-1.59,0.00215149,0.0236969,0,0,0,0,0,40.89,1229.23,2460843
0.144531,0.0979004,1.08368-0.427246,1.70898,-43.457,0.185,0.134,-0.92,0.00434875,0.0236053,0,0,0,0,0,40.89,1229.25,2460859
-0.0250854,-0.101074,1.015443.60107,3.05176,-42.6636,0.012,-0.07,0.38,0.00907898,0.02388,0,0,0,0,0,40.89,1229.27,2460888
0.104492,-0.0597534,0.9496465.18799,-1.70898,-36.2549,0.138,-0.034,0.97,0.0115509,0.0239716,0,0,0,0,0,40.89,1229.29,2460903
-0.119873,-0.00378418,0.9382326.04248,-4.63867,-34.9121,-0.086,0.025,1.49,0.0140686,0.0240784,0,0,0,0,0,40.91,1229.31,2460919
0.0281372,0.0297852,1.178712.44141,-6.95801,-28.5645,0.067,0.058,2.43,0.0191956,0.0245056,0,0,0,0,0,40.91,1229.33,2460948
-0.203125,0.00524902,0.935059-0.976562,-5.00488,-19.4702,-0.172,0.041,2.77,0.0217438,0.0248413,0,0,0,0,0,40.91,1229.35,2460963
-0.0367432,-0.0628662,1.03424-2.50244,-2.92969,-14.6484,-0.008,-0.03,3.01,0.0241852,0.0251923,0,0,0,0,0,40.91,1229.37,2460979
-0.0200806,-0.00543213,0.913513-0.0610352,-0.793457,0.732422,0.008,0.024,3.17,0.0287933,0.0259552,0,0,0,0,0,40.91,1229.39,2461008
-0.0498657,-0.0817261,0.9453743.96728,-0.183105,1.40381,-0.025,-0.048,3.15,0.0310516,0.0263519,0,0,0,0,0,40.91,1229.41,2461023
-0.0117798,-0.106506,1.079355.18799,-0.854492,1.95312,0.015,-0.072,3.12,0.0333099,0.0266571,0,0,0,0,0,40.91,1229.43,2461039
-0.0559082,-0.0428467,0.9871835.67627,-0.854492,-2.56348,-0.028,-0.011,3.15,0.0379181,0.0269012,0,0,0,0,0,40.91,1229.45,2461068
-0.0632935,-0.0802002,1.041872.92969,-3.23486,-3.78418,-0.037,-0.047,3.2,0.0401917,0.0268707,0,0,0,0,0,40.91,1229.47,2461083
-0.0465698,-0.182068,0.973511-0.427246,-3.41797,-4.3335,-0.029,-0.151,3.27,0.0424194,0.0266876,0,0,0,0,0,40.91,1229.49,2461099
0.0158081,-0.00354004,1.10242-2.13623,-3.96728,-0.244141,0.046,0.029,3.34,0.0467682,0.0262756,0,0,0,0,0,40.91,1229.51,2461128
-0.0345459,0.172058,1.000060.488281,-2.01416,-0.610352,0.002,0.205,3.35,0.0489655,0.0262451,0,0,0,0,0,40.91,1229.53,2461143
-0.0484009,0.0241089,0.9916382.50244,-3.41797,0.488281,-0.021,0.058,3.34,0.0511627,0.026413,0,0,0,0,0,40.91,1229.55,2461159
-0.0776367,-0.0611572,0.9389045.43213,-2.92969,-1.28174,-0.058,-0.028,3.36,0.0554962,0.0270844,0,0,0,0,0,40.91,1229.57,2461189
-0.0515137,-0.210876,1.070432.80762,-3.84521,-1.34277,-0.039,-0.176,3.38,0.0575714,0.0273285,0,0,0,0,0,40.91,1229.59,2461204
0.0183105,-0.230713,1.1153-0.793457,-3.72314,-0.0610352,0.028,-0.198,3.38,0.0617981,0.0271149,0,0,0,0,0,40.91,1229.62,2461234
0.00750732,-0.203125,1.01208-1.64795,-4.57764,0.183105,0.016,-0.173,3.38,0.0639648,0.0266418,0,0,0,0,0,40.91,1229.63,2461249
0.055603,-0.286682,1.10638-1.0376,-4.27246,-0.732422,0.06,-0.256,3.38,0.0661926,0.0258789,0,0,0,0,0,40.91,1229.65,2461264
0.0280762,-0.241272,1.144471.70898,-4.45557,-1.2207,0.033,-0.209,3.42,0.070816,0.0234528,0,0,0,0,0,40.91,1229.68,2461294
0.00244141,-0.164124,1.037111.83105,-3.2959,0.488281,0.009,-0.134,3.42,0.0731812,0.0218658,0,0,0,0,0,40.91,1229.69,2461309
0.0435791,-0.201477,1.05206-1.15967,-4.21143,0.366211,0.046,-0.174,3.4,0.0780029,0.0180511,0,0,0,0,0,40.91,1229.72,2461339
0.0219727,0.1203,1.090940.793457,-2.68555,-0.732422,0.042,0.149,3.42,0.0829468,0.0137329,0,0,0,0,0,40.91,1229.75,2461369
0.0219727,0.1203,1.090940.793457,-2.68555,-0.732422,0.042,0.149,3.42,0.0829468,0.0137329,0,0,0,0,0,40.91,1229.76,2461369
0.0404053,0.105408,1.081362.62451,-1.28174,0.366211,0.058,0.13,3.45,0.0879364,0.00967407,0,0,0,0,0,40.91,1229.78,2461399
0.0404053,0.105408,1.081362.62451,-1.28174,0.366211,0.058,0.13,3.45,0.0879364,0.00967407,0,0,0,0,0,40.91,1229.79,2461399
0.00952148,-0.00701904,1.006841.77002,0.427246,-0.427246,0.018,0.015,3.45,0.0930481,0.00598145,0,0,0,0,0,40.88,1229.81,2461429
0.0223999,0.102783,0.9774780.671387,0.854492,-0.915527,0.037,0.122,3.46,0.0956573,0.0042572,0,0,0,0,0,40.88,1229.83,2461444
0.0550537,0.153198,0.9658813.35693,1.83105,-1.95312,0.073,0.169,3.48,0.0983276,0.00273132,0,0,0,0,0,40.88,1229.85,2461459
0.0386353,0.11615,0.91656517.5171,7.08008,-7.50732,0.055,0.123,3.63,0.103836,0.000274658,0,0,0,0,0,40.88,1229.87,2461489
0.211426,0.126587,1.1514921.9727,6.28662,-18.0054,0.233,0.117,3.84,0.106812,-0.000686646,0,0,0,0,0,40.88,1229.89,2461504
-0.210083,0.112915,0.99615519.3481,4.45557,-35.9497,-0.188,0.125,4.78,0.113144,-0.00299072,0,0,0,0,0,40.88,1229.91,2461534
-0.0152588,-0.0438232,0.80194116.2354,3.78418,-45.3491,-0.008,-0.05,5.41,0.11615,-0.00415039,0,0,0,0,0,40.88,1229.93,2461549
0.0644531,0.0987549,0.9510514.0991,5.00488,-56.5796,0.087,0.077,6.22,0.119202,-0.0052948,0,0,0,0,0,40.88,1229.95,2461564
-0.0198364,0.129395,0.9859014.02832,-1.09863,-58.5937,0.013,0.114,7.98,0.125168,-0.00791931,0,0,0,0,0,40.88,1229.98,2461594
-0.126587,0.243408,0.896793.05176,1.70898,-59.6313,-0.073,0.242,8.86,0.128067,-0.0090332,0,0,0,0,0,40.88,1230,2461609
0.0216064,-0.0594482,1.04199-0.976562,-0.915527,-57.0679,0.026,-0.084,9.73,0.130936,-0.0100403,0,0,0,0,0,40.88,1230.01,2461624
-0.0848389,0.0927734,1.09961-0.976562,-2.56348,-54.9927,-0.05,0.085,10.57,0.133789,-0.0110474,0,0,0,0,0,40.88,1230.03,2461639
0.0214233,0.0938721,0.995178-0.427246,-2.50244,-50.6592,0.054,0.065,12.14,0.139404,-0.0126648,0,0,0,0,0,40.88,1230.05,2461669
0.098938,0.0203247,1.14191-2.0752,-2.44141,-49.3774,0.114,-0.026,12.88,0.142334,-0.0133972,0,0,0,0,0,40.88,1230.07,2461684
-0.0475464,0.0786743,1.04407-1.40381,-1.95312,-49.0723,-0.016,0.066,13.61,0.14534,-0.0140991,0,0,0,0,0,40.88,1230.09,2461699
0.156006,-0.0563354,1.02563-3.35693,-2.13623,-50.2319,0.145,-0.115,15.12,0.151672,-0.0154572,0,0,0,0,0,40.88,1230.11,2461729
-0.0846558,0.0102539,1.13947-1.52588,1.52588,-51.8799,-0.069,0.012,15.87,0.154984,-0.0162354,0,0,0,0,0,40.88,1230.13,2461744
0.0803223,0.0968018,1.00714-3.479,2.01416,-54.0161,0.114,0.051,16.67,0.158325,-0.016983,0,0,0,0,0,40.88,1230.15,2461759
0.0487671,-0.026123,1.11206-2.31934,3.35693,-54.8096,0.048,-0.058,18.32,0.165344,-0.0184326,0,0,0,0,0,40.88,1230.17,2461789
0.0249023,0.0178833,1.05707-1.89209,0,-55.7251,0.039,-0.007,19.15,0.168961,-0.0192108,0,0,0,0,0,40.88,1230.19,2461804
-0.0811768,-0.0187378,0.956116-2.56348,3.2959,-57.6172,-0.073,-0.004,20,0.172562,-0.0200043,0,0,0,0,0,40.88,1230.21,2461819
-0.00866699,-0.0307617,1.04303-3.2959,0.915527,-58.1665,-0.007,-0.04,21.74,0.17981,-0.0200348,0,0,0,0,0,40.88,1230.23,2461849
-0.024353,0.0167236,1.06488-3.35693,0.732422,-60.2417,-0.003,0.01,22.62,0.183456,-0.0200806,0,0,0,0,0,40.88,1230.25,2461864
0.00915527,-0.0447388,0.924622-5.37109,-1.2207,-60.0586,0.002,-0.055,23.53,0.183456,-0.0201569,0,0,0,0,0,40.88,1230.27,2461879
0.0693359,0.052124,1.09283-4.76074,0.854492,-60.0586,0.099,0.007,25.34,0.183456,-0.020401,0,0,0,0,0,40.88,1230.29,2461909
0.0057373,-0.0171509,1.00232-4.02832,-1.09863,-58.6548,0.011,-0.026,26.23,0.183533,-0.0205536,0,0,0,0,0,40.88,1230.31,2461924
0.0249023,0.0078125,1.01019-3.23486,-0.183105,-58.6548,0.039,-0.011,27.1,0.183655,-0.0207214,0,0,0,0,0,40.87,1230.33,2461939
0.059082,-0.0055542,1.01562-2.86865,0.244141,-55.2368,0.063,-0.038,28.8,0.184021,-0.0212097,0,0,0,0,0,40.87,1230.35,2461969
0.0462036,0.0463257,1.00720.976562,1.95312,-52.0019,0.077,0.012,29.59,0.184326,-0.0215149,0,0,0,0,0,40.87,1230.37,2461984
0.0110474,-0.119202,0.9169922.80762,0.488281,-51.9409,-0.038,-0.112,30.37,0.184647,-0.0218811,0,0,0,0,0,40.87,1230.39,2461999
0.124084,-0.150391,1.14429-0.854492,2.01416,-49.0112,0.042,-0.198,31.89,0.185165,-0.0229187,0,0,0,0,0,40.87,1230.41,2462029
0.0349121,-0.0408325,1.01025-0.183105,2.86865,-50.9644,0.021,-0.057,32.65,0.185455,-0.0236664,0,0,0,0,0,40.87,1230.43,2462044
0.0309448,0.0166016,1.0047-0.244141,1.46484,-53.1006,0.049,-0.006,33.44,0.185806,-0.0244751,0,0,0,0,0,40.87,1230.45,2462060
0.131042,0.10553,1.09155-0.244141,1.28174,-54.3213,0.185,0.007,35.06,0.186478,-0.0262299,0,0,0,0,0,40.87,1230.47,2462089
-0.0114136,-0.171204,1.067440.671387,1.52588,-55.7251,-0.093,-0.136,35.89,0.18689,-0.0272369,0,0,0,0,0,40.87,1230.5,2462104
-0.0447388,-0.0726318,1.04954.02832,1.83105,-56.2134,-0.064,-0.036,36.74,0.18721,-0.0283356,0,0,0,0,0,40.87,1230.51,2462120
-0.0715332,-0.0817261,0.9674070.854492,1.09863,-56.6406,-0.092,-0.024,38.41,0.18779,-0.0306854,0,0,0,0,0,40.87,1230.53,2462149
0.038269,0.00714111,1.040340.976562,2.13623,-56.2744,0.048,-0.023,39.25,0.188034,-0.0319061,0,0,0,0,0,40.87,1230.55,2462164
0.0797729,-0.055542,1.022890.549316,1.09863,-54.8706,0.039,-0.099,40.09,0.188324,-0.0332184,0,0,0,0,0,40.87,1230.57,2462180
0.039856,-0.00457764,0.981445-0.244141,2.2583,-54.9316,0.04,-0.034,41.73,0.188995,-0.036087,0,0,0,0,0,40.87,1230.59,2462209
0.0222778,0.0304565,0.9820560.305176,2.86865,-56.0303,0.051,0.002,42.56,0.189407,-0.0375671,0,0,0,0,0,40.87,1230.61,2462224
0.0673828,0.0289307,1.114141.77002,3.54004,-56.7627,0.084,-0.031,43.41,0.189911,-0.0390625,0,0,0,0,0,40.87,1230.63,2462240
-0.062561,0.0241089,0.9456791.64795,1.40381,-57.6172,-0.014,0.055,45.11,0.19104,-0.042038,0,0,0,0,0,40.87,1230.65,2462269
0.0274658,-0.0150757,0.976196-0.488281,1.58691,-57.8003,0.022,-0.036,45.98,0.191605,-0.0434875,0,0,0,0,0,40.87,1230.67,2462284
-0.0430298,0.00799561,1.046750,1.83105,-57.9834,-0.008,0.029,46.85,0.192184,-0.0449524,0,0,0,0,0,40.87,1230.69,2462300
0.0151978,-0.0474854,0.9106450,-1.58691,-58.3496,-0.012,-0.049,48.6,0.193436,-0.0479431,0,0,0,0,0,40.87,1230.71,2462329
-0.0518188,0.00390625,0.998169-0.488281,1.58691,-57.7393,-0.016,0.035,49.46,0.194061,-0.0494843,0,0,0,0,0,40.87,1230.73,2462344
0.0841064,0.0141602,1.0625-1.95312,1.15967,-56.5796,0.08,-0.062,50.32,0.194717,-0.0510559,0,0,0,0,0,40.87,1230.75,2462360
-0.000244141,-0.053894,1.039611.34277,1.77002,-56.5796,-0.028,-0.039,52.02,0.196274,-0.0540619,0,0,0,0,0,40.87,1230.77,2462389
0.0215454,-0.0466919,0.929382-0.549316,-0.183105,-56.1523,-0.011,-0.051,52.86,0.197052,-0.055603,0,0,0,0,0,40.87,1230.79,2462404
-0.12384,-0.0803833,1.01272.99072,3.11279,-56.3965,-0.123,0.046,53.71,0.197723,-0.0571442,0,0,0,0,0,40.87,1230.81,2462420
0.026123,-0.102112,0.920411.34277,-0.244141,-55.3589,-0.057,-0.085,55.34,0.199265,-0.0601807,0,0,0,0,0,40.87,1230.83,2462449
0.0131226,-0.0310669,1.123472.62451,0.976562,-55.1147,-0.004,-0.035,56.16,0.200027,-0.0617981,0,0,0,0,0,40.87,1230.85,2462464
-0.00140381,-0.0693359,0.999695-0.183105,0.549316,-54.5654,-0.046,-0.044,56.98,0.200775,-0.0634766,0,0,0,0,0,40.87,1230.87,2462480
-0.115295,-0.117981,1.027221.95312,2.13623,-56.7017,-0.147,0.03,58.68,0.202118,-0.0668945,0,0,0,0,0,40.87,1230.89,2462510
-0.00445557,-0.232361,1.190552.0752,1.95312,-56.2744,-0.187,-0.122,59.51,0.202499,-0.0686646,0,0,0,0,0,40.87,1230.91,2462524
0.0979004,-0.100403,1.133910,2.19727,-55.8472,-0.024,-0.142,60.37,0.202759,-0.0706177,0,0,0,0,0,40.87,1230.93,2462540
0.00708008,0.120117,0.9951172.38037,1.09863,-54.4434,0.121,0.043,62.03,0.203033,-0.0748138,0,0,0,0,0,40.87,1230.95,2462570
0.0598145,0.0640869,1.015563.90625,-0.0610352,-54.6265,0.096,-0.03,62.85,0.203308,-0.0769043,0,0,0,0,0,40.87,1230.97,2462585
-0.0670776,-0.13623,1.036072.01416,1.15967,-54.6875,-0.14,-0.006,63.67,0.203552,-0.0790253,0,0,0,0,0,40.87,1230.99,2462600
0.0667114,-0.0200806,1.00366-0.244141,0.671387,-54.5044,0.02,-0.075,65.29,0.20401,-0.0834351,0,0,0,0,0,40.87,1231.01,2462630
0.000610352,0.0165405,1.064821.64795,2.56348,-55.1758,0.026,0,66.12,0.2043,-0.0857544,0,0,0,0,0,40.87,1231.03,2462645
0.0684814,-0.00213623,1.068971.83105,1.40381,-54.6875,0.035,-0.07,66.93,0.20462,-0.0881042,0,0,0,0,0,40.87,1231.05,2462660
0.0454102,0.00488281,1.077150.671387,2.50244,-56.1523,0.03,-0.048,68.6,0.205261,-0.0929413,0,0,0,0,0,40.87,1231.07,2462690
0.0217285,-0.00305176,1.026370.793457,0.12207,-55.9082,0.014,-0.029,69.44,0.205597,-0.0954285,0,0,0,0,0,40.87,1231.09,2462705
-0.0582886,-0.0759277,1.010930.305176,1.52588,-57.312,-0.082,0.021,70.29,0.205887,-0.0979309,0,0,0,0,0,40.87,1231.11,2462720
-0.0246582,-0.0339355,0.993896-1.2207,0.305176,-57.373,-0.03,0.005,72.01,0.206451,-0.103012,0,0,0,0,0,40.87,1231.13,2462750
0.0219727,0.00646973,1.07495-1.2207,1.34277,-57.1289,0.022,-0.026,72.86,0.206726,-0.105591,0,0,0,0,0,40.87,1231.15,2462765
0.0557251,0.00445557,0.963623-0.854492,-0.671387,-56.8848,0.029,-0.059,73.72,0.207047,-0.108231,0,0,0,0,0,40.87,1231.17,2462780
0.110535,0.0106201,1.05933-0.793457,2.19727,-55.3589,0.048,-0.111,75.41,0.207642,-0.113693,0,0,0,0,0,40.87,1231.19,2462810
-0.00878906,-0.0233765,1.040830.488281,2.01416,-55.3589,-0.014,-0.004,76.24,0.207962,-0.116531,0,0,0,0,0,40.87,1231.21,2462825
0.0546265,0.00720215,1.062381.58691,2.0752,-54.8706,0.028,-0.059,77.06,0.208282,-0.119415,0,0,0,0,0,40.87,1231.23,2462840
-0.0772705,-0.0321045,1.02820.854492,3.96728,-54.4434,-0.037,0.061,78.7,0.208954,-0.125305,0,0,0,0,0,40.87,1231.25,2462870
0.139465,0.0328979,1.049930.183105,1.46484,-55.1147,0.066,-0.139,79.52,0.209305,-0.128311,0,0,0,0,0,40.87,1231.27,2462885
-0.0430298,-0.0526123,1.012880.0610352,1.40381,-56.0303,-0.05,0.025,80.36,0.209656,-0.131378,0,0,0,0,0,40.87,1231.29,2462901
0.0806885,-0.0618896,0.964783-1.64795,1.0376,-56.4575,-0.041,-0.096,82.04,0.210205,-0.137436,0,0,0,0,0,40.87,1231.31,2462930
-0.214172,-0.0817871,1.086552.86865,4.15039,-56.7017,-0.096,0.193,82.9,0.210358,-0.140427,0,0,0,0,0,40.87,1231.33,2462945
0.126038,0.088623,1.10138-0.366211,0.610352,-54.2603,0.112,-0.125,83.71,0.210526,-0.143356,0,0,0,0,0,40.85,1231.35,2462960
-0.128357,-0.00250244,0.9808962.56348,2.68555,-55.9082,-0.003,0.119,85.39,0.210831,-0.149307,0,0,0,0,0,40.85,1231.37,2462990
0.0971069,-0.00427246,1.084411.2207,0.854492,-53.894,0.012,-0.107,86.2,0.210831,-0.152222,0,0,0,0,0,40.85,1231.39,2463005
0.0325928,-0.145508,1.028020.793457,1.46484,-55.9692,-0.134,-0.048,87.03,0.210739,-0.155243,0,0,0,0,0,40.85,1231.41,2463020
-0.0202026,-0.0493774,0.934143-0.183105,0.427246,-55.0537,-0.041,0.011,88.68,0.210464,-0.161453,0,0,0,0,0,40.85,1231.43,2463050
0.0182495,-0.0078125,1.03394-0.0610352,2.68555,-57.0068,0.001,-0.027,89.53,0.210297,-0.164581,0,0,0,0,0,40.85,1231.45,2463065
-0.0593872,-0.0738525,0.951904-0.244141,1.34277,-56.5796,-0.064,0.053,91.22,0.2099,-0.171005,0,0,0,0,0,40.85,1231.48,2463095
0.0324097,0.0612793,1.006650.793457,1.83105,-57.4951,0.068,-0.043,92.07,0.209671,-0.174225,0,0,0,0,0,40.85,1231.49,2463110
-0.0889893,-0.220825,1.096560.610352,2.19727,-56.9458,-0.206,0.09,92.93,0.209366,-0.177414,0,0,0,0,0,40.85,1231.51,2463125
-0.0106812,-0.170166,1.056821.77002,2.99072,-55.9082,-0.16,0.012,93.77,0.208801,-0.180527,0,0,0,0,0,40.85,1231.53,2463140
-0.133545,-0.16626,1.002261.46484,1.46484,-55.542,-0.144,0.14,95.42,0.207596,-0.186798,0,0,0,0,0,40.85,1231.55,2463170
0.0546875,0.00775146,1.119690.732422,3.479,-53.6499,0.011,-0.065,96.23,0.206879,-0.189865,0,0,0,0,0,40.85,1231.57,2463185
0.111328,-0.0263062,1.01068-0.427246,1.09863,-52.4292,-0.031,-0.116,97.02,0.206161,-0.193054,0,0,0,0,0,40.85,1231.59,2463200
0.024292,-0.0177002,1.05664-0.183105,2.50244,-53.4668,-0.011,-0.03,98.62,0.204727,-0.199646,0,0,0,0,0,40.85,1231.61,2463230
-0.00195312,0.0204468,0.959229-0.549316,1.95312,-54.3213,0.028,-0.01,99.44,0.204025,-0.203003,0,0,0,0,0,40.85,1231.63,2463245
0.0840454,0.144653,0.999390.610352,1.95312,-54.4434,0.136,-0.117,100.26,0.20343,-0.206436,0,0,0,0,0,40.85,1231.65,2463260
-0.115234,0.03479,0.9705810.12207,2.0752,-56.4575,0.066,0.096,101.91,0.202423,-0.213501,0,0,0,0,0,40.85,1231.67,2463290
0.0789795,0.0241089,1.02222-0.427246,2.0752,-56.9458,0.014,-0.092,102.76,0.201981,-0.21701,0,0,0,0,0,40.85,1231.69,2463305
0.0045166,-0.0201416,0.935913-0.305176,0.488281,-57.1899,-0.012,-0.009,103.63,0.201981,-0.220596,0,0,0,0,0,40.85,1231.71,2463320
0.0505371,-0.13916,1.03735-1.2207,0.305176,-55.8472,-0.138,-0.022,105.3,0.202255,-0.220612,0,0,0,0,0,40.85,1231.73,2463350
-0.0134888,0.0186768,0.981323-0.549316,2.99072,-56.8237,0.03,-0.002,106.14,0.202332,-0.220627,0,0,0,0,0,40.85,1231.75,2463365
0.0753784,-0.0774536,1.12933-0.854492,2.62451,-55.542,-0.085,-0.061,106.98,0.202377,-0.220703,0,0,0,0,0,40.85,1231.77,2463380
-0.0119629,-0.00561523,0.917725-0.732422,0.366211,-54.2603,0.007,0.003,108.58,0.202255,-0.221207,0,0,0,0,0,40.85,1231.79,2463410
0.0437622,0.0474243,0.973572-1.34277,1.77002,-54.7485,0.039,-0.068,109.41,0.202225,-0.221558,0,0,0,0,0,40.85,1231.81,2463425
0.00183105,0.266418,0.8777470.366211,0.610352,-53.3447,0.258,-0.104,110.22,0.202393,-0.222015,0,0,0,0,0,40.85,1231.83,2463441
0.129028,-0.173706,1.05603-7.26318,0.549316,-37.5977,-0.194,-0.071,111.55,0.20256,-0.222946,0,0,0,0,0,40.87,1231.85,2463470
-0.0803833,-0.509277,1.38031-13.0615,10.8032,-27.0386,-0.418,0.241,112.03,0.202103,-0.223282,0,0,0,0,0,40.87,1231.87,2463485
0.0460815,0.0112305,1.03027-15.0146,14.0991,-15.625,0.015,-0.071,112.3,0.20137,-0.223511,0,0,0,0,0,40.87,1231.89,2463501
0.236877,0.180603,0.82666-3.66211,16.6626,-18.4937,0.093,-0.311,112.81,0.199966,-0.22464,0,0,0,0,0,40.87,1231.91,2463530
0.0414429,0.130249,0.9222413.60107,17.334,-26.4282,0.121,-0.116,113.17,0.199448,-0.225662,0,0,0,0,0,40.87,1231.93,2463545
0.0184937,-0.0261841,1.190198.05664,14.4043,-40.4663,-0.018,-0.046,114.21,0.198669,-0.227814,0,0,0,0,0,40.87,1231.96,2463575
-0.0256348,0.0424805,1.123417.38525,17.1509,-47.8516,0.057,-0.036,114.89,0.198334,-0.228958,0,0,0,0,0,40.87,1231.97,2463590
-0.144897,-0.0917969,0.9588624.27246,17.2729,-52.4292,-0.016,0.13,115.66,0.198013,-0.230042,0,0,0,0,0,40.87,1231.99,2463605
0.0640259,0.00335693,0.8205570.732422,13.6719,-57.251,-0.024,-0.095,116.49,0.197678,-0.231094,0,0,0,0,0,40.87,1232.01,2463621
-0.139404,0.0254517,0.973572-4.45557,7.87353,-65.6128,0.089,0.06,118.4,0.197067,-0.233032,0,0,0,0,0,40.87,1232.03,2463650
-0.135437,-0.0189819,1.0152-5.5542,3.479,-67.9321,0.049,0.072,119.4,0.196899,-0.233856,0,0,0,0,0,40.87,1232.05,2463665
-0.207031,-0.00421143,1.01501-5.85937,2.19727,-68.6646,0.101,0.123,120.43,0.196838,-0.234543,0,0,0,0,0,40.87,1232.07,2463681
-0.0890503,-0.0180054,0.926941-3.90625,-5.5542,-66.7725,0.033,0.031,122.44,0.197006,-0.23584,0,0,0,0,0,40.87,1232.09,2463710
-0.0757446,-0.012085,1.00006-3.54004,-6.34766,-66.5894,0.034,0.013,123.44,0.197159,-0.23645,0,0,0,0,0,40.87,1232.11,2463725
0.00640869,-0.0209351,1.03497-4.39453,-8.66699,-65.1245,-0.016,-0.05,124.42,0.197342,-0.237091,0,0,0,0,0,40.87,1232.13,2463741
0.0769653,-0.0650024,1.10645-5.37109,-5.67627,-60.6079,-0.088,-0.082,126.3,0.197693,-0.238449,0,0,0,0,0,40.87,1232.15,2463770
0.0184326,-0.115479,1.06006-2.56348,-3.54004,-56.0913,-0.09,0,127.17,0.197723,-0.239212,0,0,0,0,0,40.87,1232.17,2463785
0.0699463,-0.156006,1.06384-5.24902,-2.13623,-52.9175,-0.151,-0.014,127.99,0.197601,-0.239975,0,0,0,0,0,40.87,1232.19,2463801
0.0941772,-0.0247803,1.012450.732422,2.86865,-41.748,-0.06,-0.109,129.41,0.19696,-0.241776,0,0,0,0,0,40.87,1232.21,2463830
0.0834351,-0.0696411,1.017763.96728,4.76074,-40.5273,-0.089,-0.071,130.02,0.196487,-0.242874,0,0,0,0,0,40.87,1232.23,2463845
0.041748,-0.0101929,0.9986574.3335,4.57764,-39.2456,-0.018,-0.075,130.61,0.195938,-0.244064,0,0,0,0,0,40.87,1232.25,2463861
0.0150757,-0.0524902,1.102425.12695,4.69971,-40.8936,-0.032,-0.032,131.8,0.194199,-0.246384,0,0,0,0,0,40.87,1232.27,2463891
-0.0462646,-0.115112,0.9520265.18799,4.57764,-43.2129,-0.041,0.063,132.43,0.193176,-0.247498,0,0,0,0,0,40.87,1232.29,2463905
0.00463867,0.00500488,0.9116214.27246,2.50244,-48.1567,0.01,-0.052,133.12,0.192123,-0.248596,0,0,0,0,0,40.87,1232.31,2463921
-0.169861,-0.0504761,1.020263.72314,2.56348,-54.2603,0.092,0.104,134.68,0.189896,-0.250565,0,0,0,0,0,40.87,1232.34,2463951
-0.0736084,0.052063,1.026925.92041,0.366211,-56.0303,0.096,-0.037,135.5,0.188919,-0.251434,0,0,0,0,0,40.87,1232.35,2463966
-0.0852661,-0.328735,1.090275.12695,0.610352,-58.8989,-0.158,0.242,136.38,0.187897,-0.252151,0,0,0,0,0,40.88,1232.37,2463981
-0.136536,-0.0910034,0.9807138.48389,-5.00488,-58.4717,0.046,0.113,138.14,0.185684,-0.253189,0,0,0,0,0,40.88,1232.39,2464011
-0.124207,-0.0804443,0.87420710.6201,-10.2539,-61.7065,0.045,0.105,139.05,0.184647,-0.253525,0,0,0,0,0,40.88,1232.41,2464026
-0.0957642,-0.0905151,0.97747816.9678,-17.4561,-60.9741,0.02,0.094,139.98,0.18367,-0.253723,0,0,0,0,0,40.88,1232.43,2464041
-0.0397339,-0.0791626,1.0239317.9443,-21.5454,-57.6782,-0.01,0.059,141.77,0.181686,-0.253403,0,0,0,0,0,40.88,1232.45,2464071
-0.0911865,-0.0872803,1.1769415.3809,-12.5122,-55.1758,0.028,0.099,142.61,0.180695,-0.253021,0,0,0,0,0,40.88,1232.47,2464086
0.081543,0.000854492,1.1915318.1274,-15.5029,-55.603,-0.055,-0.069,143.43,0.179688,-0.252625,0,0,0,0,0,40.88,1232.49,2464101
0.111694,-0.0386353,0.91680910.498,-7.75146,-47.6685,-0.101,-0.037,144.92,0.17691,-0.252014,0,0,0,0,0,40.88,1232.51,2464131
0.195251,0.0774536,0.9536749.94873,-2.92969,-48.0347,-0.103,-0.176,145.63,0.175247,-0.251877,0,0,0,0,0,40.88,1232.54,2464146
0.273926,-0.0098877,1.087048.72803,0.0610352,-46.7529,-0.218,-0.142,146.33,0.173355,-0.251953,0,0,0,0,0,40.88,1232.55,2464161
0.262451,0.156799,0.9865117.38525,3.96728,-45.105,-0.125,-0.265,147.68,0.169098,-0.252655,0,0,0,0,0,40.88,1232.57,2464191
0.0272827,0.100647,0.9306033.35693,8.42285,-44.9219,0.04,-0.09,148.36,0.166855,-0.253357,0,0,0,0,0,40.88,1232.59,2464206
0.150757,0.0577393,0.955994-1.40381,8.8501,-47.6074,-0.09,-0.117,149.05,0.164566,-0.254211,0,0,0,0,0,40.88,1232.61,2464221
0.0889893,-0.0560913,0.941528-13.4277,9.46045,-42.2974,-0.098,0.009,150.4,0.160019,-0.256073,0,0,0,0,0,40.88,1232.63,2464251
0.0276489,0.222595,1.07654-13.7329,7.9956,-42.2974,0.09,-0.206,151.03,0.157745,-0.257141,0,0,0,0,0,40.88,1232.65,2464266
-0.174072,0.0585327,0.983398-11.3525,7.50732,-46.4478,0.185,0.029,151.72,0.155655,-0.258331,0,0,0,0,0,40.88,1232.67,2464281
0.0270386,-0.0881348,1.06873-8.05664,1.70898,-49.0723,-0.061,0.059,153.21,0.152069,-0.26062,0,0,0,0,0,40.88,1232.69,2464311
-0.133789,-0.0020752,0.90094-5.49316,-1.46484,-47.4243,0.121,0.053,153.93,0.15036,-0.261673,0,0,0,0,0,40.88,1232.71,2464326
-0.133118,0.0325928,0.996216-4.82178,-3.35693,-47.9736,0.136,0.018,154.64,0.148834,-0.26268,0,0,0,0,0,40.88,1232.73,2464341
-0.115845,0.0629883,0.910217-5.49316,-7.08008,-43.0908,0.136,-0.021,156.01,0.145752,-0.264572,0,0,0,0,0,40.88,1232.75,2464371
0.098877,-0.0119019,0.961853-6.71387,-7.9956,-39.917,-0.088,-0.041,156.62,0.144241,-0.265549,0,0,0,0,0,40.88,1232.77,2464386
0.0150146,-0.207092,1.03448-1.95312,-2.38037,-35.5835,-0.083,0.17,157.18,0.142624,-0.266449,0,0,0,0,0,40.88,1232.79,2464401
0.076355,-0.223877,0.9409790.183105,-2.01416,-24.8413,-0.141,0.165,158.08,0.138992,-0.268036,0,0,0,0,0,40.88,1232.81,2464431
0.299988,-0.0905762,1.016852.62451,0.366211,-20.0195,-0.297,-0.041,158.4,0.13681,-0.268707,0,0,0,0,0,40.88,1232.83,2464446
-0.0621948,-0.165955,1.016723.96728,3.72314,-16.4795,0.013,0.161,158.67,0.13443,-0.269302,0,0,0,0,0,40.88,1232.85,2464461
-0.0228271,-0.0819702,0.9767465.49316,7.20215,-12.7563,0.007,0.069,159.08,0.129318,-0.269989,0,0,0,0,0,40.86,1232.87,2464491
0.0584106,0.146606,1.005195.5542,6.28662,-14.7705,0.011,-0.172,159.31,0.126724,-0.27034,0,0,0,0,0,40.86,1232.89,2464506
0.0385132,-0.0801392,1.022953.05176,5.00488,-14.1602,-0.051,0.047,159.52,0.124084,-0.270767,0,0,0,0,0,40.86,1232.91,2464521
-0.067688,0.0994873,1.008484.45557,5.5542,-20.6299,0.106,-0.083,160.05,0.118835,-0.27153,0,0,0,0,0,40.86,1232.93,2464551
-0.0899658,-0.0353394,1.022523.84521,2.92969,-22.644,0.079,0.051,160.38,0.116364,-0.271957,0,0,0,0,0,40.86,1232.95,2464566
0.0285645,-0.0447388,1.039433.17383,3.23486,-26.2451,-0.036,0.02,160.76,0.113937,-0.272324,0,0,0,0,0,40.86,1232.97,2464581
0.0222168,-0.00158691,1.019712.50244,-2.19727,-29.7852,-0.018,-0.016,161.61,0.109314,-0.27269,0,0,0,0,0,40.86,1233,2464611
-0.0669556,0.00341797,0.9555662.50244,-0.976562,-31.3721,0.067,0.008,162.08,0.107086,-0.27269,0,0,0,0,0,40.86,1233.01,2464626
-0.0136719,0.0167847,1.017522.62451,-2.50244,-30.2124,0.02,-0.021,162.54,0.104919,-0.27269,0,0,0,0,0,40.86,1233.03,2464641
0.0404053,0.0195923,1.035164.76074,-2.01416,-29.2969,-0.028,-0.036,163.42,0.100586,-0.272781,0,0,0,0,0,40.86,1233.05,2464671
-0.019165,-0.0569458,0.9688114.02832,-1.89209,-28.4424,0.006,0.055,163.86,0.0983734,-0.272842,0,0,0,0,0,40.86,1233.07,2464686
0.00500488,-0.0180054,0.9946294.08936,0.244141,-25.0244,-0.004,0.013,164.62,0.0937653,-0.272903,0,0,0,0,0,40.86,1233.1,2464716
0.0808105,0.0231323,1.028384.5166,0.610352,-23.8647,-0.066,-0.044,164.99,0.0913849,-0.272964,0,0,0,0,0,40.86,1233.11,2464731
0.0936279,-0.0285645,0.9919433.72314,0.0610352,-22.7661,-0.092,0.003,165.33,0.0888824,-0.273056,0,0,0,0,0,40.86,1233.13,2464746
0.0597534,-0.00115967,0.972290.610352,1.28174,-21.7895,-0.053,-0.012,166.02,0.083725,-0.273132,0,0,0,0,0,40.86,1233.16,2464776
0.0333862,0.0196533,1.04993-1.15967,2.13623,-21.1182,-0.022,-0.026,166.33,0.0810852,-0.273163,0,0,0,0,0,40.86,1233.18,2464791
-0.0958252,0.0776367,0.951111-0.915527,1.77002,-23.0713,0.114,-0.053,166.66,0.0785065,-0.273254,0,0,0,0,0,40.86,1233.19,2464806
0.0610962,-0.0332031,0.993408-1.46484,-0.427246,-23.8647,-0.064,0.018,167.02,0.0759583,-0.273346,0,0,0,0,0,40.86,1233.21,2464822
-0.0982056,0.00390625,0.9979860,-1.0376,-27.2827,0.099,0.017,167.78,0.0708923,-0.273575,0,0,0,0,0,40.86,1233.23,2464851
0.00817871,-0.00994873,1.000850.427246,-2.50244,-26.3672,-0.008,0.008,168.18,0.0684662,-0.273682,0,0,0,0,0,40.86,1233.25,2464866
0.0286255,0.024353,1.002083.17383,-1.70898,-23.3765,-0.02,-0.028,168.54,0.0660248,-0.273788,0,0,0,0,0,40.86,1233.27,2464882
0.0283813,-0.0308838,0.9851071.89209,-2.44141,-18.9209,-0.03,0.027,169.16,0.0611115,-0.273804,0,0,0,0,0,40.86,1233.29,2464911
0.0557861,-0.0171509,1.00525-1.2207,-0.305176,-14.8315,-0.054,0.008,169.4,0.0585938,-0.273743,0,0,0,0,0,40.86,1233.31,2464926
0.0146484,0.0299072,1.08533-0.793457,-0.915527,-12.5122,-0.004,-0.03,169.6,0.0560455,-0.273697,0,0,0,0,0,40.86,1233.33,2464942
0.0402222,0.0286865,0.993774-0.793457,0.305176,-8.66699,-0.029,-0.034,169.89,0.056015,-0.27359,0,0,0,0,0,40.86,1233.35,2464971
0.0646973,-0.0780029,0.986206-1.77002,-0.305176,-5.98144,-0.071,0.066,169.99,0.0559387,-0.273514,0,0,0,0,0,40.86,1233.37,2464986
-0.0548096,0.0597534,1.0506-1.58691,1.2207,-5.5542,0.07,-0.049,170.07,0.0558472,-0.273422,0,0,0,0,0,40.85,1233.4,2465002
0.019043,0.00219727,0.9910280.671387,0.610352,-0.366211,-0.013,-0.005,170.14,0.0558014,-0.273285,0,0,0,0,0,40.85,1233.41,2465031
-0.0496216,-0.103882,1.052-0.305176,-0.366211,3.60107,0.035,0.11,170.1,0.0558167,-0.273148,0,0,0,0,0,40.85,1233.43,2465046
0.0205688,0.022644,0.999939-2.38037,-1.2207,4.45557,-0.011,-0.027,170.03,0.0558319,-0.272934,0,0,0,0,0,40.85,1233.45,2465062
0.0214233,0.0112305,0.980591-1.89209,-2.01416,9.76562,-0.014,-0.017,169.82,0.0558472,-0.272522,0,0,0,0,0,40.85,1233.47,2465091
0.000549316,0.0354004,1.00848-0.793457,-0.671387,9.46045,0.011,-0.038,169.67,0.0558472,-0.272339,0,0,0,0,0,40.85,1233.49,2465106
-0.0265503,-0.0592041,0.971375-1.70898,-0.976562,10.5591,0.02,0.059,169.52,0.0558624,-0.272156,0,0,0,0,0,40.85,1233.51,2465122
-0.0157471,0.0139771,1.06158-0.732422,0.976562,11.4746,0.024,-0.015,169.16,0.0558624,-0.271774,0,0,0,0,0,40.85,1233.53,2465151
-0.0303345,-0.0525513,1.03448-0.427246,-0.244141,10.6201,0.025,0.053,169,0.0558929,-0.271576,0,0,0,0,0,40.85,1233.55,2465166
0.0710449,-0.02948,1.06769-0.610352,-0.427246,10.376,-0.069,0.01,168.84,0.0558929,-0.271332,0,0,0,0,0,40.85,1233.57,2465182
0.0274658,0.00909424,0.974731-1.28174,-0.976562,9.94873,-0.019,-0.019,168.53,0.055954,-0.270706,0,0,0,0,0,40.85,1233.59,2465211
-0.050415,-0.0300903,1.06329-0.976562,1.95312,9.46045,0.049,0.034,168.39,0.056015,-0.270355,0,0,0,0,0,40.85,1233.61,2465226
0.0500488,-0.0132446,1.04022-1.83105,-1.64795,9.94873,-0.046,-0.003,168.25,0.0560913,-0.269989,0,0,0,0,0,40.85,1233.63,2465242
-0.012207,0.00933838,0.972778-0.793457,-0.671387,9.15527,0.018,-0.012,167.97,0.0563354,-0.269623,0,0,0,0,0,40.85,1233.65,2465271
0.0137329,0.00756836,0.993652-0.0610352,-0.427246,9.33838,-0.006,-0.016,167.84,0.0565033,-0.269623,0,0,0,0,0,40.85,1233.67,2465286
-0.0406494,-0.046936,1.062320.183105,0.732422,9.27734,0.035,0.048,167.69,0.0566864,-0.269608,0,0,0,0,0,40.85,1233.69,2465302
-0.0170288,-0.0304565,1.00781-0.427246,1.0376,10.0098,0.015,0.026,167.4,0.0570374,-0.269547,0,0,0,0,0,40.85,1233.71,2465331
0.0164185,-0.00360107,0.99823-1.95312,-0.12207,9.46045,-0.011,-0.007,167.26,0.0570374,-0.269516,0,0,0,0,0,40.85,1233.73,2465347
0.0512085,0.0446167,1.04108-1.15967,-0.183105,9.94873,-0.034,-0.062,167.1,0.0570068,-0.269531,0,0,0,0,0,40.85,1233.75,2465362
-0.0442505,-0.02771,0.966309-1.58691,1.09863,10.376,0.041,0.029,166.95,0.0569763,-0.269562,0,0,0,0,0,40.85,1233.77,2465377
-0.00213623,-0.00946045,1.01904-1.2207,2.31934,9.33838,0.005,0.001,166.65,0.056839,-0.26973,0,0,0,0,0,40.85,1233.79,2465407
-0.00524902,0.0523682,1.03094-0.915527,0.793457,9.94873,0.021,-0.058,166.5,0.0567627,-0.269882,0,0,0,0,0,40.85,1233.81,2465422
-0.104248,-0.0512085,1.00037-1.0376,1.2207,8.11768,0.092,0.065,166.25,0.0566559,-0.270233,0,0,0,0,0,40.85,1233.83,2465452
0.0322266,-0.0257568,0.982117-2.99072,-1.77002,7.75146,-0.033,0.007,166.13,0.0566711,-0.27034,0,0,0,0,0,40.85,1233.85,2465467
-0.0679321,-0.0290527,1.02466-3.84521,1.70898,7.26318,0.063,0.033,166.02,0.0567017,-0.270416,0,0,0,0,0,40.85,1233.87,2465482
0.0090332,-0.0144653,1.09766-2.0752,1.15967,5.92041,-0.006,-0.002,165.81,0.0567017,-0.270218,0,0,0,0,0,40.85,1233.89,2465512
-0.0184937,0.0460205,0.89978-1.95312,-2.01416,4.02832,0.033,-0.052,165.75,0.0566864,-0.270111,0,0,0,0,0,40.85,1233.91,2465527
0.0584106,-0.106384,1.01239-0.244141,-2.0752,3.2959,-0.077,0.073,165.69,0.0566559,-0.269989,0,0,0,0,0,40.85,1233.93,2465542
0.0166626,-0.0540771,0.991882-0.488281,-1.28174,2.38037,-0.024,0.032,165.58,0.056488,-0.269501,0,0,0,0,0,40.85,1233.95,2465572
0.0473022,-0.122131,1.044072.19727,1.52588,1.40381,-0.07,0.09,165.56,0.0563507,-0.269135,0,0,0,0,0,40.85,1233.97,2465587
-0.0728149,-0.273071,1.126833.72314,2.92969,2.50244,0.008,0.266,165.53,0.0561676,-0.268539,0,0,0,0,0,40.85,1233.99,2465602
-0.0543823,-0.200134,1.130740.732422,1.70898,3.66211,0.008,0.189,165.45,0.0557098,-0.266769,0,0,0,0,0,40.85,1234.01,2465632
0.00567627,-0.116333,1.02246-1.95312,0.183105,4.94385,-0.029,0.093,165.38,0.0554657,-0.265625,0,0,0,0,0,40.85,1234.03,2465647
-0.0055542,0.0467529,0.965149-2.44141,0.0610352,4.21143,0.023,-0.061,165.31,0.0552063,-0.26445,0,0,0,0,0,40.85,1234.05,2465662
-0.0311279,0.0728149,0.9915770.854492,-1.0376,4.39453,0.054,-0.08,165.25,0.0549927,-0.263367,0,0,0,0,0,40.85,1234.07,2465677
-0.0374146,-0.0627441,0.9612433.2959,0.732422,4.76074,0.025,0.052,165.11,0.0546875,-0.261139,0,0,0,0,0,40.85,1234.09,2465707
-0.00323486,0.0446167,1.066043.84521,-0.976562,5.98144,0.02,-0.06,165.02,0.0545654,-0.259979,0,0,0,0,0,40.85,1234.11,2465722
0.017334,-0.105225,0.9521481.2207,-0.610352,7.56836,-0.039,0.081,164.82,0.0543518,-0.257675,0,0,0,0,0,40.85,1234.13,2465752
0.074646,-0.0795288,0.963745-2.38037,-1.70898,10.0098,-0.087,0.04,164.68,0.0541382,-0.256424,0,0,0,0,0,40.85,1234.15,2465767
0.00616455,-0.112,1.13324-3.84521,-1.0376,9.46045,-0.028,0.086,164.53,0.0538635,-0.255066,0,0,0,0,0,40.85,1234.18,2465782
0.0213013,-0.158875,1.046331.28174,-0.610352,7.14111,-0.056,0.127,164.3,0.0532684,-0.252167,0,0,0,0,0,40.85,1234.19,2465812
0.0336914,0.0256958,0.934571.70898,0.12207,3.23486,-0.018,-0.05,164.24,0.0529022,-0.250626,0,0,0,0,0,40.85,1234.21,2465827
-0.050354,-0.0736084,0.9002081.09863,-1.34277,2.50244,0.034,0.068,164.2,0.0525513,-0.249069,0,0,0,0,0,40.85,1234.23,2465842
-0.10791,-0.343689,1.11694-0.793457,1.15967,1.95312,0.017,0.34,164.12,0.0517731,-0.246216,0,0,0,0,0,40.85,1234.25,2465872
-0.0257568,-0.062439,0.963257-0.732422,0.610352,5.49316,0.014,0.048,164.06,0.0517731,-0.244507,0,0,0,0,0,40.85,1234.28,2465887
0.0747681,-0.0567627,1.05481-0.671387,-1.28174,5.61523,-0.079,0.012,163.97,0.0517273,-0.242752,0,0,0,0,0,40.85,1234.29,2465902
-0.0439453,-0.138916,0.956543-0.427246,-0.793457,6.65283,0.01,0.126,163.79,0.0515747,-0.239044,0,0,0,0,0,40.85,1234.31,2465932
0.0841064,0.0199585,1.013791.58691,-0.732422,6.65283,-0.067,-0.063,163.69,0.0514832,-0.237076,0,0,0,0,0,40.85,1234.33,2465947
-0.027832,-0.015686,1.002752.01416,-0.549316,6.53076,0.029,0.002,163.59,0.0513458,-0.235153,0,0,0,0,0,40.85,1234.35,2465962
0.0408325,-0.00738525,0.9908452.56348,-0.915527,8.54492,-0.033,-0.023,163.35,0.0511322,-0.231308,0,0,0,0,0,40.85,1234.37,2465992
-0.0453491,-0.0420532,1.034181.09863,-0.488281,9.15527,0.039,0.034,163.22,0.0510254,-0.22937,0,0,0,0,0,40.85,1234.39,2466007
0.0200806,-0.00726318,1.015870.427246,-1.40381,10.0098,-0.013,-0.017,163.07,0.0509186,-0.227432,0,0,0,0,0,40.85,1234.41,2466022
0.0022583,-0.012085,1.03156-0.244141,-1.15967,10.0098,0.002,-0.007,162.75,0.0509186,-0.227432,0,0,0,0,0,40.85,1234.43,2466052
-0.0106201,-0.0641479,1.02765-1.77002,-0.183105,9.82666,0,0.045,162.61,0.0509186,-0.227402,0,0,0,0,0,40.85,1234.45,2466067
0.0270386,0.00445557,1.01666-1.77002,-0.488281,8.60596,-0.015,-0.032,162.47,0.0509186,-0.227371,0,0,0,0,0,40.85,1234.47,2466082
0.00946045,-0.045166,0.988464-0.671387,-0.183105,4.94385,-0.013,0.02,162.28,0.0509186,-0.227325,0,0,0,0,0,40.85,1234.49,2466112
0.012207,-0.0980225,1.02740.610352,0,3.66211,-0.032,0.069,162.22,0.0508881,-0.227219,0,0,0,0,0,40.85,1234.51,2466127
0.0128174,-0.039978,1.002750.366211,0,5.18799,-0.015,0.013,162.15,0.050827,-0.227081,0,0,0,0,0,40.85,1234.53,2466142
0.00384521,-0.069397,0.9956670.0610352,-0.610352,3.90625,-0.015,0.044,162.09,0.0507507,-0.226883,0,0,0,0,0,40.85,1234.55,2466157
-0.0128784,-0.0709229,1.03717-3.66211,-0.854492,11.5967,0.001,0.045,161.81,0.0505066,-0.226044,0,0,0,0,0,40.85,1234.57,2466187
-0.00872803,-0.0317993,0.942932-1.58691,-0.366211,9.94873,0.008,0.008,161.66,0.0503693,-0.22551,0,0,0,0,0,40.85,1234.59,2466203
-0.00952148,-0.0938721,1.030763.17383,-0.427246,11.4136,-0.009,0.066,161.32,0.0503693,-0.224365,0,0,0,0,0,40.85,1234.61,2466232
-0.00292969,-0.062561,1.026312.62451,-0.0610352,10.5591,-0.006,0.034,161.16,0.0503693,-0.223709,0,0,0,0,0,40.85,1234.63,2466247
0.0012207,-0.00775146,1.02243.11279,-0.366211,11.7187,0.007,-0.017,160.98,0.0503693,-0.223022,0,0,0,0,0,40.85,1234.65,2466263
-0.0111694,-0.113281,1.02625-0.488281,-0.854492,15.1978,-0.016,0.086,160.57,0.0503235,-0.222961,0,0,0,0,0,40.85,1234.67,2466292
0.0161743,0.00799561,0.966492-2.99072,-0.366211,15.1367,-0.001,-0.036,160.33,0.0502777,-0.22287,0,0,0,0,0,40.85,1234.69,2466307
0.03302,-0.0724487,1.08026-3.05176,-0.427246,14.3433,-0.043,0.029,160.12,0.0502014,-0.222778,0,0,0,0,0,40.85,1234.71,2466323
-0.00457764,0.0188599,0.961671.77002,-0.610352,12.8174,0.021,-0.038,159.7,0.0500336,-0.222748,0,0,0,0,0,40.85,1234.73,2466352
0.0172729,-0.0553589,1.049441.2207,0.12207,12.0239,-0.023,0.02,159.52,0.0499573,-0.222794,0,0,0,0,0,40.85,1234.75,2466367
-0.00585938,-0.0126343,1.04559-0.305176,0.12207,11.1694,0.013,-0.01,159.35,0.049881,-0.222839,0,0,0,0,0,40.85,1234.77,2466383
-0.027832,-0.0343628,0.983093-0.488281,-0.244141,10.1929,0.024,0.019,159.19,0.0498352,-0.222839,0,0,0,0,0,40.85,1234.79,2466397
0.00213623,0.00299072,1.01593-0.854492,-0.427246,10.8643,0.01,-0.027,158.88,0.0497131,-0.222778,0,0,0,0,0,40.85,1234.81,2466427
-0.020752,-0.00939941,0.980713-0.0610352,-0.549316,11.8408,0.026,-0.006,158.71,0.0496826,-0.222778,0,0,0,0,0,40.85,1234.83,2466443
0.00982666,-0.00427246,1.032590.427246,-0.305176,13.7939,0,-0.023,158.31,0.0496368,-0.222839,0,0,0,0,0,40.85,1234.85,2466472
-0.0103149,-0.0209961,1.019350.305176,-0.427246,13.916,0.013,0,158.1,0.0496368,-0.2229,0,0,0,0,0,40.85,1234.87,2466487
0.0153809,-0.00335693,0.988403-0.549316,-0.549316,13.977,-0.004,-0.024,157.88,0.0496368,-0.222977,0,0,0,0,0,40.85,1234.89,2466503
-0.00567627,-0.0168457,1.02423-0.610352,-0.427246,13.3667,0.01,-0.005,157.48,0.0496368,-0.223343,0,0,0,0,0,40.86,1234.91,2466532
0.010437,0.0108032,1.01318-0.549316,-0.366211,13.1226,0.006,-0.036,157.28,0.0496368,-0.223587,0,0,0,0,0,40.86,1234.93,2466547
-0.00665283,-0.000671387,1.0061-0.244141,-0.427246,12.8174,0.017,-0.018,157.08,0.0496368,-0.223862,0,0,0,0,0,40.86,1234.95,2466563
-0.00201416,-0.0114746,1.01752-0.305176,-0.12207,11.7187,0.009,-0.01,156.71,0.0497131,-0.224167,0,0,0,0,0,40.86,1234.97,2466592
-0.00848389,0.0256348,1.00079-0.488281,-0.488281,9.46045,0.029,-0.041,156.55,0.0497894,-0.224197,0,0,0,0,0,40.86,1235,2466607
0.00476074,0.015625,1.01526-0.610352,-0.183105,5.85937,0.013,-0.038,156.44,0.0498962,-0.224289,0,0,0,0,0,40.86,1235.01,2466623
0.00408936,0.00994873,1.020870.12207,-0.0610352,2.50244,0.012,-0.032,156.31,0.0500031,-0.224579,0,0,0,0,0,40.86,1235.03,2466652
0.00506592,-0.0022583,1.006590.427246,-0.12207,0.671387,0.005,-0.02,156.3,0.0500031,-0.224762,0,0,0,0,0,40.86,1235.06,2466668
0.0166016,-0.017334,1.01758-0.0610352,-0.12207,0.0610352,-0.01,-0.011,156.29,0.0500031,-0.224991,0,0,0,0,0,40.86,1235.07,2466683
-0.000549316,0.00244141,1.00122-0.12207,0,-2.38037,0.012,-0.022,156.33,0.0500031,-0.225494,0,0,0,0,0,40.86,1235.09,2466712
0.00567627,-0.00390625,1.013430.183105,0.12207,-2.80762,0.004,-0.018,156.37,0.0500031,-0.225784,0,0,0,0,0,40.86,1235.12,2466728
-0.00305176,0.00952148,1.022220.732422,0.12207,-3.54004,0.017,-0.027,156.42,0.0500031,-0.22612,0,0,0,0,0,40.86,1235.13,2466743
0.00427246,-0.00762939,1.01501-0.244141,0,-2.19727,0.003,-0.014,156.51,0.0500031,-0.226776,0,0,0,0,0,40.86,1235.15,2466773
0.00439453,0.00274658,1.0105-0.427246,0.0610352,-2.13623,0.007,-0.023,156.54,0.0500031,-0.227142,0,0,0,0,0,40.86,1235.18,2466788
-0.00488281,-0.00219727,1.01685-0.183105,-0.0610352,-1.58691,0.014,-0.015,156.56,0.0500031,-0.227524,0,0,0,0,0,40.86,1235.19,2466803
0.000732422,-0.0098877,1.01349-0.610352,-0.0610352,0.0610352,0.006,-0.01,156.58,0.0500031,-0.227905,0,0,0,0,0,40.86,1235.21,2466833
0.00616455,-0.0119019,1.01624-0.427246,-0.244141,1.46484,0,-0.011,156.56,0.0500031,-0.227905,0,0,0,0,0,40.86,1235.23,2466848
-0.000732422,-0.0229492,1.010860,-0.0610352,1.77002,0.002,0.001,156.54,0.0500031,-0.227905,0,0,0,0,0,40.86,1235.25,2466863
0.00976562,-0.0106812,1.02203-0.12207,-0.0610352,1.40381,-0.002,-0.013,156.48,0.0500031,-0.227905,0,0,0,0,0,40.86,1235.27,2466893
-0.00195312,-0.0273438,1.00732-0.305176,-0.183105,0.976562,0.001,0.006,156.47,0.0500031,-0.227905,0,0,0,0,0,40.86,1235.29,2466908
0.00390625,-0.0205688,1.00757-0.244141,-0.0610352,0.793457,-0.001,-0.002,156.45,0.0500031,-0.227905,0,0,0,0,0,40.86,1235.31,2466923
0.00195312,-0.00628662,1.0036-0.0610352,-0.0610352,0.366211,0.006,-0.014,156.44,0.0500031,-0.227905,0,0,0,0,0,40.86,1235.33,2466953
-0.00134277,-0.020752,1.016170.12207,0.0610352,0.12207,0.003,0,156.43,0.0500031,-0.227905,0,0,0,0,0,40.86,1235.35,2466968
0.00744629,-0.0323486,1.03778-0.305176,0,-0.793457,-0.009,0.006,156.44,0.0500031,-0.227905,0,0,0,0,0,40.86,1235.37,2466983
0.00732422,0.0823975,0.985962-0.427246,-0.244141,-5.5542,0.036,-0.097,156.55,0.0500336,-0.227966,0,0,0,0,0,40.86,1235.39,2467013
0.0065918,0.0162964,1.004211.77002,-0.305176,-10.0098,0.01,-0.035,156.67,0.0500946,-0.228119,0,0,0,0,0,40.86,1235.41,2467028
-0.00396729,-0.0614624,1.04732.13623,0.427246,-11.5967,-0.01,0.039,156.84,0.0501404,-0.228271,0,0,0,0,0,40.86,1235.43,2467043
0.0153198,0.0202026,1.002441.0376,-0.0610352,-12.6343,0.003,-0.041,157.02,0.0501404,-0.228409,0,0,0,0,0,40.86,1235.45,2467058
-0.00671387,-0.00274658,1.023561.0376,0.610352,-13.977,0.014,-0.011,157.44,0.0501404,-0.228607,0,0,0,0,0,40.86,1235.47,2467088
0.0109253,-0.0112915,1.018620.915527,0.488281,-14.1602,-0.005,-0.01,157.64,0.0501404,-0.228607,0,0,0,0,0,40.86,1235.49,2467103
0.00585938,-0.0147095,1.000550.427246,0.549316,-15.1367,-0.002,-0.004,157.87,0.0501404,-0.228607,0,0,0,0,0,40.86,1235.51,2467118
-6.10352e-05,-0.0205688,1.027890.12207,0.793457,-15.625,0,0.003,158.31,0.0501404,-0.228653,0,0,0,0,0,40.86,1235.53,2467148
0.00219727,0.00128174,1.014530.0610352,0.488281,-15.564,0.006,-0.017,158.55,0.0501404,-0.228699,0,0,0,0,0,40.86,1235.55,2467163
-0.0131226,-0.00811768,1.003780.12207,0.427246,-15.8081,0.016,-0.003,159.01,0.0501404,-0.228699,0,0,0,0,0,40.86,1235.57,2467193
0.00628662,0.003479,1.005550.183105,0.183105,-14.6484,0.002,-0.021,159.24,0.0501404,-0.228714,0,0,0,0,0,40.86,1235.59,2467208
-0.00732422,-0.019165,1.004580.0610352,0.183105,-13.916,0.007,0.005,159.45,0.0501404,-0.228745,0,0,0,0,0,40.86,1235.61,2467223
0.00909424,-0.0223389,1.021060.0610352,0.12207,-12.2681,-0.009,0.002,159.84,0.0501404,-0.228775,0,0,0,0,0,40.86,1235.63,2467253
0.00787354,0.00469971,1.01105-0.183105,0.12207,-12.5732,0,-0.022,160.02,0.0501404,-0.22879,0,0,0,0,0,40.86,1235.65,2467268
0.00958252,-0.00256348,1.01013-0.183105,0.305176,-12.8784,-0.003,-0.016,160.22,0.0501404,-0.228836,0,0,0,0,0,40.86,1235.67,2467283
0.0146484,-0.0119629,1.02356-0.427246,0.366211,-13.6719,-0.01,-0.008,160.41,0.0501404,-0.228897,0,0,0,0,0,40.86,1235.69,2467298
0.00305176,-0.0111694,1.01862-0.549316,0.427246,-14.7095,0,-0.005,160.85,0.0501404,-0.228897,0,0,0,0,0,40.86,1235.71,2467328
-0.00842285,-0.00842285,1.00159-0.488281,0.427246,-15.0757,0.011,-0.004,161.08,0.0501404,-0.228897,0,0,0,0,0,40.86,1235.73,2467343
-0.0151367,-0.0172119,1.02167-0.854492,0.366211,-14.5264,0.014,0.005,161.29,0.0501404,-0.228897,0,0,0,0,0,40.86,1235.75,2467358
-0.0109253,0.00585938,1.00812-0.610352,-0.0610352,-13.3057,0.018,-0.017,161.7,0.0501404,-0.228897,0,0,0,0,0,40.86,1235.77,2467388
0.00262451,-0.0244751,0.996521-0.427246,0,-12.5122,-0.004,0.006,161.9,0.0501404,-0.228897,0,0,0,0,0,40.86,1235.79,2467403
0.00872803,-0.0165405,1.01685-1.09863,0.0610352,-12.146,-0.007,-0.003,162.26,0.0501404,-0.228897,0,0,0,0,0,40.86,1235.81,2467433
0.00341797,-0.0109253,1.01984-0.915527,0.427246,-12.7563,0,-0.007,162.44,0.0501404,-0.228897,0,0,0,0,0,40.86,1235.83,2467448
0.00640869,-0.0203247,1.01428-0.610352,0.610352,-12.8784,-0.006,0.001,162.63,0.0501404,-0.228897,0,0,0,0,0,40.86,1235.85,2467463
-0.00408936,-0.0322876,1.014220.427246,0.915527,-12.8784,0,0.015,163.02,0.0501404,-0.228897,0,0,0,0,0,40.86,1235.87,2467493
-0.00567627,-0.0354614,1.013180.549316,0.488281,-12.5732,0,0.018,163.21,0.0501404,-0.228897,0,0,0,0,0,40.86,1235.89,2467508
-0.00665283,-0.0137329,0.9973750.549316,0.488281,-12.8174,0.007,-0.001,163.4,0.0501404,-0.228897,0,0,0,0,0,40.86,1235.92,2467523
-0.012146,-0.00518799,1.013850.488281,0.488281,-12.9395,0.015,-0.008,163.59,0.0501404,-0.228897,0,0,0,0,0,40.86,1235.93,2467538
-0.012146,-0.00518799,1.013850.488281,0.488281,-12.9395,0.015,-0.008,163.59,0.0501404,-0.228897,0,0,0,0,0,40.86,1235.96,2467538
-0.012146,-0.00518799,1.013850.488281,0.488281,-12.9395,0.015,-0.008,163.59,0.0501404,-0.228897,0,0,0,0,0,40.86,1235.98,2467538
0.000244141,-0.0146484,1.000730.549316,0.12207,-13.0615,0,-0.001,164.18,0.0501404,-0.228897,0,0,0,0,0,40.86,1235.99,2467610
0.0325928,-0.0274048,1.005310.183105,0.12207,-14.2212,-0.034,0.002,164.79,0.0500641,-0.22879,0,0,0,0,0,40.86,1236.01,2467631
0.0141602,-0.0301514,1.00360.0610352,0.12207,-13.977,-0.017,0.01,165,0.0499573,-0.228729,0,0,0,0,0,40.86,1236.03,2467644
0.012085,-0.0134277,0.997009-0.488281,0.427246,-14.5874,-0.011,-0.005,165.22,0.0499573,-0.228729,0,0,0,0,0,40.86,1236.05,2467658
0.00640869,0.0365601,1.01178-0.427246,0.549316,-14.6484,0.006,-0.052,165.65,0.0499878,-0.22876,0,0,0,0,0,40.86,1236.07,2467688
-0.00622559,0.00415039,1.002380.0610352,0.671387,-14.7705,0.01,-0.017,165.88,0.0500336,-0.228836,0,0,0,0,0,40.86,1236.09,2467704
0.0148926,-0.0170288,1.024170.915527,0.0610352,-10.5591,-0.015,-0.002,166.24,0.0500336,-0.229111,0,0,0,0,0,40.86,1236.12,2467733
-0.0202026,-0.117676,1.00903-0.0610352,0.244141,-7.32422,-0.005,0.104,166.37,0.0500336,-0.229187,0,0,0,0,0,40.86,1236.13,2467748
0.00476074,0.00701904,1.02258-0.671387,-0.0610352,-2.92969,0,-0.023,166.43,0.0500336,-0.229202,0,0,0,0,0,40.86,1236.15,2467764
0.0122681,-0.0120239,1.03149-1.15967,0.427246,-2.74658,-0.011,-0.006,166.47,0.0500336,-0.229248,0,0,0,0,0,40.86,1236.17,2467778
-0.003479,-0.0158691,1.01184-0.305176,0.0610352,-0.671387,0.002,0,166.51,0.0500336,-0.229446,0,0,0,0,0,40.86,1236.19,2467808
-0.00695801,-0.0432739,1.02655-0.427246,0.305176,-0.244141,0,0.027,166.52,0.0500336,-0.229538,0,0,0,0,0,40.86,1236.21,2467824
0.00170898,0.0101318,1.0097-0.793457,-0.244141,0.793457,0.003,-0.026,166.5,0.0500336,-0.22963,0,0,0,0,0,40.86,1236.23,2467838
-0.00640869,-0.036377,1.026670.488281,-0.366211,0.0610352,0,0.021,166.47,0.0501404,-0.230103,0,0,0,0,0,40.86,1236.27,2467884
0.00494385,-0.0067749,1.01233-1.89209,-0.488281,0.244141,-0.003,-0.01,166.48,0.0501404,-0.230392,0,0,0,0,0,40.86,1236.29,2467913
