accel_x,accel_y,accel_z,gyro_x,gyro_y,gyro_z,x,y,z,left_encoder_rate,right_encoder_rate,left_input,right_input,fpga time,navx time
0.0308228,0.0274048,0.950989,0.15213,0.15213,-0,-0.849442,1.22896,0,0,0,-0.0078125,0.0078125,42.8681,3059103
0.0336304,0.0285034,0.949951,0.30426,0.30426,0.15213,-0.849442,1.22896,0,0,0,-0.0078125,0.0078125,42.8875,3059133
0.0348511,0.0274658,0.944885,-0,0.15213,-0.15213,-0.849442,1.22896,0,0,0,-0.0078125,0.0078125,42.9075,3059148
0.0326538,0.0288086,0.950989,-0,-0,0.15213,-0.849442,1.22896,0,0,0,-0.0078125,0.0078125,42.9272,3059163
0.0336304,0.0281982,0.947754,-0,-0.30426,-0,-0.849442,1.22896,0,0,0,-0.0078125,0.0078125,42.9477,3059193
0.032959,0.0280762,0.94873,0.15213,0.30426,-0.15213,-0.849442,1.22896,0,0,0,-0.0078125,0.0078125,42.9673,3059208
0.0360107,0.0313721,0.943909,0.15213,0.30426,-0.30426,-0.849442,1.22896,0,0,0,-0.0078125,0.0078125,42.9874,3059223
0.0367432,0.0301514,0.945618,0.15213,0.30426,-0.15213,-0.849442,1.22896,0,0,0,-0.0078125,0.0078125,43.0075,3059253
0.0339966,0.0274048,0.947327,0.15213,-0,-0,-0.849442,1.22896,0,0,0,-0.0078125,0.0078125,43.0274,3059268
0.0366821,0.0305176,0.948547,-0,-0,-0,-0.849442,1.22896,0,0,0,-0.0078125,0.0078125,43.0476,3059283
0.0338135,0.0274048,0.948975,0.30426,0.45639,0.15213,-0.849442,1.22896,0,0,0,-0.0078125,0.0078125,43.0679,3059313
0.031189,0.0288696,0.945984,0.15213,0.30426,0.15213,-0.849442,1.22896,0,0,0,-0.0078125,0.0078125,43.0878,3059328
0.0356445,0.0287476,0.953613,-0,-0,0.15213,-0.849442,1.22896,0,0,0,-0.0078125,0.0078125,43.1079,3059343
0.0333862,0.0328979,0.945984,0.15213,0.30426,-0,-0.849442,1.22896,0,0,0,-0.0078125,0.0078125,43.1296,3059373
0.0380859,0.0286255,0.949341,0.15213,0.45639,0.30426,-0.849442,1.22896,0,0,0,-0.0078125,0.0078125,43.1477,3059388
0.0316162,0.0287476,0.94873,-0,-0,0.30426,-0.849442,1.22896,0,0,0,-0.0078125,0.0078125,43.1677,3059403
0.0349731,0.0280762,0.946899,0.15213,0.30426,-0.15213,-0.849442,1.22896,0,0,0,-0.0078125,0.0078125,43.1877,3059433
0.0314941,0.0300293,0.945435,-0,-0.30426,-0,-0.849442,1.22896,0,0,0,-0.0078125,0.0078125,43.2078,3059448
0.0341187,0.0318604,0.951172,0.15213,0.15213,-0,-0.849442,1.22896,0,0,0,-0.0078125,0.0078125,43.2277,3059463
0.0341797,0.0307007,0.950012,-0,-0,-0,-0.849442,1.22896,0,0,0,-0.0078125,0.0078125,43.2491,3059493
0.0357056,0.0294189,0.953674,-0,-0.15213,0.15213,-0.849442,1.22896,0,0,0,-0.0078125,0.0078125,43.2686,3059508
0.034729,0.027832,0.949341,-0.15213,-0,0.15213,-0.849442,1.22896,0,0,0,-0.0078125,0.0078125,43.2879,3059523
0.0372925,0.0313721,0.94751,0.15213,0.15213,0.45639,-0.849442,1.22896,0,0,0,-0.0078125,0.0078125,43.3087,3059553
0.0330811,0.0270996,0.949402,0.30426,0.30426,0.15213,-0.849442,1.22896,0,0,0,-0.0078125,0.0078125,43.3269,3059568
0.0334473,0.0292969,0.947815,-0.15213,-0,-0,-0.849442,1.22896,0,0,0,-0.0078125,0.0078125,43.3468,3059583
0.0345459,0.0304565,0.944031,0.30426,0.15213,-0.15213,-0.849442,1.22896,0,0,0,-0.0078125,0.0078125,43.3668,3059613
0.0321045,0.0285034,0.951416,0.30426,0.15213,-0.15213,-0.849442,1.22896,0,0,0,-0.0078125,0.0078125,43.3884,3059628
0.0355225,0.0313721,0.94751,0.15213,0.15213,0.30426,-0.849442,1.22896,0,0,0,-0.0078125,0.0078125,43.409,3059643
0.0339355,0.0279541,0.945374,-0,-0,-0,-0.849442,1.22896,0,0,0,-0.0078125,0.0078125,43.435,3059673
0.03125,0.0286255,0.944458,0.15213,0.15213,-0.30426,-0.849442,1.22896,0,0,0,-0.0078125,0.0078125,43.447,3059688
0.0354614,0.0280762,0.947693,0.15213,0.30426,-0,-0.849442,1.22896,0,0,0,-0.0078125,0.0078125,43.4679,3059703
0.0354004,0.0262451,0.944824,0.15213,-0,-0.15213,-0.849442,1.22896,0,0,0,-0.0078125,0.0078125,43.4873,3059733
0.0333252,0.0285645,0.947632,0.15213,0.15213,0.15213,-0.849442,1.22896,0,0,0,-0.0078125,0.0078125,43.5075,3059748
0.0330811,0.0287476,0.949219,0.15213,0.45639,0.15213,-0.849442,1.22896,0,0,0,-0.0078125,0.0078125,43.528,3059763
0.0328979,0.0275879,0.949768,0.15213,0.15213,-0,-0.849442,1.22896,0,0,0,-0.0078125,0.0078125,43.5479,3059793
0.0350342,0.0308838,0.945618,-0,-0,-0.15213,-0.849442,1.22896,0,0,0,-0.0078125,0.0078125,43.5675,3059808
0.0350342,0.0268555,0.944336,0.15213,0.15213,-0,-0.849442,1.22896,0,0,0,-0.0078125,0.0078125,43.5873,3059823
0.0314331,0.0273438,0.947571,0.15213,0.30426,-0.15213,-0.849442,1.22896,0,0,0,-0.0078125,0.0078125,43.6077,3059853
0.034668,0.0311279,0.950745,-0.15213,0.15213,-0,-0.849442,1.22896,0,0,0,-0.0078125,0.0078125,43.6273,3059868
0.0330811,0.0291138,0.954651,0.15213,-0,-0,-0.849442,1.22896,0,0,0,-0.0078125,0.0078125,43.6473,3059883
0.0338135,0.0297241,0.947021,0.15213,0.15213,0.15213,-0.849442,1.22896,0,0,0,-0.0078125,0.0078125,43.6713,3059913
0.0333862,0.0310669,0.949463,-0,-0.15213,-0,-0.849442,1.22896,0,0,0,-0.0078125,0.0078125,43.6873,3059928
0.0361938,0.0289307,0.944946,-0.15213,0.15213,-0.30426,-0.849442,1.22896,0,0,0,-0.0078125,0.0078125,43.7076,3059943
0.0317383,0.0331421,0.943787,-0.15213,-0,0.45639,-0.849442,1.22896,0,0,0,-0.0078125,0.0078125,43.7272,3059973
0.0341187,0.0291748,0.95105,-0,0.30426,-0.15213,-0.849442,1.22896,0,0,0,-0.0078125,0.0078125,43.7475,3059988
0.0354004,0.0289917,0.946228,-0,-0,0.15213,-0.849442,1.22896,0,0,0,-0.0078125,0.0078125,43.7674,3060003
0.0304565,0.0305176,0.94989,-0,-0,-0,-0.849442,1.22896,0,0,0,-0.0078125,0.0078125,43.7874,3060033
0.0340576,0.0289307,0.950378,0.15213,0.15213,-0,-0.849442,1.22896,0,0,0,-0.0078125,0.0078125,43.8084,3060048
0.0336304,0.0284424,0.946594,0.15213,0.15213,0.30426,-0.849442,1.22896,0,0,0,-0.0078125,0.0078125,43.8278,3060063
0.0315552,0.0300903,0.947449,-0.15213,-0,-0,-0.849442,1.22896,0,0,0,-0.0078125,0.0078125,43.8477,3060093
0.032959,0.0300293,0.944763,0.15213,0.45639,0.15213,-0.849442,1.22896,0,0,0,-0.0078125,0.0078125,43.8706,3060108
0.0350342,0.0293579,0.946899,0.15213,0.30426,-0,-0.849442,1.22896,0,0,0,-0.0078125,0.0078125,43.8874,3060123
0.0328979,0.0321655,0.950195,-0.15213,-0.15213,-0.15213,-0.849442,1.22896,0,0,0,-0.0078125,0.0078125,43.9079,3060153
0.0307617,0.0270386,0.943542,-0,-0.15213,-0.30426,-0.849442,1.22896,0,0,0,-0.0078125,0.0078125,43.9278,3060168
0.0343018,0.0283813,0.945618,-0,-0,-0,-0.849442,1.22896,0,0,0,-0.0078125,0.0078125,43.949,3060198
0.0328979,0.0297241,0.948059,0.15213,0.15213,-0,-0.849442,1.22896,0,0,0,-0.0078125,0.0078125,43.9677,3060213
0.0319824,0.0302124,0.950562,0.30426,0.45639,-0,-0.849442,1.22896,0,0,0,-0.0078125,0.0078125,43.9874,3060228
0.0340576,0.0306396,0.946533,0.15213,0.15213,-0.15213,-0.849442,1.22896,0,0,0,-0.0078125,0.0078125,44.0078,3060243
0.0339966,0.0293579,0.950378,0.15213,0.45639,-0,-0.849442,1.22896,0,0,0,-0.0078125,0.0078125,44.0275,3060273
0.0357056,0.0290527,0.944641,-0,0.15213,-0.15213,-0.849442,1.22896,0,0,0,-0.0078125,0.0078125,44.0478,3060288
0.0327759,0.0313721,0.947083,0.15213,-0,0.15213,-0.849442,1.22896,0,0,0,-0.0078125,0.0078125,44.0678,3060303
0.0350342,0.0321045,0.943054,0.15213,0.30426,0.15213,-0.849442,1.22896,0,0,0,-0.0078125,0.0078125,44.0877,3060333
0.0343018,0.0299683,0.948059,-0,-0,0.15213,-0.849442,1.22896,0,0,0,-0.0078125,0.0078125,44.1082,3060348
0.0305786,0.0305176,0.952881,0.30426,0.30426,0.15213,-0.849442,1.22896,0,0,0,-0.0078125,0.0078125,44.1279,3060362
0.0369873,0.0288086,0.944031,0.15213,0.15213,-0,-0.849442,1.22896,0,0,0,-0.0078125,0.0078125,44.1469,3060392
0.0334473,0.0272217,0.947815,-0.15213,-0.15213,-0.15213,-0.849442,1.22896,0,0,0,-0.0078125,0.0078125,44.1669,3060408
0.0325317,0.0276489,0.948547,0.30426,0.15213,-0,-0.849442,1.22896,0,0,0,-0.0078125,0.0078125,44.1911,3060437
0.0349731,0.0308228,0.943176,0.15213,0.15213,-0.15213,-0.849442,1.22896,0,0,0,-0.0078125,0.0078125,44.2071,3060452
0.0327148,0.0302734,0.947876,-0.15213,-0,-0,-0.849442,1.22896,0,0,0,-0.0078125,0.0078125,44.227,3060468
0.0333252,0.0305176,0.946838,-0.15213,-0,-0,-0.849442,1.22896,0,0,0,-0.0078125,0.0078125,44.2471,3060482
0.0356445,0.0300293,0.95166,0.15213,0.15213,0.15213,-0.849442,1.22896,0,0,0,-0.0078125,0.0078125,44.2671,3060512
0.0339355,0.0248413,0.946899,0.15213,0.15213,0.30426,-0.849442,1.22896,0,0,0,-0.0078125,0.0078125,44.2872,3060528
0.0340576,0.027771,0.947266,0.15213,0.15213,-0,-0.849442,1.22896,0,0,0,-0.0078125,0.0078125,44.3075,3060542
0.0357056,0.0244141,0.946838,-0.15213,-0,0.15213,-0.849442,1.22896,0,0,0,-0.0078125,0.0078125,44.3272,3060572
0.0356445,0.0313721,0.946777,-0,0.15213,0.15213,-0.849442,1.22896,0,0,0,-0.0078125,0.0078125,44.3489,3060588
0.0317383,0.0299072,0.948181,-0,-0,-0.15213,-0.849442,1.22896,0,0,0,-0.0078125,0.0078125,44.3676,3060602
0.0335693,0.0291138,0.945862,-0,0.30426,-0,-0.849442,1.22896,0,0,0,-0.0078125,0.0078125,44.3876,3060632
0.0339355,0.0286255,0.945679,-0,-0,-0,-0.849442,1.22896,0,0,0,-0.0078125,0.0078125,44.4124,3060648
0.0339355,0.0286865,0.948547,0.15213,0.15213,-0,-0.849442,1.22896,0,0,0,-0.0078125,0.0078125,44.4276,3060662
0.0345459,0.0266724,0.948364,-0,-0,-0.15213,-0.849442,1.22896,0,0,0,-0.0078125,0.0078125,44.4477,3060692
0.0337524,0.029541,0.946228,0.15213,0.15213,0.15213,-0.849442,1.22896,0,0,0,-0.0078125,0.0078125,44.4697,3060708
0.0369873,0.0299683,0.952087,0.15213,0.45639,-0,-0.849442,1.22896,0,0,0,-0.0078125,0.0078125,44.4937,3060737
0.0351562,0.0262451,0.947754,0.15213,0.45639,0.30426,-0.849442,1.22896,0,0,0,-0.0078125,0.0078125,44.5078,3060752
0.0317383,0.0267944,0.945923,0.15213,0.15213,0.15213,-0.849442,1.22896,0,0,0,-0.0078125,0.0078125,44.5269,3060768
0.0317383,0.0285645,0.949524,0.15213,0.15213,0.15213,-0.849442,1.22896,0,0,0,-0.0078125,0.0078125,44.5469,3060782
0.0360107,0.0282593,0.945435,0.30426,0.608521,-0,-0.849442,1.22896,0,0,0,-0.0078125,0.0078125,44.5669,3060812
0.0344849,0.0292358,0.948608,0.15213,0.30426,-0,-0.849442,1.22896,0,0,0,-0.0078125,0.0078125,44.5869,3060828
0.0378418,0.027832,0.946045,-0,-0,0.15213,-0.849442,1.22896,0,0,0,-0.0078125,0.0078125,44.6072,3060842
0.0358276,0.0309448,0.944092,0.30426,0.15213,0.15213,-0.849442,1.22896,0,0,0,-0.0078125,0.0078125,44.6273,3060872
0.0345459,0.027771,0.945435,0.15213,0.45639,0.15213,-0.849442,1.22896,0,0,0,-0.0078125,0.0078125,44.6472,3060888
0.0349731,0.0299072,0.949341,0.15213,0.45639,-0,-0.849442,1.22896,0,0,0,-0.0078125,0.0078125,44.6671,3060902
0.0325928,0.0288086,0.94812,0.15213,0.15213,-0,-0.849442,1.22896,0,0,0,-0.0078125,0.0078125,44.6889,3060932
0.0327759,0.0274048,0.945618,0.30426,0.30426,-0,-0.849442,1.22896,0,0,0,-0.0078125,0.0078125,44.7074,3060948
0.0331421,0.0281982,0.947632,-0,-0,-0.15213,-0.849442,1.22896,0,0,0,-0.0078125,0.0078125,44.7278,3060962
0.0336914,0.0288086,0.948425,0.15213,-0,0.15213,-0.849442,1.22896,0,0,0,-0.0078125,0.0078125,44.7475,3060992
0.0314941,0.031189,0.9505,0.15213,0.15213,0.15213,-0.849442,1.22896,0,0,0,-0.0078125,0.0078125,44.768,3061008
0.0324097,0.0306396,0.944641,-0,-0.15213,-0,-0.849442,1.22896,0,0,0,-0.0078125,0.0078125,44.7877,3061022
0.0316162,0.0306396,0.952881,-0,-0,0.15213,-0.849442,1.22896,0,0,0,-0.0078125,0.0078125,44.8078,3061052
0.0324097,0.0294189,0.95166,0.15213,0.30426,0.15213,-0.849442,1.22896,0,0,0,-0.0078125,0.0078125,44.8278,3061068
0.034668,0.0304565,0.943359,-0,0.45639,-0.15213,-0.849442,1.22896,0,0,0,-0.0078125,0.0078125,44.8468,3061082
0.0334473,0.0263672,0.949585,0.30426,0.15213,-0,-0.849442,1.22896,0,0,0,-0.0078125,0.0078125,44.8677,3061112
0.0344849,0.0280151,0.948486,0.15213,0.15213,-0,-0.849442,1.22896,0,0,0,-0.0078125,0.0078125,44.8881,3061128
0.0310059,0.0280151,0.946716,-0,0.15213,-0.30426,-0.849442,1.22896,0,0,0,-0.0078125,0.0078125,44.9073,3061142
0.0336304,0.0318604,0.947693,0.15213,0.15213,0.30426,-0.849442,1.22896,0,0,0,-0.0078125,0.0078125,44.9272,3061172
0.0336914,0.0284424,0.951904,0.30426,0.15213,-0,-0.849442,1.22896,0,0,0,-0.0078125,0.0078125,44.9475,3061187
0.0345459,0.0288696,0.94519,0.15213,0.30426,-0,-0.849442,1.22896,0,0,0,-0.0078125,0.0078125,44.9687,3061202
0.0337524,0.0274658,0.948364,0.15213,0.15213,0.45639,-0.849442,1.22896,0,0,0,-0.0078125,0.0078125,44.9877,3061232
0.0372925,0.0291138,0.950623,-0.15213,0.15213,0.15213,-0.849442,1.22896,0,0,0,-0.0078125,0.0078125,45.0109,3061247
0.0355225,0.0300293,0.946411,0.15213,0.45639,0.15213,-0.849442,1.22896,0,0,0,-0.0078125,0.0078125,45.0307,3061277
0.0349121,0.0269775,0.946411,-0,-0,0.30426,-0.849442,1.22896,0,0,0,-0.0078125,0.0078125,45.0475,3061292
0.03479,0.0269775,0.947205,-0,-0,-0.15213,-0.849442,1.22896,0,0,0,-0.0078125,0.0078125,45.0676,3061307
0.0358276,0.0286865,0.951843,-0,0.15213,-0,-0.849442,1.22896,0,0,0,-0.0078125,0.0078125,45.0875,3061337
0.0337524,0.0291748,0.945496,-0.15213,-0.45639,-0.15213,-0.849442,1.22896,0,0,0,-0.0078125,0.0078125,45.1079,3061352
0.0355225,0.0274658,0.950073,-0,-0,0.15213,-0.849442,1.22896,0,0,0,-0.0078125,0.0078125,45.1292,3061367
0.0352173,0.02771,0.948669,0.15213,0.30426,0.30426,-0.849442,1.22896,0,0,0,-0.0078125,0.0078125,45.1475,3061397
0.0327759,0.0288086,0.950073,-0,-0,-0.30426,-0.849442,1.22896,0,0,0,-0.0078125,0.0078125,45.1678,3061412
0.0352783,0.0278931,0.952454,0.15213,0.30426,0.15213,-0.849442,1.22896,0,0,0,-0.0078125,0.0078125,45.1876,3061427
0.0334473,0.0298462,0.951599,0.15213,0.15213,-0.15213,-0.849442,1.22896,0,0,0,-0.0078125,0.0078125,45.209,3061442
0.0332031,0.0282593,0.951782,-0.15213,-0.30426,0.30426,-0.849442,1.22896,0,0,0,-0.0078125,0.0078125,45.229,3061472
0.0351562,0.0267944,0.942749,0.15213,-0,0.30426,-0.849442,1.22896,0,0,0,-0.0078125,0.0078125,45.248,3061487
0.034729,0.027771,0.953064,-0,-0,-0,-0.849442,1.22896,0,0,0,-0.0078125,0.0078125,45.2923,3061532
0.036377,0.0309448,0.948242,0.30426,0.30426,0.15213,-0.849442,1.22896,0,0,0,-0.0078125,-0.299213,45.3068,3061547
0.0341187,0.0301514,0.946899,0.15213,0.15213,-0.15213,-0.849442,1.22896,0,0,0,-0.0078125,-0.559055,45.3271,3061562
0.0734253,0.0227051,0.925537,-0.15213,0.15213,-0.15213,-0.849472,1.22896,0,0,180.522,-0.0078125,-0.685039,45.3486,3061592
-0.0924072,0.126587,0.892761,-0.912781,-0.15213,0.608521,-0.849411,1.22893,0,0,345.71,-0.0078125,-0.700787,45.3721,3061607
-0.16217,0.32959,1.0011,-4.10751,-2.12982,7.91077,-0.84906,1.22871,0,0,410.762,-0.0078125,-0.724409,45.3872,3061622
-0.119202,0.246582,0.849487,3.80325,3.49899,15.9737,-0.847122,1.22757,0,-49.4836,421.763,-0.0078125,-0.740157,45.4076,3061652
0.20282,0.190918,1.10138,1.5213,-0,13.8438,-0.845886,1.22665,0,-71.7672,562.62,-0.0078125,-0.748031,45.4275,3061667
-0.166748,0.315796,0.729187,1.36917,1.97769,12.9311,-0.844543,1.22546,0,-43.8471,536.495,-0.0078125,-0.755906,45.4495,3061682
-0.495972,0.248413,0.887878,-1.67343,-0.912781,28.7526,-0.840942,1.22244,0,-118.283,537.158,-0.0078125,-0.755906,45.4681,3061712
0.234009,0.179199,0.903564,0.912781,-0.760651,41.5315,-0.838669,1.22073,0,-108.594,618.219,-0.0078125,-0.755906,45.4876,3061727
-0.122192,0.148865,1.05945,-4.41177,-0.30426,46.3997,-0.836365,1.21886,0,-150.044,640.964,-0.0078125,-0.771654,45.5083,3061742
0.0946045,0.0991211,1.16486,1.97769,-9.88846,47.0082,-0.830994,1.21475,0,-169.284,764.789,-0.0078125,-0.771654,45.5275,3061772
-0.180115,0.201843,0.762634,5.02029,-1.97769,45.3348,-0.82811,1.21255,0,-211.457,890.988,-0.0078125,-0.779528,45.5476,3061787
-0.0609741,0.16156,1.13916,6.38947,-6.69373,49.138,-0.824982,1.21025,0,-234.085,564.446,-0.0078125,-0.779528,45.5677,3061802
0.117859,0.14502,1.03656,3.34686,-0.45639,54.3105,-0.818298,1.20518,0,-222.225,710.555,-0.0078125,-0.779528,45.5896,3061832
-0.161499,0.137085,1.06085,5.17242,1.67343,56.4403,-0.814835,1.20248,0,-218.909,821.76,-0.0078125,-0.779528,45.6079,3061847
-0.11676,0.153381,1.01031,3.49899,3.0426,61.7648,-0.811157,1.19975,0,-240.602,739.891,-0.0078125,-0.779528,45.6269,3061862
0.451416,0.0814819,1.4715,9.27994,-8.67142,65.5681,-0.80365,1.19397,0,-262.35,940.822,-0.0078125,-0.779528,45.647,3061892
-0.0489502,0.124146,0.123352,19.1684,10.3448,61.6127,-0.800247,1.19087,0,-264.736,713.852,-0.0078125,-0.779528,45.667,3061907
-0.264343,0.230652,1.99994,-20.3854,10.1927,66.4809,-0.796585,1.18768,0,-341.898,991.473,-0.0078125,-0.779528,45.6871,3061922
-0.163452,0.195007,1.09393,2.43408,-2.58621,69.8277,-0.789398,1.18098,0,-348.129,818.465,-0.0078125,-0.779528,45.7072,3061952
-0.0820312,0.143494,1.29956,10.0406,-3.49899,70.132,-0.785629,1.17749,0,-344.116,611.004,-0.0078125,-0.779528,45.7273,3061967
0.110291,0.0844727,0.789001,4.71603,-2.28195,69.8277,-0.781876,1.17393,0,-326.036,649.773,-0.0078125,-0.779528,45.7473,3061982
0.12793,0.23407,1.09052,-3.0426,4.86816,70.132,-0.775009,1.16655,0,-335.942,833.611,-0.0078125,-0.779528,45.7672,3062012
0.11438,0.0830078,1.07471,-0.608521,10.1927,69.2192,-0.771805,1.16263,0,-382.841,866.889,-0.0078125,-0.779528,45.788,3062027
0.0244751,0.154358,0.993713,-1.06491,-5.93307,69.8277,-0.768661,1.15863,0,-393.864,735.565,-0.0078125,-0.779528,45.8075,3062042
0.200745,0.0822754,0.905151,1.97769,-1.5213,71.349,-0.762939,1.15044,0,-370.185,1039.72,-0.0078125,-0.779528,45.8276,3062072
-0.0675659,0.127319,0.91626,1.21704,3.49899,73.631,-0.760269,1.14624,0,-361.801,982.029,-0.0078125,-0.779528,45.8476,3062087
-0.0125732,0.114624,0.849915,3.0426,1.06491,73.1746,-0.757523,1.14197,0,-397.275,1118.63,-0.0078125,-0.779528,45.8676,3062102
0.11615,0.0482788,0.975037,2.73834,3.0426,76.3693,-0.751968,1.13329,0,-368.399,681.153,-0.0078125,-0.779528,45.8877,3062132
0.0543823,0.126343,0.748901,2.43408,-1.5213,77.4342,-0.749313,1.12888,0,-438.231,976.134,-0.0078125,-0.779528,45.9074,3062147
-0.115234,0.114807,0.936462,0.30426,-0.45639,77.4342,-0.746597,1.12439,0,-419.349,947.373,-0.0078125,-0.716535,45.9269,3062162
0.409729,0.0384521,1.23572,-5.17242,-2.43408,79.8683,-0.741333,1.11531,0,-378.566,886.014,-0.0078125,-0.716535,45.947,3062192
0.474426,0.0488892,1.03717,-6.08521,-1.36917,78.9555,-0.739441,1.11072,0,-409.182,965.577,-0.0078125,-0.716535,45.967,3062207
-0.123596,0.108521,0.815918,5.47668,-0.30426,80.4768,-0.737778,1.10606,0,-402.139,848.572,-0.0078125,-0.716535,45.9871,3062222
0.19928,-0.00958252,0.837463,1.06491,0.912781,82.6067,-0.734024,1.09663,0,-370.514,815.927,-0.0078125,-0.716535,46.007,3062252
0.138733,0.158081,1.11395,2.12982,0.15213,84.5844,-0.730591,1.08716,0,-465.539,778.574,-0.0078125,-0.716535,46.0334,3062282
0.0340576,0.204712,0.986816,0.30426,1.06491,85.0407,-0.729004,1.08221,0,-394.275,803.536,-0.0078125,-0.716535,46.0507,3062297
-0.219788,0.0687866,0.717834,4.86816,-4.10751,85.4971,-0.72728,1.07718,0,-323.646,654.857,-0.0078125,-0.716535,46.0711,3062312
0.0935059,0.0249023,0.971802,-8.36716,1.5213,86.562,-0.725449,1.07219,0,-435.72,796.337,-0.0078125,-0.716535,46.088,3062328
0.131348,0.123535,0.824707,-0.45639,1.67343,88.0833,-0.72377,1.06715,0,-560.365,752.615,-0.0078125,-0.716535,46.1087,3062342
0.115356,0.148926,1.10461,-2.43408,-0.912781,85.345,-0.720734,1.05684,0,-488.472,730.114,-0.0078125,-0.716535,46.1276,3062372
0.0647583,0.132446,0.713074,-2.28195,-5.02029,86.2578,-0.719376,1.05153,0,-498.107,813.306,-0.0078125,-0.716535,46.1475,3062387
0.081665,0.0317993,0.893555,2.73834,-1.36917,86.8663,-0.718109,1.04619,0,-625.274,1211.09,-0.0078125,-0.716535,46.1677,3062402
0.310852,-0.0337524,0.645447,-5.93307,-13.8438,84.128,-0.71637,1.03557,0,-487.65,813.504,-0.0078125,-0.716535,46.1878,3062432
-0.327332,0.183716,1.23053,-1.97769,6.23734,85.0407,-0.715652,1.03027,0,-430.33,628.812,-0.0078125,-0.716535,46.2077,3062447
-0.241516,0.108521,0.731506,9.73633,-0.912781,86.2578,-0.713715,1.01962,0,-479.467,824.266,-0.0078125,-0.716535,46.236,3062476
0.059082,0.0237427,0.697266,3.65112,-1.5213,86.1057,-0.71254,1.01427,0,-421.977,656.987,-0.0078125,-0.716535,46.2479,3062491
0.274292,0.0845947,1.19763,1.97769,-0.45639,84.5844,-0.711578,1.00894,0,-406.034,729.874,-0.0078125,-0.716535,46.2684,3062507
-0.47168,0.25708,1.03833,16.4301,14.3002,75.6087,-0.71051,0.998062,0,-529.297,758.668,-0.0078125,-0.716535,46.2879,3062536
0.956421,-0.00567627,0.714905,-3.34686,-2.73834,74.3916,-0.710266,0.992462,0,-480.665,672.993,-0.0078125,-0.716535,46.3081,3062551
-0.616028,0.101624,0.707886,6.99799,0.608521,73.0225,-0.710236,0.986893,0,-542.697,858.038,-0.0078125,-0.716535,46.3277,3062567
-0.205933,-0.0388184,0.725647,6.23734,-4.71603,70.4362,-0.709869,0.975647,0,-492.89,703.705,-0.0078125,-0.716535,46.3477,3062596
0.645142,-0.23468,0.952881,-0.15213,-0.30426,69.2192,-0.709976,0.970337,0,-616.637,697.812,-0.0078125,-0.716535,46.3678,3062611
-0.20752,0.243469,0.972778,0.30426,-1.36917,67.6979,-0.710358,0.965134,0,-469.208,812.513,-0.0078125,-0.716535,46.3888,3062627
-0.190857,0.208923,1.19849,-2.28195,10.8012,66.7851,-0.711731,0.954681,0,-553.22,862.627,-0.0078125,-0.716535,46.4069,3062656
-0.300842,0.129761,1.28857,3.34686,3.49899,63.5904,-0.712173,0.94931,0,-711.516,903.016,-0.0078125,-0.716535,46.4268,3062671
-0.086792,0.0113525,0.917908,1.97769,10.9534,62.0691,-0.712341,0.943909,0,-618.391,558.737,-0.0078125,-0.716535,46.447,3062687
0.381104,-0.020752,0.922974,-0,3.95538,65.416,-0.712646,0.938644,0,-731.048,930.795,-0.0078125,-0.716535,46.4668,3062701
0.182251,0.0348511,0.143188,-3.0426,-4.86816,63.8947,-0.7146,0.928223,0,-448.089,785.145,-0.0078125,-0.700787,46.4872,3062731
-0.0828857,0.0163574,0.921509,-2.73834,-1.5213,63.7425,-0.715805,0.923019,0,-708.767,823.147,-0.0078125,-0.692913,46.509,3062747
-0.292358,0.151123,1.05664,-12.7789,7.91077,61.6127,-0.716751,0.917755,0,-653.168,1021.35,-0.0078125,-0.669291,46.5273,3062761
-0.0325317,0.131287,1.15088,-0.608521,3.95538,59.7871,-0.71933,0.90741,0,-598.48,885.073,-0.0078125,-0.653543,46.547,3062791
-0.155151,0.0299072,0.468262,8.0629,3.80325,57.9616,-0.720642,0.902237,0,-627.884,956.297,-0.0078125,-0.645669,46.5671,3062807
-0.28479,0.194336,1.53259,-3.95538,6.38947,57.0488,-0.721664,0.896942,0,-566.508,823.452,-0.0078125,-0.629921,46.5883,3062821
-0.112732,-0.0414429,0.901855,3.95538,-2.89047,53.0934,-0.724136,0.886307,0,-665.203,840.619,-0.0078125,-0.629921,46.6071,3062851
0.476318,0.0616455,1.12201,3.95538,4.71603,52.7892,-0.725662,0.881165,0,-575.473,751.795,-0.0078125,-0.629921,46.6273,3062867
0.40863,0.0163574,0.710144,-1.21704,-2.73834,51.2679,-0.727753,0.876175,0,-675.744,747.328,-0.0078125,-0.622047,46.6474,3062881
0.125427,0.0274658,0.772766,0.15213,7.91077,47.921,-0.731842,0.866226,0,-549.435,786.689,-0.0078125,-0.622047,46.6673,3062911
0.128296,0.0748901,1.01746,-5.17242,5.78094,45.639,-0.733932,0.861298,0,-466.81,881.951,-0.0078125,-0.598425,46.6883,3062927
-0.184998,-0.00262451,0.665039,-0.912781,-6.84586,42.5964,-0.739059,0.851639,0,-581.615,806.484,-0.0078125,-0.590551,46.7074,3062956
0.145508,0.0591431,1.271,-0.30426,-3.65112,41.9879,-0.741623,0.846878,0,-700.992,637.735,-0.0078125,-0.559055,46.7275,3062971
-0.285583,0.104248,0.760986,-2.43408,3.49899,36.3591,-0.744064,0.842087,0,-566.396,656.254,-0.0078125,-0.480315,46.7474,3062987
-0.258362,0.0765991,0.50946,1.82556,11.5619,28.7526,-0.749268,0.832855,0,-642.24,740.521,-0.0078125,-0.267717,46.7674,3063016
0.345032,-0.0438843,1.36145,1.21704,-7.91077,24.0366,-0.751938,0.828369,0,-650.407,626.409,-0.0078125,-0.133858,46.7884,3063031
0.14093,-0.0534668,0.735046,-1.97769,0.608521,20.0812,-0.754852,0.824127,0,-604.631,676.155,-0.0078125,0.0078125,46.8076,3063047
0.697754,-0.162415,0.896973,3.19473,11.1055,16.2779,-0.758209,0.820221,0,-643.149,413.112,-0.0078125,0.0078125,46.8279,3063061
0.0334473,-0.349487,0.699402,9.5842,-2.28195,6.08521,-0.765549,0.813446,0,-652.188,543.36,-0.0078125,0.0078125,46.8478,3063091
-0.00244141,-0.0440674,0.994995,-3.95538,-6.99799,-5.93307,-0.772949,0.808258,0,-541.682,575.937,-0.0078125,0.0078125,46.8726,3063121
0.128052,-0.0459595,0.942383,-1.67343,-2.58621,1.21704,-0.776688,0.805954,0,-432.966,592.593,-0.0078125,0.0078125,46.8879,3063136
-0.0803223,0.012085,0.917725,4.86816,-6.38947,0.760651,-0.78038,0.803741,0,-470.135,557.958,-0.0078125,0.0078125,46.9068,3063151
0.117859,-0.0811768,0.846436,-0,-1.5213,-1.82556,-0.784042,0.80162,0,-587.027,536.021,-0.0078125,0.0078125,46.9271,3063167
-0.0629883,-0.0506592,0.837708,-1.5213,-3.19473,-1.67343,-0.791245,0.797928,0,-543.449,569.444,-0.0078125,0.0078125,46.9483,3063196
-0.0357666,-0.0376587,1.00116,-0.45639,-0.30426,0.45639,-0.794647,0.796234,0,-517.679,505.791,-0.0078125,0.0078125,46.9672,3063211
0.0519409,-0.142273,0.899048,0.608521,0.30426,-2.43408,-0.797958,0.794708,0,-409.467,501.178,-0.0078125,0.0078125,46.9872,3063227
0.161194,-0.0415649,1.01099,0.608521,-0.912781,-1.21704,-0.804428,0.792236,0,-478.973,437.512,-0.0078125,0.0078125,47.0097,3063256
0.0168457,-0.0504761,0.846008,2.73834,1.21704,-2.89047,-0.807709,0.791199,0,-462.214,473.429,-0.0078125,0.0078125,47.0276,3063271
0.0401001,-0.0947266,0.964905,-0,-2.12982,1.21704,-0.810959,0.790314,0,-436.186,441.969,-0.0078125,0.0078125,47.0486,3063287
-0.112122,-0.034668,1.03632,-1.97769,-5.17242,-1.82556,-0.817352,0.789017,0,-422.717,405.055,-0.0078125,0.0078125,47.0674,3063316
0.0732422,-0.017395,0.95752,0.30426,3.19473,-0.30426,-0.820419,0.788498,0,-381.105,364.724,-0.0078125,0.0078125,47.0877,3063331
0.0595703,-0.0958862,0.874329,4.86816,2.73834,-1.36917,-0.823502,0.788101,0,-404.008,363.762,-0.0078125,0.0078125,47.1076,3063346
0.154968,-0.0546875,0.966431,-2.28195,1.5213,1.97769,-0.829712,0.787781,0,-328.942,366.764,-0.0078125,0.0078125,47.1277,3063376
0.0970459,-0.0762329,0.89502,1.82556,4.10751,-0.608521,-0.832932,0.787842,0,-345.22,359.202,-0.0078125,0.0078125,47.1487,3063391
0.0270996,-0.0777588,0.914978,-0.760651,-0,-0.15213,-0.836166,0.788071,0,-375.171,388.795,-0.0078125,0.0078125,47.1693,3063407
-0.017334,-0.0426025,1.01202,2.58621,3.34686,1.36917,-0.839325,0.788422,0,-335.785,291.992,-0.0078125,0.0078125,47.1879,3063421
-0.0419312,-0.0627441,1.03125,2.89047,3.0426,0.30426,-0.845459,0.789474,0,-313.313,308.366,-0.0078125,0.0078125,47.207,3063451
0.0645752,-0.0532837,0.924744,-0.15213,-0,-0.760651,-0.848419,0.790192,0,-287.786,268.438,-0.0546875,0.0078125,47.2271,3063466
-0.0148315,-0.0240479,0.919189,2.28195,1.67343,0.15213,-0.851349,0.79097,0,-263.137,236.144,-0.09375,0.0078125,47.2469,3063481
-0.0192871,-0.0758057,0.936401,1.82556,0.15213,0.30426,-0.857071,0.792816,0,-267.08,273.751,-0.15625,0.0078125,47.2669,3063511
0.0563965,-0.150024,0.922485,-0,-0.15213,0.30426,-0.859833,0.793976,0,-217.647,250.329,-0.179688,0.0078125,47.287,3063526
-0.0263062,-0.109741,0.923218,1.67343,3.65112,0.760651,-0.862534,0.795319,0,-176.348,209.802,-0.1875,0.0078125,47.307,3063541
0.135071,-0.217163,0.89801,-1.36917,-0.608521,5.62881,-0.867722,0.798874,0,-158.777,164.974,-0.195312,0.0078125,47.3285,3063571
0.0894775,-0.203735,0.930664,-0.30426,-1.36917,-0.608521,-0.870346,0.801163,0,-121.531,151.696,-0.195312,0.0078125,47.3478,3063586
-0.0144043,-0.161499,0.931396,0.760651,0.45639,1.97769,-0.875366,0.806396,0,-93.0246,136.395,-0.195312,0.0078125,47.3676,3063616
0.00280762,-0.134644,0.967163,1.36917,1.36917,4.25964,-0.877716,0.809296,0,-62.6663,108.521,-0.195312,0.0078125,47.3878,3063631
-0.0352783,-0.100891,0.970825,-0.760651,0.45639,4.71603,-0.879944,0.812363,0,-48.4528,56.4972,-0.21875,0.0078125,47.4077,3063646
0.0732422,-0.11554,0.935974,0.15213,-0.30426,2.43408,-0.882126,0.815582,0,-32.6836,40.9221,-0.242188,0.0078125,47.4272,3063661
0.0308228,-0.124084,0.909668,0.15213,-0.15213,2.58621,-0.886383,0.822586,0,-32.6836,40.9221,-0.257812,0.0078125,47.4471,3063691
0.0948486,-0.0327759,0.985168,-0.760651,-0.30426,2.89047,-0.888504,0.826309,0,-8.57634,40.9221,-0.265625,0.0078125,47.4671,3063706
0.00640869,-0.0119019,0.952454,0.760651,1.5213,-0,-0.892792,0.833817,0,29.3916,5.37131,-0.28125,0.0078125,47.4939,3063736
0.00372314,-0.0227051,0.970886,-0,-0.30426,1.67343,-0.894882,0.833817,0,36.3465,-5.12029,-0.304688,0.0078125,47.5072,3063751
0.0545044,-0.024231,0.924316,-0.30426,-0.30426,1.67343,-0.896957,0.833847,0,47.2874,-40.0936,-0.351562,0.0078125,47.5287,3063766
0.0236206,-0.031311,0.966553,0.608521,-0.912781,0.30426,-0.896957,0.833923,0,77.5573,-50.4724,-0.398438,0.0078125,47.547,3063781
-0.0303345,-0.093811,0.929504,0.30426,-0.30426,4.10751,-0.896774,0.834274,0,103.039,-58.897,-0.421875,0.0078125,47.5671,3063811
-0.0714111,-0.0794067,0.969299,0.45639,0.15213,7.30225,-0.896515,0.834579,0,122.809,-91.9092,-0.4375,0.0078125,47.5872,3063826
0.00939941,-0.130981,0.966187,1.67343,0.608521,8.82355,-0.895599,0.835449,0,162.545,-110.636,-0.453125,-0.0629921,47.6073,3063856
0.0332031,-0.0821533,0.915527,0.15213,-0.760651,10.1927,-0.89505,0.836075,0,229.922,-142.844,-0.46875,-0.19685,47.6271,3063871
-0.1297,-0.0636597,0.970886,-0.760651,-1.21704,15.0609,-0.894363,0.836761,0,223.641,-114.909,-0.46875,-0.401575,47.6471,3063886
0.10614,-0.0969238,0.928955,1.82556,0.760651,17.6471,-0.893616,0.837555,0,250.401,-70.6706,-0.46875,-0.535433,47.6675,3063901
-0.0877686,0.0813599,1.05115,-1.36917,-2.58621,25.8621,-0.891571,0.838974,0,273.632,50.3654,-0.484375,-0.543307,47.6878,3063931
-0.158875,0.062439,0.81427,0.608521,-1.36917,35.5984,-0.890244,0.839447,0,371.292,222.005,-0.507812,-0.559055,47.7077,3063946
-0.858521,0.180786,1.01489,-2.43408,3.80325,52.3328,-0.886108,0.839554,0,235.012,295.74,-0.53125,-0.582677,47.7276,3063976
-0.368225,0.105164,1.21271,-1.21704,3.95538,59.635,-0.882858,0.838959,0,292.933,413.155,-0.53125,-0.614173,47.7475,3063991
0.0646973,0.0627441,0.718628,8.36716,-0.45639,65.1117,-0.87941,0.838196,0,329.565,354.233,-0.539062,-0.629921,47.7691,3064006
0.619934,-0.0481567,0.921021,-5.47668,-9.73633,78.1949,-0.873444,0.8367,0,415.489,476.088,-0.539062,-0.629921,47.7878,3064036
-0.589294,0.176514,0.892212,7.30225,4.41177,84.7365,-0.870758,0.835938,0,483.571,624.161,-0.554688,-0.637795,47.8068,3064051
-0.872314,0.174744,1.13916,3.49899,0.608521,89.7568,-0.867188,0.834656,0,517.17,396.991,-0.5625,-0.653543,47.8275,3064066
-0.684143,0.114136,1.01978,0.45639,1.67343,103.601,-0.857635,0.830856,0,515.411,350.527,-0.570312,-0.661417,47.8487,3064096
-0.00390625,-0.02771,1.00049,2.43408,1.82556,106.947,-0.852066,0.828568,0,453.412,716.255,-0.585938,-0.661417,47.8711,3064111
0.320007,-0.0653687,0.931885,5.32455,-4.41177,112.424,-0.84668,0.826431,0,368.297,508.802,-0.601562,-0.661417,47.888,3064126
0.0669556,0.102295,1.5379,-7.30225,-2.89047,121.856,-0.836533,0.822433,0,356.462,596.801,-0.625,-0.669291,47.9076,3064156
-0.885437,0.153625,0.994507,8.67142,4.41177,128.398,-0.8311,0.820068,0,375.961,876.847,-0.640625,-0.685039,47.9275,3064171
-0.499695,0.127991,1.05737,-0.760651,-0.45639,133.114,-0.82486,0.817169,0,687.971,553.006,-0.648438,-0.708661,47.952,3064186
-0.243164,0.0844727,1.0874,3.49899,-0.30426,137.069,-0.818222,0.813934,0,496.598,790.42,-0.648438,-0.716535,47.9677,3064201
0.23468,0.0217285,0.818542,7.60651,3.0426,143.915,-0.805359,0.807816,0,603.355,637.979,-0.65625,-0.716535,47.9878,3064231
-0.566345,0.169312,1.56195,3.0426,-2.12982,148.631,-0.798965,0.804657,0,685.848,849.041,-0.664062,-0.716535,48.0069,3064246
-0.444275,-0.019165,0.659119,10.3448,-1.5213,152.434,-0.792023,0.801132,0,596.001,654.022,-0.671875,-0.716535,48.0271,3064261
0.161255,-0.00665283,1.16559,5.17242,-7.30225,161.258,-0.777954,0.793991,0,699.594,546.852,-0.679688,-0.716535,48.047,3064291
-0.507812,0.114807,0.962341,6.84586,-3.0426,162.475,-0.770889,0.790329,0,624.649,653.019,-0.679688,-0.716535,48.0669,3064306
-0.0330811,0.0498047,1.05927,6.23734,-0.608521,168.256,-0.75592,0.782104,0,634.699,662.712,-0.679688,-0.716535,48.0898,3064336
-0.174316,0.0960693,0.950256,6.38947,-0.760651,177.84,-0.711456,0.756622,0,618.908,586.287,-0.609375,-0.590551,48.1799,3064426
-0.174316,0.0960693,0.950256,6.38947,-0.760651,177.84,-0.711456,0.756622,0,657.009,963.345,-0.609375,-0.590551,48.1872,3064426
-0.121033,0.0686646,1.09167,1.5213,-6.5416,178.144,-0.704041,0.752136,0,677.736,667.245,-0.523438,0.0078125,48.2069,3064441
-0.0736694,0.0687866,0.935791,7.91077,-7.91077,179.361,-0.689377,0.743073,0,599.359,524.866,-0.523438,0.0078125,48.2275,3064471
0.119202,0.0627441,1.0708,6.23734,-7.30225,178.601,-0.68219,0.738525,0,662.756,360.815,-0.515625,0.0078125,48.2497,3064486
-0.0131226,0.11438,1.28754,2.89047,-13.8438,171.603,-0.668259,0.729401,0,659.239,334.487,-0.492188,0.0078125,48.2724,3064516
0.0517578,0.160156,0.918945,1.82556,-2.58621,167.952,-0.66153,0.724747,0,579.341,215.794,-0.398438,0.0078125,48.2873,3064531
-0.0462036,0.165466,1.33643,3.80325,-2.73834,164.453,-0.654999,0.719986,0,673.627,129.645,-0.257812,0.0078125,48.3075,3064546
0.260681,0.0827637,0.930603,1.82556,-2.89047,155.477,-0.642685,0.710632,0,616.922,68.2585,-0.148438,0.0078125,48.3276,3064576
0.0192871,0.126892,0.911438,6.84586,1.67343,149.544,-0.636917,0.706131,0,551.177,68.2585,-0.148438,0.0078125,48.3477,3064591
0.2453,0.113342,0.902466,-3.49899,-6.08521,143.763,-0.631424,0.701691,0,478.847,11.0931,-0.0234375,0.0078125,48.3676,3064606
0.173645,0.154175,0.821411,-0.608521,-3.34686,129.767,-0.621292,0.693268,0,431.211,-37.8082,-0.0078125,0.0078125,48.3877,3064635
0.224365,0.381592,1.26697,1.21704,1.36917,118.814,-0.616837,0.689148,0,469.682,-36.6852,-0.0078125,0.0078125,48.408,3064650
0.143188,0.273315,0.957275,5.02029,5.02029,103.905,-0.6129,0.684998,0,580.939,-32.8845,-0.0078125,0.0078125,48.4275,3064666
0.166565,0.102966,0.980591,3.95538,1.5213,101.319,-0.605774,0.676941,0,430.849,-28.1422,-0.0078125,0.0078125,48.4478,3064695
0.145996,0.101379,0.915527,2.73834,-0.760651,95.5377,-0.602554,0.673096,0,453.772,-28.0043,-0.0078125,0.0078125,48.4676,3064710
-0.00836182,0.101929,0.941895,5.93307,2.28195,88.2355,-0.599487,0.669266,0,422.226,-26.3129,-0.0078125,0.0078125,48.4876,3064726
0.0366211,0.127441,0.943237,2.12982,1.06491,77.13,-0.59407,0.662064,0,376.067,-33.6372,-0.0078125,0.0078125,48.5081,3064755
0.206604,0.0625,0.925903,3.80325,0.30426,73.3267,-0.591675,0.65863,0,369.154,-39.5753,-0.0078125,0.0078125,48.5278,3064770
0.212769,0.0838013,0.891785,2.28195,-1.21704,69.5235,-0.589508,0.655396,0,351.537,-50.4649,-0.0078125,0.0078125,48.5475,3064786
0.276917,0.0692139,0.94928,0.760651,-1.5213,59.3307,-0.585831,0.649567,0,288.234,-59.9202,-0.0078125,0.0078125,48.5672,3064815
0.107361,0.177551,1.08398,1.82556,2.89047,53.5498,-0.584366,0.646927,0,262.992,-74.3976,-0.0078125,0.0078125,48.5891,3064830
0.167725,0.0765991,0.884155,1.21704,-0.912781,49.2902,-0.583115,0.644363,0,234.915,-77.286,-0.0078125,0.0078125,48.6071,3064846
0.27771,0.125244,0.956116,0.15213,0.760651,45.1826,-0.582108,0.642014,0,206.449,-75.6181,-0.0078125,0.0078125,48.6275,3064860
0.335938,0.104065,1.01569,-1.06491,-0.15213,33.1644,-0.580841,0.637939,0,171.615,-85.5765,-0.0078125,0.0078125,48.6478,3064890
0.105591,0.143555,0.940125,0.912781,1.06491,26.6228,-0.580597,0.6362,0,149.047,-92.8242,-0.0078125,0.0078125,48.6679,3064906
0.210388,0.0550537,0.869812,0.15213,-0.15213,15.0609,-0.580719,0.633194,0,131.509,-97.4977,-0.0078125,0.0078125,48.6873,3064935
0.299805,0.133667,1.05157,-1.5213,0.608521,7.15012,-0.581116,0.632034,0,103.118,-109.341,-0.0078125,0.0078125,48.7141,3064950
0.131531,0.0765991,0.832397,2.73834,0.45639,-1.5213,-0.581741,0.631058,0,87.7324,-91.7671,-0.0078125,0.0078125,48.7277,3064966
0.048584,0.0767822,0.958679,-0.30426,-0.30426,2.43408,-0.583191,0.62883,0,90.4629,-74.5773,-0.0078125,0.0078125,48.7477,3064995
0.0245361,0.113159,0.917175,3.49899,3.34686,-1.21704,-0.58403,0.627625,0,75.675,-68.1081,-0.0078125,0.0078125,48.7678,3065010
-0.00750732,0.0720215,0.995544,-1.06491,-1.06491,0.45639,-0.584946,0.626373,0,54.0434,-60.2025,-0.0078125,0.0078125,48.7903,3065026
-0.00213623,0.105896,0.989502,0.45639,0.45639,-0.15213,-0.586914,0.623718,0,40.6945,-52.9675,-0.0078125,0.0078125,48.8071,3065055
0.0508423,0.0735474,0.912231,0.912781,1.21704,-0.30426,-0.588013,0.622345,0,22.5237,-44.8111,-0.0078125,0.0078125,48.8288,3065070
-0.0119019,0.121704,0.96405,-1.06491,-1.21704,0.30426,-0.589203,0.620926,0,21.0959,-34.4893,-0.0078125,0.0078125,48.8471,3065086
0.0623779,0.0782471,0.964905,0.15213,1.06491,0.15213,-0.590469,0.619461,0,21.0959,-26.5911,-0.0078125,0.0390625,48.8672,3065100
0.0131226,0.103333,0.926697,0.15213,0.15213,-0.15213,-0.594788,0.6147,0,11.1612,-26.5911,-0.0078125,0.0703125,48.8976,3065146
0.0131226,0.103333,0.926697,0.15213,0.15213,-0.15213,-0.594788,0.6147,0,11.1612,-26.5911,-0.0078125,0.117188,48.9071,3065146
0.00933838,0.0596313,0.92926,1.06491,1.21704,-0.15213,-0.598007,0.611328,0,11.1612,-26.5911,-0.0078125,0.125,48.9271,3065175
0.0102539,0.0304565,0.966553,-0.30426,-0.45639,0.45639,-0.598007,0.609604,0,11.1612,-26.5911,-0.0078125,0.125,48.9476,3065190
0.0253296,0.0237427,0.936279,0.760651,0.760651,-0.760651,-0.598007,0.607895,0,11.1612,-4.27451,-0.0078125,0.125,48.9676,3065206
0.0284424,-0.0778809,0.931519,1.5213,1.06491,-1.21704,-0.59787,0.604431,0,11.1612,-29.6543,-0.0078125,0.125,48.9908,3065235
0.0523071,-0.0578003,0.938904,-0.45639,-0.608521,-1.21704,-0.597672,0.602798,0,11.1612,-32.3464,-0.0078125,0.125,49.0082,3065250
-0.00213623,0.0228882,0.931519,-1.5213,-0.45639,0.15213,-0.597397,0.601212,0,11.1612,-32.3464,-0.0078125,0.125,49.0277,3065266
0.0165405,0.053833,0.954834,0.45639,0.30426,0.30426,-0.597137,0.599594,0,11.1612,-15.9045,-0.0078125,0.125,49.0495,3065295
-0.0184326,0.0534058,0.934875,-0,-0.15213,-1.21704,-0.597137,0.599564,0,4.15307,-12.5072,-0.0078125,0.125,49.0688,3065310
0.0374146,0.0140991,0.949646,0.912781,0.608521,-1.5213,-0.597137,0.599518,0,3.93881,-12.9988,-0.0078125,0.132812,49.0879,3065326
-0.00616455,0.00836182,0.966064,-0.912781,-0.608521,1.97769,-0.597122,0.599487,0,4.56922,-15.4089,-0.0078125,0.140625,49.1073,3065355
0.0222778,0.0151978,0.933594,0.45639,-0,0.760651,-0.597061,0.599487,0,15.1159,-15.1936,-0.0078125,0.171875,49.1269,3065370
0.0109863,0.000366211,0.965515,0.15213,0.760651,-0,-0.596985,0.599487,0,16.7163,-16.855,-0.0078125,0.179688,49.1471,3065386
0.0333862,0.0415649,0.980713,-0,0.45639,-0.30426,-0.596802,0.599487,0,16.1055,-22.103,-0.0078125,0.1875,49.1687,3065415
0.0182495,0.0316162,0.921448,0.608521,0.45639,0.15213,-0.596802,0.599487,0,17.2026,-24.2812,-0.0078125,0.195312,49.1874,3065430
0.0280151,-0.0507202,0.968994,0.608521,-0,-0.45639,-0.596756,0.599533,0,18.5379,-33.5472,-0.0078125,0.210938,49.2075,3065445
0.0170898,0.0742188,0.972595,-1.82556,-2.12982,0.608521,-0.596527,0.599594,0,22.2289,-27.0266,-0.0078125,0.21875,49.2277,3065475
0.0871582,0.0343628,0.935852,1.06491,1.97769,1.97769,-0.596481,0.59964,0,36.5903,-24.829,-0.0078125,0.234375,49.2476,3065490
-0.0115967,-0.0541992,0.941589,1.06491,0.45639,-0.608521,-0.59639,0.599731,0,32.8816,-21.9391,-0.0078125,0.265625,49.2693,3065505
-0.0681763,0.0214233,0.95874,-2.12982,-1.21704,-1.5213,-0.596207,0.599792,0,32.7103,-23.6822,-0.0078125,0.320312,49.2877,3065520
0.0787964,-0.0478516,0.964172,2.58621,1.97769,-0.45639,-0.59581,0.599945,0,40.1291,-35.1048,-0.0078125,0.351562,49.3102,3065550
0.0484009,-0.0280762,0.920105,-1.21704,-0.912781,-0.45639,-0.595551,0.600159,0,50.4307,-50.8978,-0.0078125,0.351562,49.3275,3065565
-0.0557251,-0.0142822,0.955627,-1.82556,-1.21704,-2.89047,-0.59523,0.600388,0,64.3043,-72.6895,-0.0078125,0.351562,49.347,3065580
0.0568848,-0.0828247,0.930237,-0.45639,-0.45639,-2.43408,-0.594284,0.601059,0,77.8707,-104.319,-0.0078125,0.351562,49.3669,3065610
-0.00964355,-0.0526123,0.924561,-1.36917,-0.15213,-3.0426,-0.593658,0.601517,0,97.4013,-114.138,-0.0078125,0.351562,49.3874,3065625
-0.0284424,-0.0472412,0.949158,1.36917,2.28195,-2.43408,-0.59201,0.602539,0,122.638,-122.212,-0.0078125,0.359375,49.4076,3065655
-0.0336914,-0.0674438,0.931274,0.760651,-1.67343,-1.5213,-0.590988,0.603058,0,126.674,-146.812,-0.0078125,0.359375,49.428,3065670
0.0432129,-0.0458374,0.973572,0.15213,-0.45639,-1.5213,-0.589874,0.603622,0,134.761,-166.27,-0.0078125,0.359375,49.448,3065685
-0.0297241,0.022583,0.912598,-1.67343,-3.19473,-1.67343,-0.587372,0.60498,0,162.722,-192.458,-0.078125,0.359375,49.4677,3065715
0.0378418,-0.00738525,1.00378,-0,-0.912781,-0.608521,-0.587372,0.605667,0,165.787,-238.257,-0.101562,0.367188,49.4878,3065730
0.0478516,-0.0559082,0.93103,1.82556,1.06491,-0.30426,-0.587326,0.60643,0,172.497,-193.06,-0.101562,0.367188,49.51,3065745
0.00976562,-0.0307007,1.02008,-0.30426,-0.912781,-4.25964,-0.586975,0.608017,0,165.07,-210.977,-0.101562,0.367188,49.5291,3065775
-0.0102539,-0.0487061,0.911377,1.36917,-1.67343,-2.73834,-0.58667,0.608017,0,180.899,-217.758,-0.101562,0.375,49.5468,3065790
0.0518188,-0.0055542,0.912476,0.912781,-0.608521,-1.21704,-0.586319,0.608047,0,197.558,-181.1,-0.101562,0.390625,49.568,3065805
0.0664062,0.0164185,1.01349,-0.45639,-1.5213,-2.43408,-0.585587,0.608307,0,206.237,-209.567,-0.101562,0.398438,49.587,3065835
0.0542603,-0.0355225,0.924438,2.28195,1.82556,-3.19473,-0.58522,0.608536,0,197.707,-253.197,-0.101562,0.40625,49.6105,3065850
-0.0372925,-0.0446777,0.928833,0.760651,0.30426,-5.62881,-0.584778,0.608795,0,217.789,-300.327,-0.101562,0.40625,49.6274,3065865
-0.0487671,0.0339966,0.931519,1.5213,-0.15213,-6.08521,-0.584274,0.609512,0,234.423,-238.533,-0.101562,0.40625,49.6473,3065895
-0.0380249,0.0316772,0.979919,-0.45639,-0,-5.78094,-0.584274,0.609802,0,225.667,-282.654,-0.109375,0.40625,49.6681,3065910
0.150269,-0.0631714,0.801575,0.760651,-0.760651,-4.41177,-0.584274,0.610168,0,274.153,-301.323,-0.109375,0.40625,49.6873,3065925
-0.083252,-0.0106812,0.92572,-2.28195,-3.49899,-5.02029,-0.584229,0.610977,0,240.958,-260.112,-0.109375,0.40625,49.7077,3065955
-0.0331421,0.0265503,1.07861,0.45639,1.06491,-3.65112,-0.584122,0.611252,0,257.845,-289.201,-0.117188,0.40625,49.7271,3065970
-0.0889893,0.0339966,0.976196,-0.15213,0.30426,-3.95538,-0.583984,0.611435,0,259.538,-305.974,-0.117188,0.40625,49.7472,3065985
0.0458374,0.00970459,1.04828,1.21704,-2.89047,-5.47668,-0.583527,0.611542,0,274.574,-289.96,-0.117188,0.40625,49.7671,3066015
0.0943604,-0.0130005,0.856018,-3.49899,-4.71603,-4.41177,-0.583527,0.611664,0,286.558,-327.279,-0.117188,0.40625,49.7873,3066030
-0.0272827,0.0463257,1.0495,0.30426,-2.89047,-2.28195,-0.583527,0.611801,0,245.308,-301.691,-0.117188,0.40625,49.8075,3066045
-0.0276489,0.00872803,1.04706,0.912781,-0.30426,-5.93307,-0.583603,0.612228,0,294.92,-296.921,-0.117188,0.40625,49.8307,3066075
-0.0273438,0.0098877,1.00507,4.25964,2.89047,-6.38947,-0.583603,0.612442,0,313.44,-324.67,-0.117188,0.40625,49.8475,3066090
-0.00567627,-0.0292358,0.87854,0.30426,-2.43408,-4.86816,-0.583572,0.61261,0,293.143,-321.316,-0.117188,0.40625,49.8698,3066105
0.119019,0.0272217,0.978699,2.12982,2.73834,-6.08521,-0.583572,0.613205,0,309.938,-344.78,-0.117188,0.40625,49.8887,3066135
-0.0272827,0.0090332,0.989136,-0.30426,-1.21704,-8.36716,-0.583633,0.613586,0,278.412,-367.728,-0.117188,0.40625,49.9083,3066150
0.0133057,0.0241089,0.905579,1.82556,-0,-7.45438,-0.583694,0.613937,0,392.704,-341.099,-0.125,0.40625,49.9278,3066165
-0.0975952,0.119568,0.970703,2.28195,-0,-5.32455,-0.583755,0.61438,0,286.348,-371.623,-0.125,0.40625,49.9493,3066195
0.167175,-0.0612183,0.926819,-1.36917,-5.47668,-7.75864,-0.583832,0.614532,0,273.56,-327.166,-0.125,0.40625,49.968,3066210
-0.168457,0.0395508,0.94635,1.5213,-3.19473,-6.69373,-0.583862,0.614685,0,321.497,-361.709,-0.125,0.40625,49.9878,3066225
0.224121,-0.0280151,0.858948,2.12982,-0.760651,-5.93307,-0.583755,0.614731,0,280.399,-369.809,-0.125,0.40625,50.0069,3066255
-0.116821,0.0650024,1.02765,-1.06491,-1.5213,-9.12781,-0.58374,0.614822,0,350.914,-375.242,-0.125,0.40625,50.0269,3066270
0.086853,-0.0314331,0.818665,-1.36917,-1.5213,-7.91077,-0.583725,0.614883,0,367.782,-404.768,-0.125,0.40625,50.0471,3066285
-0.157776,0.0313721,0.988281,1.36917,4.25964,-9.43207,-0.583801,0.615036,0,343.507,-401.679,-0.125,0.40625,50.068,3066315
0.114746,-0.059082,0.868347,-0.30426,1.82556,-11.4098,-0.583801,0.615021,0,304.104,-407.183,-0.125,0.40625,50.0885,3066330
0.250122,0.0703125,1.0849,-3.49899,-0.760651,-12.0183,-0.584351,0.615067,0,359.641,-332.198,-0.125,0.40625,50.15,3066390
-0.107849,0.0377808,0.740173,2.43408,-1.36917,-10.9534,-0.584671,0.615082,0,298.788,-453.196,-0.125,0.40625,50.1683,3066405
0.174744,-0.0151367,0.880432,-2.89047,-3.0426,-12.6268,-0.585022,0.615051,0,298.512,-394.656,-0.125,0.40625,50.1875,3066435
0.111023,0.0872192,0.957092,-1.06491,-3.65112,-12.9311,-0.585297,0.615234,0,344.181,-340.954,-0.132812,0.40625,50.2076,3066450
-0.268616,0.0800171,0.96582,2.43408,0.45639,-12.1704,-0.585587,0.61525,0,410.004,-252.089,-0.132812,0.40625,50.2276,3066465
-0.0759888,0.0551758,0.985596,-2.89047,-4.5639,-12.0183,-0.585922,0.614899,0,294.963,-370.398,-0.132812,0.40625,50.2475,3066495
0.297974,-0.020752,1.02545,1.21704,1.36917,-8.67142,-0.586136,0.614807,0,324.612,-451.498,-0.132812,0.40625,50.2677,3066510
0.11499,0.0221558,0.959717,4.71603,4.71603,-11.1055,-0.586472,0.61496,0,404.523,-431.555,-0.148438,0.40625,50.288,3066525
0.00244141,0.0170898,0.76123,-1.82556,-0,-6.69373,-0.587112,0.61496,0,295.534,-412.38,-0.15625,0.40625,50.3082,3066555
0.0313721,0.113342,1.1004,2.58621,3.19473,-5.78094,-0.587479,0.614868,0,379.86,-359.35,-0.15625,0.40625,50.3288,3066570
0.0720215,-0.0449829,0.944397,2.73834,1.06491,-8.21503,-0.587906,0.614792,0,347.301,-350.441,-0.15625,0.40625,50.3477,3066585
0.207886,-0.0465698,0.803955,4.25964,2.28195,-5.62881,-0.589325,0.614609,0,330.213,-325.087,-0.15625,0.40625,50.3814,3066630
0.207886,-0.0465698,0.803955,4.25964,2.28195,-5.62881,-0.589325,0.614609,0,334.846,-343.436,-0.15625,0.40625,50.3872,3066630
-0.0984497,0.0959473,1.00409,0.608521,-1.21704,-8.51929,-0.589844,0.614594,0,323.321,-422.502,-0.15625,0.40625,50.4092,3066645
-0.0363159,-0.0438232,0.94104,0.608521,2.12982,-2.58621,-0.590652,0.613907,0,354.252,-367.701,-0.15625,0.40625,50.4327,3066675
-0.0560303,0.0471802,0.926331,1.5213,3.65112,-6.38947,-0.590958,0.613434,0,366.912,-417.667,-0.15625,0.40625,50.4471,3066690
-0.0427246,0.0177002,1.01501,-3.80325,-3.65112,-5.02029,-0.591232,0.612869,0,337.747,-354.032,-0.15625,0.40625,50.4674,3066705
-0.0133057,-0.015686,0.961487,3.65112,0.608521,-2.58621,-0.591736,0.612274,0,328.677,-409.048,-0.15625,0.40625,50.4876,3066735
-0.0673218,0.0874634,1.0824,-5.17242,-2.28195,-1.21704,-0.591965,0.612198,0,363.121,-326.254,-0.15625,0.40625,50.5071,3066750
0.0178223,0.0554199,0.954834,0.912781,-2.28195,-1.67343,-0.592239,0.61203,0,392.049,-404,-0.15625,0.40625,50.5273,3066765
0.0603027,0.0223999,0.893066,-0,-2.12982,-2.28195,-0.592804,0.611649,0,363.207,-344.869,-0.15625,0.40625,50.5473,3066794
0.0446167,0.0599365,0.922302,-1.06491,-4.10751,-1.5213,-0.59314,0.611496,0,364.651,-353.588,-0.15625,0.40625,50.5677,3066809
-0.0362549,0.0203247,1.01892,2.12982,-1.06491,-2.43408,-0.593521,0.611313,0,333.578,-357.488,-0.15625,0.40625,50.5873,3066825
-0.0428467,0.0397339,1.00842,-1.36917,-2.58621,-2.89047,-0.594177,0.610901,0,355.278,-342.179,-0.15625,0.40625,50.6074,3066854
0.0852661,0.0739746,1.00446,-3.34686,-3.0426,-2.43408,-0.594543,0.610672,0,403.649,-375.869,-0.15625,0.40625,50.6279,3066869
-0.0377808,0.0467529,0.911926,-0.608521,1.21704,-2.12982,-0.594971,0.610428,0,285.669,-343.891,-0.15625,0.40625,50.6478,3066885
0.0771484,0.0366821,1.1012,-0.30426,3.34686,-2.12982,-0.595444,0.610168,0,341.466,-369.501,-0.15625,0.40625,50.6669,3066899
-0.0619507,0.129883,0.944153,-2.28195,-4.10751,-2.12982,-0.596542,0.609818,0,437.12,-391.543,-0.15625,0.40625,50.6869,3066929
0.0648804,0.0316162,0.908875,5.93307,1.5213,-0.30426,-0.597183,0.609589,0,361.5,-365.444,-0.15625,0.40625,50.7072,3066945
-0.1203,-0.00842285,0.973999,2.12982,-3.80325,-1.82556,-0.598602,0.609055,0,291.142,-339.098,-0.15625,0.40625,50.7278,3066974
0.0546875,0.0515137,0.838013,0.30426,-1.36917,-1.36917,-0.599289,0.608719,0,351.642,-353.732,-0.15625,0.40625,50.7471,3066989
0.0203857,-0.0448608,0.986145,6.5416,0.45639,-1.67343,-0.599976,0.608398,0,329.93,-378.537,-0.15625,0.40625,50.7699,3067005
-0.017395,0.0639038,0.987854,-3.65112,-5.93307,-1.82556,-0.601318,0.60788,0,327.006,-342.565,-0.15625,0.40625,50.7872,3067034
0.0609131,-0.0123291,0.921143,1.5213,-1.06491,-0.15213,-0.60202,0.60762,0,363.702,-384.882,-0.15625,0.40625,50.8096,3067049
-0.0418091,-0.0259399,0.843079,3.65112,2.12982,-3.0426,-0.602692,0.607391,0,350.809,-379.557,-0.15625,0.40625,50.8277,3067065
-0.00738525,-0.0652466,0.790466,5.02029,-0.30426,-1.82556,-0.603943,0.606781,0,378.702,-364.93,-0.15625,0.40625,50.8477,3067094
-0.0588989,0.0820923,1.12,-1.21704,-0.760651,-2.28195,-0.604507,0.60643,0,413.471,-369.44,-0.15625,0.40625,50.8677,3067109
-0.0230713,-0.0558472,0.892761,7.15012,5.47668,-3.49899,-0.605042,0.606018,0,342.912,-398.947,-0.15625,0.40625,50.8879,3067125
-0.0112305,0.0697632,0.942017,-1.06491,-4.25964,-1.5213,-0.60614,0.605255,0,384.113,-356.119,-0.15625,0.40625,50.9078,3067154
0.0793457,-0.00115967,0.950745,-0.912781,-3.19473,-1.06491,-0.606766,0.604904,0,365.057,-362.772,-0.15625,0.40625,50.9299,3067169
0.0591431,-0.0136719,0.835754,4.25964,-0.45639,-4.5639,-0.607422,0.60463,0,360.744,-414.534,-0.15625,0.40625,50.9473,3067185
0.0549316,0.052002,1.06061,-6.08521,-2.89047,-2.28195,-0.608887,0.604156,0,373.065,-450.562,-0.15625,0.40625,50.9672,3067214
0.161987,-0.0108032,0.780701,4.86816,0.912781,-3.49899,-0.609741,0.604034,0,349.944,-381.337,-0.15625,0.40625,50.9872,3067229
0.0183716,0.109802,0.930969,-2.89047,-2.58621,-4.25964,-0.610703,0.603989,0,395.71,-422.181,-0.15625,0.40625,51.0108,3067245
-0.0314331,0.0755615,1.09692,1.06491,1.67343,-5.32455,-0.612823,0.603836,0,328.839,-381.934,-0.0859375,0.40625,51.0274,3067274
0.0352783,-0.0481567,0.753052,3.19473,2.43408,-6.08521,-0.613922,0.603745,0,342.378,-488.424,-0.046875,0.414062,51.0481,3067289
-0.0230713,0.0940552,1.23981,-4.10751,-2.12982,-5.17242,-0.615005,0.603653,0,356.64,-405.474,-0.0234375,0.421875,51.0675,3067305
-0.119751,0.0825195,1.14209,1.67343,1.5213,-9.5842,-0.617386,0.603561,0,387.687,-474.057,-0.0078125,0.429688,51.0875,3067334
0.218445,-0.115295,0.798462,2.73834,-0.608521,-6.23734,-0.618576,0.603592,0,366.16,-400.633,-0.0078125,0.4375,51.1078,3067349
-0.149109,0.06604,1.01538,-2.43408,-1.36917,-4.5639,-0.619751,0.603683,0,356.221,-456.882,-0.0078125,0.4375,51.128,3067365
-0.0302734,-0.00665283,0.879456,3.19473,1.36917,-6.84586,-0.621994,0.60405,0,346.861,-444.553,-0.0078125,0.4375,51.1484,3067394
0.0397949,-0.0268555,1.05029,-3.95538,-0,-8.36716,-0.623062,0.604324,0,380.373,-435.483,-0.0078125,0.4375,51.171,3067409
0.0571289,-0.00610352,0.856934,-2.12982,-0.15213,-8.36716,-0.624115,0.60466,0,457.928,-462.46,-0.0078125,0.445312,51.1881,3067425
-0.123047,0.0175171,0.858276,-2.89047,-0.912781,-5.93307,-0.626099,0.605408,0,427.853,-438.577,-0.0078125,0.453125,51.2108,3067454
0.163147,-0.200562,1.00165,0.45639,3.34686,-5.93307,-0.626953,0.605865,0,459.654,-453.34,-0.0078125,0.46875,51.228,3067469
-0.114502,0.0968018,0.797058,0.30426,3.95538,-8.97568,-0.627731,0.606384,0,422.645,-470.09,-0.0078125,0.492188,51.2488,3067485
0.0170288,-0.0296021,0.88855,1.97769,1.21704,-3.49899,-0.628494,0.606812,0,483.349,-400.633,-0.0078125,0.507812,51.2669,3067499
0.0144653,-0.0910645,0.926636,-1.97769,1.82556,-7.30225,-0.629974,0.607666,0,418.06,-581.007,-0.0078125,0.539062,51.2874,3067529
-0.0809326,0.017395,1.05939,-3.0426,1.36917,-4.86816,-0.630615,0.608093,0,465.073,-482.288,-0.0078125,0.570312,51.3071,3067545
-0.0993042,0.0291748,1.07245,-4.86816,4.41177,-9.27994,-0.631592,0.608963,0,414.293,-425.324,-0.0078125,0.585938,51.327,3067574
0.0534668,-0.138611,0.956787,2.89047,3.65112,-10.6491,-0.632172,0.60997,0,464.059,-564.541,-0.0078125,0.59375,51.3573,3067604
-0.197388,-0.000610352,1.10815,-1.06491,5.17242,-11.5619,-0.632355,0.611191,0,556.483,-477.384,-0.0078125,0.59375,51.3897,3067634
-0.197388,-0.000610352,1.10815,-1.06491,5.17242,-11.5619,-0.632355,0.611191,0,495.884,-482.288,-0.0078125,0.59375,51.3925,3067634
0.21167,-0.0636597,0.659546,1.5213,6.08521,-10.8012,-0.632339,0.611771,0,564.669,-594.46,-0.0078125,0.59375,51.4073,3067649
-0.285461,0.0167236,1.22363,-1.06491,4.41177,-10.3448,-0.632263,0.612305,0,460.501,-517.665,-0.0078125,0.59375,51.4276,3067664
-0.0963135,0.0714111,1.09546,-6.5416,2.43408,-13.5396,-0.631943,0.613464,0,536.884,-587.924,-0.0078125,0.59375,51.4478,3067694
-0.0916138,-0.00299072,0.925903,-6.5416,7.30225,-10.0406,-0.631729,0.613937,0,605.822,-555.047,-0.0078125,0.59375,51.4675,3067709
-0.230042,0.0960083,1.02985,2.58621,-0.608521,-8.82355,-0.631439,0.614182,0,543.582,-530.546,-0.0078125,0.601562,51.4877,3067724
0.046814,-0.0255127,0.789001,-2.89047,1.36917,-6.84586,-0.630585,0.614288,0,430.413,-678.012,-0.0078125,0.609375,51.5081,3067754
-0.0098877,0.0353394,1.06287,3.0426,1.36917,-3.34686,-0.630127,0.614349,0,597.729,-599.592,-0.0078125,0.609375,51.5279,3067769
0.0580444,0.00305176,0.716614,-3.34686,4.41177,-2.58621,-0.6297,0.61441,0,563.016,-518.672,-0.0078125,0.609375,51.5485,3067784
-0.085022,-0.155518,1.10559,0.15213,1.06491,-3.80325,-0.628571,0.614487,0,496.438,-609.57,-0.0078125,0.609375,51.5668,3067814
0.0302734,0.0599976,0.958862,-1.97769,0.912781,-1.21704,-0.627823,0.614487,0,600.619,-725.005,-0.0078125,0.617188,51.5871,3067829
0.0349731,-0.123169,1.1275,6.38947,-0.30426,-3.49899,-0.627045,0.614532,0,641.334,-635.042,-0.0078125,0.625,51.6072,3067844
-0.0406494,-0.118591,1.11694,4.10751,-4.41177,-2.89047,-0.625305,0.614731,0,588.114,-646.245,-0.0078125,0.632812,51.629,3067874
-0.0140381,0.0220947,0.953003,1.36917,5.93307,-3.80325,-0.624298,0.614822,0,614.496,-671.75,-0.0078125,0.640625,51.6533,3067889
-0.0169067,-0.022583,1.01465,2.58621,-1.36917,-2.43408,-0.623276,0.614899,0,523.656,-611.621,-0.0078125,0.65625,51.6671,3067904
-0.0704956,0.0535278,1.06415,-0.760651,-1.21704,-2.43408,-0.621094,0.614822,0,719.994,-653.424,-0.0078125,0.664062,51.6875,3067934
-0.0443726,-0.128357,0.782715,4.41177,-7.60651,-5.32455,-0.619904,0.614716,0,649.773,-723.851,-0.0078125,0.664062,51.7095,3067949
0.0579224,-0.0523071,1.07263,-2.58621,-0.760651,-4.10751,-0.618591,0.614655,0,720.747,-756.287,-0.0078125,0.664062,51.7271,3067964
0.0754395,-0.0180054,1.02368,-1.06491,5.62881,-3.49899,-0.615723,0.614655,0,683.807,-805.769,-0.0078125,0.664062,51.7477,3067994
0.0159302,-0.0839233,0.802979,3.34686,3.80325,-7.30225,-0.614227,0.614746,0,651.954,-676.018,-0.0078125,0.664062,51.7671,3068009
-0.185913,-0.00183105,1.03668,0.15213,11.5619,-6.08521,-0.612595,0.614761,0,817.494,-683.13,-0.0078125,0.664062,51.7871,3068024
-0.0966187,-0.0401611,1.03967,2.73834,3.34686,-4.86816,-0.608917,0.614166,0,704.25,-722.726,-0.0078125,0.664062,51.8072,3068054
-0.259888,0.000793457,0.8349,1.06491,3.49899,-5.62881,-0.606842,0.613571,0,576.801,-652.848,-0.0078125,0.53125,51.8293,3068069
-0.110046,-0.0811157,1.17682,2.58621,8.21503,-4.71603,-0.604568,0.612793,0,639.857,-673.65,-0.0078125,0.320312,51.8499,3068084
-0.0930786,0.0847168,1.23651,-0,4.41177,-1.5213,-0.59993,0.610947,0,789.173,-568.65,-0.0078125,0.179688,51.8691,3068114
-0.0749512,0.160706,0.723633,-0.760651,7.45438,-2.58621,-0.597687,0.609741,0,800.032,-764.672,-0.0078125,0.0234375,51.889,3068129
-0.0953369,0.0956421,1.19861,-0,-4.5639,2.89047,-0.59552,0.608337,0,683.247,-698.714,-0.0078125,0.0078125,51.9075,3068144
-0.0823364,0.222717,0.84436,-0.608521,-5.32455,-1.5213,-0.591476,0.605362,0,671.885,-432.302,-0.0078125,0.0078125,51.9277,3068174
-0.305298,0.487549,0.972778,-4.25964,-3.49899,8.82355,-0.589767,0.603348,0,699.105,-750.835,-0.0078125,0.0078125,51.9487,3068189
0.0839233,0.197388,1.35327,-0.15213,5.47668,13.3875,-0.588333,0.600922,0,541.287,-613.648,-0.0078125,0.0078125,51.9685,3068204
0.293701,-0.00469971,0.673767,12.1704,5.02029,5.47668,-0.587128,0.598648,0,517.96,-598.104,-0.0078125,0.0078125,51.987,3068219
-0.129639,0.179321,0.922607,-5.78094,-8.0629,-1.06491,-0.584885,0.593979,0,589.171,-620.636,-0.0078125,0.0078125,52.007,3068249
0.165955,0.0597534,1.0321,4.10751,1.5213,3.49899,-0.583893,0.591461,0,577.684,-607.792,-0.0078125,0.0078125,52.0268,3068264
-0.0396729,0.101318,0.881958,-2.28195,0.608521,1.97769,-0.582275,0.586319,0,516.836,-576.352,-0.0078125,0.0078125,52.0473,3068294
0.112366,0.122375,0.891907,4.86816,6.5416,2.58621,-0.581635,0.583633,0,528.15,-590.528,-0.0078125,0.0078125,52.0669,3068309
0.122314,0.160461,1.02173,-0.760651,-5.17242,-0.45639,-0.581223,0.580978,0,534.331,-502.21,-0.0078125,0.0078125,52.0871,3068324
-0.0410767,0.1922,0.80835,4.41177,-3.65112,-2.43408,-0.581009,0.575592,0,480.677,-465.539,-0.0078125,0.0078125,52.1073,3068354
0.0947266,0.0808105,1.00397,3.65112,-6.38947,1.97769,-0.581146,0.572769,0,481.51,-464.922,-0.0078125,0.0078125,52.1273,3068369
-0.0204468,0.0981445,0.78418,6.23734,1.82556,0.912781,-0.581375,0.569931,0,500.263,-444.336,-0.0078125,0.0078125,52.1472,3068384
0.0777588,0.0875854,0.921692,4.41177,9.88846,3.0426,-0.582092,0.563843,0,405.096,-474.575,0.0629921,0.0078125,52.1774,3068414
0.0337524,0.16394,1.07599,-1.97769,0.760651,-1.06491,-0.582642,0.56073,0,411.65,-437.006,0.188976,0.0078125,52.1873,3068429
-0.0510254,0.198303,0.838745,7.30225,-6.99799,-7.15012,-0.585434,0.551056,0,98.8259,-371.699,0.188976,0.0078125,52.2323,3068474
-0.0510254,0.198303,0.838745,7.30225,-6.99799,-7.15012,-0.585434,0.551056,0,98.8259,-353.657,0.188976,0.0078125,52.2352,3068474
0.11145,0.180481,1.00214,-0.15213,-12.9311,-9.73633,-0.586807,0.547699,0,79.0042,-349.595,0.307087,0.0078125,52.2478,3068489
0.0673828,0.178711,0.823242,1.5213,1.5213,-8.82355,-0.590195,0.540863,0,12.0733,-305.862,0.354331,0.0078125,52.27,3068519
0.0800781,0.154358,0.878601,-2.12982,3.95538,-10.6491,-0.592194,0.537384,0,-100.291,-320.102,0.370079,0.0078125,52.2872,3068534
0.00250244,0.189636,0.962891,-4.41177,7.30225,-14.7566,-0.59436,0.533829,0,-138.159,-285.596,0.417323,0.0078125,52.3069,3068549
0.0585327,0.179138,1.00299,-2.58621,7.30225,-16.8864,-0.596695,0.530182,0,-209.396,-254.618,0.464567,0.0078125,52.3269,3068564
0.116394,0.189636,1.00519,1.5213,-2.89047,-18.712,-0.601944,0.52272,0,-286.845,-219.879,0.496063,0.0078125,52.3469,3068594
-0.00195312,0.174377,1.02625,-0,-4.10751,-19.1684,-0.604858,0.518906,0,-316.316,-215.008,0.511811,0.0078125,52.3669,3068609
0.100037,0.180298,0.848145,3.65112,-2.12982,-20.5376,-0.607941,0.515015,0,-340.084,-196.228,0.535433,0.0078125,52.3876,3068624
0.125916,0.193054,0.914368,-0.912781,1.67343,-23.5802,-0.614731,0.507187,0,-469.318,-167.056,0.559055,0.0078125,52.4071,3068654
0.0968018,0.163147,0.977905,-1.82556,7.15012,-25.8621,-0.618454,0.50325,0,-435.701,-146.276,0.590551,0.0078125,52.4273,3068669
0.0852661,0.165894,1.05817,-2.43408,3.49899,-27.8398,-0.62236,0.50325,0,-515.278,-116.354,0.622047,0.0078125,52.4482,3068684
0.112305,0.124146,1.02783,-1.21704,-3.95538,-28.9047,-0.630539,0.502975,0,-533.305,-110.348,0.629921,0.0078125,52.4695,3068714
0.0231934,0.149048,0.97821,4.25964,-3.19473,-29.9696,-0.634811,0.502792,0,-585.754,-93.1563,0.637795,0.0078125,52.4913,3068729
0.124268,0.141846,0.869812,1.21704,-5.47668,-31.9473,-0.639236,0.502579,0,-591.384,-54.7923,0.645669,0.0078125,52.507,3068744
-0.0388184,0.218201,0.920654,-3.19473,3.34686,-36.207,-0.648697,0.502075,0,-493.316,-40.0013,0.661417,0.0078125,52.5279,3068774
0.123474,0.126221,0.788635,-0.912781,5.78094,-37.5761,-0.653671,0.501709,0,-660.786,-32.6566,0.669291,0.0078125,52.5471,3068789
0.0595093,0.196655,1.03455,-3.19473,6.69373,-38.6411,-0.658813,0.501312,0,-656.297,-24.3385,0.669291,0.0078125,52.5671,3068804
0.109131,0.154541,1.17316,0.45639,-3.0426,-40.7709,-0.669617,0.500534,0,-597.336,-24.3385,0.677165,0.0078125,52.5911,3068834
0.126404,0.10675,0.928406,3.80325,-8.97568,-43.6613,-0.675232,0.500198,0,-635.082,-24.3385,0.677165,0.0703125,52.6074,3068849
0.131226,0.122314,0.766907,2.73834,-6.69373,-45.639,-0.681015,0.499924,0,-735.105,-5.05663,0.677165,0.078125,52.6273,3068864
0.00927734,0.101196,0.914368,-5.02029,7.75864,-51.1157,-0.686859,0.499207,0,-684.791,9.72656,0.677165,0.078125,52.6532,3068893
0.229553,0.0373535,1.17438,-4.25964,7.91077,-56.8967,-0.687271,0.498611,0,-786.782,23.4032,0.677165,0.078125,52.6821,3068924
0.118103,-0.139771,1.11359,2.89047,-5.32455,-66.1766,-0.687531,0.498657,0,-780.062,23.4032,0.677165,0.078125,52.6892,3068938
0.346191,-0.0823364,0.85498,4.41177,-13.0832,-75.0002,-0.68779,0.499069,0,-722.831,17.9313,0.685039,0.078125,52.7075,3068953
0.0100708,0.107178,0.816406,-3.49899,-11.4098,-77.2821,-0.68811,0.499649,0,-689.227,17.9313,0.685039,0.078125,52.7274,3068968
0.146484,0.013855,0.687317,-1.06491,-0.912781,-76.5215,-0.688507,0.500275,0,-811.491,11.12,0.685039,0.078125,52.7476,3068984
0.113892,0.086853,1.28217,-6.99799,9.73633,-86.2578,-0.68956,0.501938,0,-737.382,11.12,0.685039,0.101562,52.7675,3069013
0.1073,0.0239868,0.869141,-5.62881,7.60651,-93.2558,-0.69017,0.502884,0,-704.077,11.12,0.685039,0.15625,52.7874,3069028
-0.120728,0.129761,1.0495,-5.47668,-5.17242,-97.3633,-0.69075,0.503769,0,-798.021,11.12,0.685039,0.265625,52.8093,3069044
0.00726318,0.120361,1.25043,-4.86816,1.21704,-95.842,-0.691711,0.505173,0,-853.716,2.98781,0.685039,0.359375,52.8284,3069073
0.216187,-0.0172119,1.02399,0.760651,4.86816,-99.6452,-0.6922,0.50592,0,-760.803,-37.1203,0.685039,0.492188,52.8476,3069088
0.134888,-0.146301,1.00403,0.608521,-4.25964,-108.469,-0.692673,0.506927,0,-625.274,-42.0346,0.685039,0.5625,52.8675,3069104
0.149536,-0.0545654,0.878418,-3.95538,1.5213,-122.921,-0.6931,0.509674,0,-695.749,-127.01,0.685039,0.632812,52.8947,3069133
0.310913,-0.166321,1.09302,-5.17242,2.89047,-130.528,-0.693115,0.51149,0,-661.354,-155.261,0.685039,0.640625,52.9076,3069148
0.38385,-0.18042,0.760437,-2.73834,6.38947,-139.503,-0.693237,0.513794,0,-626.822,-234.39,0.685039,0.640625,52.9284,3069164
0.288452,-0.244141,1.04852,-0.912781,2.58621,-153.956,-0.693604,0.519714,0,-690.679,-345.781,0.685039,0.640625,52.9483,3069193
0.342957,-0.191956,0.918274,-0,-6.08521,-163.692,-0.693802,0.523361,0,-731.128,-363.914,0.685039,0.640625,52.969,3069208
0.295471,-0.131409,0.884583,-3.49899,-4.10751,-171.299,-0.694122,0.527451,0,-709.195,-396.157,0.685039,0.640625,52.9878,3069224
0.253174,-0.0922241,0.775452,-2.73834,3.95538,-184.99,-0.694702,0.53624,0,-589.015,-439.358,0.685039,0.640625,53.0095,3069253
0.252625,-0.057251,0.945251,-6.84586,11.1055,-192.597,-0.695099,0.540985,0,-662.493,-484.978,0.685039,0.640625,53.0276,3069268
0.230591,-0.00695801,1.03394,-13.2353,17.1907,-198.073,-0.695633,0.545914,0,-750.328,-466.092,0.685039,0.640625,53.0476,3069284
0.268921,-0.0314331,0.868774,-5.78094,-4.25964,-199.747,-0.697296,0.556046,0,-636.76,-659.957,0.685039,0.640625,53.0676,3069313
0.316467,-0.00976562,0.542603,-5.32455,4.86816,-206.441,-0.698486,0.561371,0,-718.417,-537.577,0.685039,0.578125,53.0895,3069328
0.216125,0.0529175,1.17419,-17.3428,-4.71603,-209.179,-0.69989,0.566803,0,-769.527,-598.498,0.685039,0.578125,53.1076,3069344
0.11615,0.116333,1.06512,-7.91077,-0.15213,-211.309,-0.702835,0.577408,0,-710.833,-547.405,0.685039,0.578125,53.1277,3069373
0.130371,0.0883179,0.908447,1.5213,4.86816,-210.852,-0.704391,0.58255,0,-674.627,-632.571,0.685039,0.578125,53.1477,3069388
-0.0744629,0.169373,0.846802,-6.38947,-3.0426,-210.852,-0.705948,0.58754,0,-815.295,-598.48,0.685039,0.578125,53.1677,3069404
0.122437,0.0982666,0.708191,-5.17242,-6.23734,-214.808,-0.708969,0.59697,0,-907.194,-598.659,0.685039,0.578125,53.1877,3069433
-0.0980225,0.178528,1.19604,-3.34686,2.43408,-215.416,-0.710449,0.601456,0,-771.278,-698.032,0.685039,0.578125,53.2076,3069448
0.197998,0.0707397,0.792603,3.0426,1.82556,-217.394,-0.711914,0.605774,0,-648.466,-816.327,0.685039,0.578125,53.2268,3069464
0.152283,0.0623779,0.737244,7.75864,4.10751,-214.503,-0.715149,0.614044,0,-643.397,-655.48,0.685039,0.578125,53.2478,3069493
0.108582,0.114136,0.788269,-1.06491,5.47668,-215.721,-0.716888,0.618042,0,-754.034,-639.611,0.685039,0.578125,53.2677,3069508
0.0343018,0.335388,1.08282,-8.67142,-3.80325,-216.329,-0.718689,0.62175,0,-687.616,-672.45,0.685039,0.578125,53.289,3069524
0.195312,0.199829,0.860596,-3.34686,5.17242,-216.025,-0.72258,0.628464,0,-719.476,-678.817,0.685039,0.578125,53.3072,3069553
0.189697,0.102844,0.976196,-2.89047,8.36716,-217.394,-0.724777,0.631577,0,-702.519,-619.54,0.685039,0.578125,53.3272,3069568
0.150635,0.207214,0.967285,-7.91077,5.32455,-217.698,-0.727112,0.634521,0,-710.757,-637.227,0.685039,0.578125,53.3474,3069584
0.0437012,0.246155,1.01801,-3.95538,4.41177,-217.09,-0.731781,0.639786,0,-746.241,-520.955,0.685039,0.578125,53.3705,3069613
0.213318,0.124817,1.19073,-5.93307,0.45639,-216.177,-0.734131,0.642075,0,-760.052,-639.857,0.685039,0.578125,53.3874,3069628
0.00476074,0.203125,0.846191,-3.0426,2.58621,-215.721,-0.736496,0.644165,0,-692.665,-618.487,0.685039,0.578125,53.4075,3069644
0.120789,0.190918,0.825378,-3.19473,8.97568,-218.307,-0.741333,0.647873,0,-706.614,-653.979,0.685039,0.53125,53.4274,3069673
-0.00317383,0.18158,1.03735,-5.32455,3.80325,-215.568,-0.743744,0.649414,0,-806.094,-711.668,0.685039,0.367188,53.4477,3069688
-0.147888,0.213257,0.855835,-4.25964,0.912781,-213.286,-0.745895,0.650711,0,-544.084,-629.267,0.685039,0.226562,53.4677,3069704
0.169617,0.22345,1.10083,-10.0406,-1.21704,-207.658,-0.749741,0.652634,0,-604.668,-499.788,0.685039,0.0625,53.4877,3069733
-0.260864,0.237061,0.95105,1.82556,-4.71603,-204.007,-0.751404,0.653214,0,-737.79,-448.863,0.685039,0.0078125,53.5077,3069748
-0.264587,0.324707,0.859924,-5.62881,6.23734,-196.552,-0.752533,0.653488,0,-773.844,-472.311,0.685039,0.0078125,53.5279,3069763
-0.304749,0.443848,0.755432,-3.34686,3.0426,-185.751,-0.753113,0.652985,0,-776.096,-394.672,0.685039,0.0703125,53.5476,3069793
-0.261963,0.441833,1.16052,-5.17242,-3.49899,-174.341,-0.752487,0.652069,0,-735.998,-371.333,0.685039,0.0703125,53.5706,3069808
-0.162048,0.335815,0.902222,-0.608521,3.19473,-170.842,-0.751343,0.650757,0,-740.878,-306.781,0.685039,0.171875,53.5868,3069823
-0.0320435,0.427917,1.06091,1.21704,6.38947,-162.171,-0.747894,0.64682,0,-547.151,-363.154,0.685039,0.257812,53.607,3069853
0.0178833,0.303589,0.618225,0.30426,1.5213,-155.629,-0.745758,0.644211,0,-757.318,-268.911,0.685039,0.273438,53.6272,3069868
-0.120911,0.291443,0.883789,2.73834,5.02029,-153.195,-0.743378,0.641281,0,-702.593,-218.274,0.685039,0.28125,53.6472,3069883
-0.118896,0.303955,1.07013,-4.86816,0.30426,-148.023,-0.737366,0.634735,0,-563.333,-322.165,0.685039,0.28125,53.6671,3069913
-0.0471191,0.0197144,0.658752,2.43408,8.21503,-147.87,-0.733902,0.631256,0,-654.772,-219.703,0.685039,0.28125,53.6875,3069928
0.130249,0.0640869,1.09454,1.06491,10.8012,-155.173,-0.730392,0.627777,0,-759.186,-215.692,0.685039,0.28125,53.708,3069943
-0.0577393,0.197205,0.929504,-4.71603,9.73633,-152.739,-0.723129,0.620483,0,-635.809,-214.774,0.685039,0.28125,53.7276,3069973
0.0303345,0.117493,0.821167,-4.5639,11.714,-151.217,-0.719223,0.616653,0,-770.802,-220.858,0.685039,0.28125,53.7494,3069988
0.143921,0.112976,1.19672,-5.32455,10.6491,-153.651,-0.715286,0.612747,0,-836.68,-202.088,0.685039,0.28125,53.7678,3070003
0.00567627,0.192688,1.14282,-13.5396,10.8012,-157.607,-0.707397,0.604523,0,-823.554,-218.594,0.685039,0.28125,53.788,3070033
0.0994873,0.142395,1.10876,-10.8012,7.15012,-158.367,-0.703278,0.60022,0,-659.848,-217.711,0.685039,0.289062,53.8077,3070048
0.0841064,0.0828857,1.04266,-3.95538,3.65112,-161.106,-0.694778,0.591537,0,-883.9,-228.639,0.685039,0.296875,53.838,3070078
-0.0722656,0.106934,0.64502,-4.86816,-4.86816,-160.802,-0.690353,0.587158,0,-858.811,-236.79,0.685039,0.304688,53.8476,3070093
0.0548706,0.0606079,0.956848,-6.38947,-8.0629,-159.889,-0.685776,0.582794,0,-710.379,-230.856,0.685039,0.304688,53.8677,3070108
0.170288,0.113159,1.27032,-7.15012,-2.58621,-161.562,-0.681183,0.578369,0,-889.205,-252.934,0.685039,0.304688,53.8877,3070123
0.0130615,0.0205688,0.786133,0.30426,2.73834,-163.844,-0.671829,0.569351,0,-658.48,-244.403,0.685039,0.328125,53.9099,3070153
-0.125488,0.109253,1.09564,1.06491,6.08521,-165.061,-0.666931,0.564911,0,-694.734,-225.841,0.685039,0.34375,53.9276,3070168
-0.0128174,0.105713,1.02307,-8.21503,-1.82556,-165.365,-0.661774,0.560547,0,-651.721,-250.325,0.685039,0.367188,53.9469,3070183
0.0759277,0.105469,0.919128,-3.49899,-0.15213,-165.67,-0.651291,0.551682,0,-673.627,-294.824,0.685039,0.382812,53.9669,3070213
-0.0947876,0.0136719,0.856567,-3.49899,-2.28195,-169.017,-0.64592,0.547272,0,-830.841,-258.031,0.685039,0.382812,53.9871,3070228
0.211853,0.0436401,0.837097,-3.34686,5.93307,-172.059,-0.640503,0.542892,0,-686.908,-270.015,0.685039,0.382812,54.0081,3070243
0.0158081,0.0965576,0.933228,-5.17242,5.17242,-175.254,-0.629623,0.53389,0,-730.46,-344.887,0.685039,0.382812,54.027,3070273
0.145325,0.0488892,0.890503,-9.43207,-3.34686,-176.319,-0.624069,0.529343,0,-738.171,-310.361,0.685039,0.382812,54.047,3070288
0.0767212,0.116211,1.05988,-6.69373,4.25964,-175.862,-0.618484,0.524734,0,-714.643,-349.913,0.685039,0.382812,54.067,3070303
0.0818481,0.0368042,0.868835,-3.65112,5.32455,-181.643,-0.60701,0.520126,0,-730.327,-329.234,0.685039,0.382812,54.0872,3070333
-0.064209,0.198303,0.979858,-5.32455,6.84586,-183.317,-0.601059,0.520126,0,-665.757,-316.942,0.685039,0.398438,54.1084,3070348
0.0249023,0.163086,1.02344,-6.69373,2.28195,-183.165,-0.594833,0.520111,0,-697.934,-305.67,0.685039,0.421875,54.1275,3070363
-0.00799561,0.191772,1.01898,-7.60651,0.760651,-187.12,-0.582077,0.519821,0,-697.472,-383.215,0.685039,0.46875,54.1476,3070393
0.190186,0.0718384,0.914307,-5.62881,-2.89047,-187.272,-0.575516,0.519562,0,-709.22,-344.027,0.685039,0.492188,54.1676,3070408
0.123108,0.11731,1.04712,-6.69373,5.17242,-188.793,-0.568909,0.519196,0,-799.297,-410.223,0.685039,0.5,54.1888,3070423
0.126526,-0.0449829,0.684937,-1.67343,0.30426,-196.248,-0.555771,0.518768,0,-659.914,-332.132,0.606299,0.5,54.2083,3070453
0.0828247,0.0756226,1.01776,-8.97568,-3.0426,-197.313,-0.549255,0.518768,0,-684.603,-444.929,0.401575,0.5,54.2278,3070468
0.132874,0.104736,1.06085,-2.43408,8.67142,-200.508,-0.542648,0.518738,0,-695.265,-412.184,0.15748,0.421875,54.2469,3070483
0.249756,0.0810547,1.25671,-6.23734,-0.30426,-203.55,-0.529022,0.518433,0,-444.85,-444.85,-0.0078125,0.382812,54.267,3070513
0.179443,0.104614,0.624634,-1.36917,-2.28195,-205.832,-0.522141,0.518051,0,-285.474,-380.358,-0.0078125,0.351562,54.287,3070528
-0.0636597,0.187683,1.04272,-5.78094,-6.69373,-206.288,-0.515076,0.517639,0,-173.581,-479.927,-0.0078125,0.34375,54.3075,3070543
0.0196533,0.0197144,0.836182,-4.5639,-10.8012,-190.771,-0.499954,0.517303,0,-162.994,-457.697,-0.0078125,0.34375,54.3275,3070573
-0.143127,0.0549316,0.964844,-1.5213,-6.99799,-186.207,-0.492157,0.51741,0,-169.319,-433.887,-0.0078125,0.34375,54.3477,3070588
-0.145996,0.0841064,0.980042,-3.34686,-8.97568,-181.948,-0.484146,0.517792,0,-152.239,-474.248,-0.015625,0.34375,54.3683,3070603
-0.137695,0.083313,1.00299,-1.67343,-1.21704,-166.278,-0.467621,0.519333,0,-112.314,-429.369,-0.03125,0.34375,54.3895,3070633
-0.257385,0.0355835,0.915466,-0.912781,-3.19473,-158.367,-0.459076,0.520584,0,-82.052,-494.719,-0.0703125,0.34375,54.4068,3070648
-0.15863,0.0421143,1.047,-4.10751,-2.28195,-151.369,-0.450348,0.522186,0,-49.4124,-435.483,-0.140625,0.34375,54.4268,3070663
-0.171692,0.0290527,1.05853,-0.608521,-0.912781,-137.982,-0.432419,0.526306,0,-49.4124,-412.754,-0.203125,0.40625,54.4468,3070693
-0.0991821,0.0750732,0.907959,-2.28195,0.45639,-130.223,-0.423233,0.528793,0,-49.4124,-536.927,-0.234375,0.414062,54.4672,3070708
-0.147705,0.041626,0.922791,-3.19473,-3.49899,-124.442,-0.413895,0.531509,0,7.71537,-531.082,-0.265625,0.414062,54.487,3070723
-0.188721,-0.0112915,0.807251,1.36917,3.49899,-112.272,-0.39502,0.537689,0,106.448,-425.931,-0.296875,0.421875,54.5077,3070753
-0.15332,-0.0970459,1.01923,0.15213,3.19473,-105.578,-0.385544,0.54126,0,142.022,-500.776,-0.375,0.429688,54.5296,3070768
-0.223755,-0.050354,0.96875,0.30426,8.36716,-96.9069,-0.376083,0.545197,0,186.362,-489.225,-0.453125,0.429688,54.5475,3070783
-0.120483,-0.138611,0.884827,1.21704,2.73834,-78.8034,-0.357162,0.55423,0,232.656,-498.554,-0.492188,0.4375,54.5693,3070813
-0.0643311,-0.0881958,0.713501,-3.80325,3.80325,-71.0448,-0.347839,0.559143,0,283.451,-525.472,-0.5,0.4375,54.5876,3070828
-0.53772,-0.0854492,1.05023,-0.15213,-10.9534,-59.635,-0.338516,0.56456,0,363.003,-496.882,-0.5,0.4375,54.6082,3070843
-0.30542,-0.090332,0.927307,0.608521,-4.10751,-35.5984,-0.319717,0.577362,0,370.453,-412.609,-0.507812,0.4375,54.6294,3070873
-0.369446,-0.0393066,1.11707,-0.912781,-1.67343,-27.0792,-0.310287,0.584579,0,455.944,-491.618,-0.523438,0.4375,54.6526,3070888
-0.186218,-0.00823975,0.997681,-2.89047,0.15213,-16.2779,-0.300766,0.592224,0,548.591,-401.003,-0.53125,0.445312,54.6678,3070903
-0.145325,-0.0252686,1.01056,2.28195,3.80325,2.89047,-0.281693,0.608292,0,527.301,-413.77,-0.5625,0.453125,54.6901,3070933
0.186279,-0.130249,0.993408,4.86816,5.62881,2.12982,-0.272232,0.616501,0,524.976,-593.12,-0.585938,0.460938,54.7072,3070948
0.172363,-0.145996,0.984192,2.73834,-0.608521,3.80325,-0.253555,0.632858,0,497.661,-614.666,-0.601562,0.460938,54.7347,3070978
0.0320435,-0.0648193,0.794067,5.78094,-4.25964,-0.30426,-0.2444,0.640961,0,582.428,-466.995,-0.609375,0.460938,54.7471,3070993
-0.0151367,-0.0473022,1.10315,-1.67343,-6.5416,1.06491,-0.235306,0.649124,0,579.19,-623.208,-0.617188,0.460938,54.767,3071008
0.0609741,-0.116516,0.992981,3.95538,4.41177,-0.760651,-0.226273,0.657333,0,564.78,-571.821,-0.617188,0.460938,54.7878,3071023
0.0557861,-0.074707,0.930481,1.67343,3.80325,1.82556,-0.208313,0.673843,0,649.688,-548.05,-0.625,0.460938,54.8075,3071052
-0.117859,-0.177429,1.05988,7.30225,2.28195,-0.912781,-0.199448,0.68222,0,691.324,-801.86,-0.625,0.46875,54.8276,3071067
-0.0761108,-0.0596924,0.941833,-0.30426,-1.06491,1.82556,-0.190689,0.690826,0,665.69,-706.664,-0.625,0.46875,54.8475,3071083
-0.0714722,-0.0887451,0.994934,3.80325,2.58621,0.45639,-0.173599,0.708298,0,694.565,-700.624,-0.625,0.46875,54.8676,3071112
-0.0251465,-0.0925903,0.936829,3.34686,1.97769,0.912781,-0.165192,0.717209,0,656.944,-652.231,-0.625,0.46875,54.8876,3071127
0.0174561,-0.0853882,0.940002,3.34686,2.89047,0.30426,-0.156876,0.726181,0,804.085,-687.049,-0.625,0.46875,54.9076,3071143
0.010498,-0.052124,0.878052,1.5213,-5.62881,-0,-0.140427,0.744064,0,761.528,-746.129,-0.625,0.46875,54.9283,3071172
-0.00305176,-0.0690918,0.92981,2.12982,-6.69373,-1.82556,-0.132278,0.753052,0,742.914,-749.934,-0.625,0.46875,54.9476,3071187
-0.0856934,-0.00830078,0.921143,8.21503,1.67343,-0.30426,-0.116135,0.77121,0,738.28,-684.158,-0.554688,0.46875,54.968,3071217
0.0734253,-0.0717773,0.839294,2.12982,5.78094,-0,-0.108093,0.780396,0,673.605,-690.632,-0.53125,0.507812,54.9876,3071232
0.00115967,-0.0635986,1.01605,-2.28195,-3.34686,0.760651,-0.100098,0.789581,0,720.643,-781.983,-0.507812,0.546875,55.0087,3071247
0.0787354,0.0125732,0.863586,1.67343,6.08521,0.608521,-0.0921021,0.798767,0,706.215,-663.812,-0.5,0.5625,55.0282,3071263
0.0625,0.00231934,0.724609,4.71603,2.43408,-0.608521,-0.0757904,0.817184,0,725.531,-709.698,-0.492188,0.5625,55.0476,3071292
-0.0618286,0.0874023,1.08118,2.28195,0.912781,-0.760651,-0.0674744,0.826416,0,781.953,-606.851,-0.476562,0.5625,55.0676,3071307
-0.0744629,-0.0172119,0.355286,10.3448,7.45438,-4.5639,-0.0510406,0.84494,0,744.38,-840.937,-0.476562,0.5625,55.0876,3071337
0.13678,-0.00415039,0.675293,2.43408,2.28195,-5.32455,-0.0510406,0.854172,0,835.247,-882.029,-0.476562,0.5625,55.1071,3071352
-0.0119019,-0.0578613,1.02405,-0.45639,-8.82355,-0,-0.0510406,0.863388,0,661.945,-757.289,-0.460938,0.5625,55.127,3071367
-0.18811,0.0297852,1.21985,6.23734,2.89047,-0.760651,-0.0509796,0.872787,0,757.375,-831.359,-0.460938,0.5625,55.147,3071383
-0.0361328,0.0834351,0.837219,6.23734,1.97769,-0.760651,-0.0504761,0.892303,0,809.094,-971.44,-0.429688,0.5625,55.1678,3071412
0.184937,0.059021,1.03918,-1.67343,-0.30426,-1.5213,-0.0500336,0.902069,0,734.026,-954.062,-0.335938,0.5625,55.1871,3071427
-0.253845,0.212402,0.979248,-2.73834,0.45639,-2.28195,-0.0484314,0.921753,0,779.12,-793.651,-0.21875,0.5625,55.2084,3071457
0.0477295,0.053772,0.75824,9.43207,-5.62881,-3.0426,-0.0472107,0.93187,0,719.994,-767.312,-0.132812,0.5625,55.2284,3071472
0.289307,0.121094,0.684326,-7.75864,-5.78094,-3.80325,-0.0458984,0.941757,0,695.628,-611.958,-0.0546875,0.5625,55.2473,3071487
-0.0065918,0.18927,0.893738,2.12982,-1.36917,-6.99799,-0.0443726,0.951447,0,612.276,-885.544,-0.0078125,0.5625,55.2673,3071503
-0.0476074,-0.0168457,0.921448,0.15213,0.45639,-8.67142,-0.0405426,0.97081,0,731.93,-700.501,-0.0078125,0.570312,55.2877,3071532
-0.151733,-0.0130005,0.88855,-0.912781,-3.80325,-1.67343,-0.0384979,0.980682,0,576.037,-672.179,-0.0078125,0.578125,55.3083,3071547
-0.153687,-0.0179443,0.876709,7.75864,1.21704,-0.30426,-0.0364227,0.990799,0,601.649,-613.497,-0.0078125,0.585938,55.3282,3071563
0.0325928,0.0450439,0.645813,-5.93307,3.65112,-4.5639,-0.0319977,1.01169,0,624.785,-678.748,-0.0078125,0.601562,55.3482,3071592
-0.0200806,-0.0319824,0.906311,-4.86816,-10.8012,-2.28195,-0.0297089,1.02222,0,707.864,-688.35,-0.0078125,0.609375,55.3695,3071607
0.0865479,-0.119202,1.06879,-0.760651,-6.38947,-2.89047,-0.0275116,1.03276,0,652.571,-678.196,0.102362,0.625,55.3876,3071623
0.0202026,0.0223389,1.03326,-0.760651,1.21704,-2.43408,-0.0233307,1.05409,0,616.789,-517.21,0.220472,0.648438,55.4077,3071652
-0.0612183,-0.00878906,0.705688,7.60651,-3.19473,-3.19473,-0.0212097,1.06488,0,313.406,-769.586,0.472441,0.664062,55.4272,3071667
0.026123,0.101318,1.11469,-5.32455,-2.73834,-12.9311,-0.0189819,1.07571,0,140.967,-703.482,0.740157,0.679688,55.447,3071683
0.111633,-0.0187378,1.0282,1.06491,-3.19473,-22.6674,-0.0145416,1.09662,0,-355.587,-666.089,0.874016,0.695312,55.4716,3071712
0.173462,0.0941162,1.07086,1.5213,5.47668,-24.493,-0.0123138,1.10678,0,-518.108,-642.199,1,0.703125,55.4873,3071727
0.139099,0.166687,0.945801,0.15213,5.32455,-28.1441,-0.00991821,1.11676,0,-604.011,-615.953,1,0.71875,55.5072,3071743
0.303894,0.0633545,0.806885,-1.67343,1.97769,-38.1847,-0.0050354,1.13586,0,-866.288,-763.097,1,0.734375,55.5288,3071772
-0.00610352,0.0640869,0.930542,-3.80325,0.912781,-41.6837,-0.00253296,1.14508,0,-687.073,-899.847,1,0.75,55.5474,3071787
0.353577,0.0636597,1.3949,-7.75864,1.06491,-44.5741,3.05176e-05,1.15411,0,-1031.41,-747.747,1,0.765625,55.5675,3071803
0.278809,0.0545654,1.16437,1.21704,5.93307,-54.0062,0.00517273,1.17152,0,-1007.25,-747.915,1,0.765625,55.5878,3071832
0.364807,0.0206299,0.825684,1.36917,11.4098,-62.6776,0.00773621,1.17975,0,-1103.2,-776.971,1,0.765625,55.6075,3071847
0.347046,-0.0512695,0.683167,-7.91077,8.36716,-74.5438,0.0128784,1.19537,0,-1099.14,-804.959,1,0.765625,55.6312,3071877
0.299438,0.0786743,1.15271,-1.5213,1.36917,-78.6513,0.0154114,1.20268,0,-1190.26,-651.614,1,0.765625,55.6476,3071892
0.338196,0.052063,0.732483,-7.91077,3.34686,-82.4545,0.0179901,1.20963,0,-1321.96,-718.365,1,0.679688,55.6677,3071907
0.398315,-0.0374756,0.769836,-4.71603,-9.73633,-86.8663,0.0205383,1.21614,0,-1214.99,-775.885,1,0.664062,55.6876,3071922
0.354553,0.0955811,0.928467,-4.25964,6.5416,-95.842,0.0256348,1.22845,0,-1024.12,-821.726,1,0.65625,55.7083,3071952
0.15448,0.00177002,0.651733,1.67343,4.10751,-96.2984,0.0282593,1.23422,0,-1221.82,-810.34,1,0.65625,55.7281,3071967
0.187988,0.0567017,1.09839,-6.5416,-9.88846,-100.254,0.0338135,1.24532,0,-1094.33,-634.136,1,0.65625,55.7477,3071997
-0.02771,0.0783691,0.810486,3.19473,2.12982,-103.448,0.0367432,1.25078,0,-1081.31,-779.271,1,0.65625,55.7679,3072012
0.261292,0.0234375,0.871582,-6.84586,3.95538,-105.883,0.0397491,1.25615,0,-1190.83,-770.208,1,0.65625,55.7868,3072027
0.305847,-0.0657349,0.780823,2.12982,-6.69373,-104.513,0.0427246,1.26123,0,-1167.88,-661.616,1,0.65625,55.807,3072042
0.209106,0.0338135,0.634155,0.15213,5.32455,-109.99,0.0486908,1.27094,0,-1154.27,-647.836,1,0.65625,55.8273,3072072
0.0100098,0.0859375,0.895752,11.5619,5.62881,-108.925,0.0517731,1.27565,0,-1353.27,-780.884,1,0.65625,55.8471,3072087
0.0359497,0.134155,1.17963,-1.06491,-5.62881,-109.382,0.0550079,1.28047,0,-1132.05,-961.862,1,0.65625,55.8672,3072102
0.298584,-0.0298462,0.888672,-0,1.5213,-115.923,0.062149,1.29007,0,-1120.95,-727.484,1,0.65625,55.8874,3072132
0.106812,-0.00164795,0.732605,8.97568,10.9534,-117.14,0.0657806,1.29463,0,-1351.26,-632.091,1,0.65625,55.9076,3072147
0.0859375,0.237366,1.10443,-7.75864,-3.34686,-120.943,0.0735779,1.30418,0,-1182.94,-681.315,1,0.65625,55.9301,3072177
0.199341,0.318542,1.09296,-1.67343,6.99799,-121.248,0.0779877,1.30901,0,-1246.49,-721.475,1,0.65625,55.9475,3072192
-0.0278931,0.0718994,0.930176,3.0426,-8.51929,-123.378,0.0826569,1.31386,0,-1334.31,-745.907,1,0.65625,55.9678,3072207
0.0560913,0.0300293,0.647217,-6.5416,-7.30225,-127.789,0.0873871,1.3188,0,-1073.65,-670.646,1,0.65625,55.9879,3072222
-0.0649414,0.213745,1.32001,-0.608521,6.23734,-131.136,0.097168,1.3287,0,-1239.62,-848.86,1,0.65625,56.0077,3072252
0.308411,0.0957031,0.937744,-7.60651,-0,-136.156,0.102356,1.33371,0,-1195.74,-794.849,1,0.65625,56.0279,3072267
-0.0128784,0.0759277,0.675171,0.45639,-11.8661,-136.461,0.107681,1.33862,0,-1291.41,-743.494,1,0.65625,56.0471,3072282
0.13855,0.0915527,0.854675,6.5416,0.912781,-140.264,0.118668,1.34848,0,-1247.82,-737.844,1,0.65625,56.0686,3072312
-0.0106201,0.0941772,0.956482,1.06491,1.21704,-141.481,0.124359,1.35342,0,-1285.59,-682.175,1,0.65625,56.0869,3072327
0.10498,0.0393066,0.772339,-2.73834,2.73834,-143.154,0.130112,1.35844,0,-1182.52,-725.558,1,0.65625,56.107,3072342
0.11554,0.0465088,0.957397,-0.760651,15.5173,-148.631,0.141983,1.36871,0,-1112.47,-875.772,1,0.65625,56.1276,3072372
0.127075,0.0493164,0.778748,1.21704,-4.10751,-150.457,0.148041,1.37386,0,-1367.24,-854.737,1,0.65625,56.1474,3072387
0.0681763,0.0114746,0.983459,2.89047,-3.65112,-148.783,0.154144,1.379,0,-915.709,-733.783,1,0.65625,56.1675,3072402
0.39856,-0.0102539,0.929565,-3.49899,0.760651,-155.477,0.166931,1.38914,0,-1177.3,-753.324,1,0.65625,56.1876,3072432
0.0733643,0.112549,0.964722,-2.28195,7.30225,-157.759,0.173553,1.39397,0,-1280.9,-796.844,1,0.65625,56.2082,3072447
0.154663,0.00305176,0.902039,-5.02029,-3.49899,-159.28,0.180267,1.39877,0,-1116.26,-758.265,1,0.65625,56.2279,3072462
0.177368,0.113342,0.911133,7.45438,6.84586,-161.562,0.193924,1.40851,0,-1235.79,-704.176,1,0.65625,56.2478,3072492
-0.141296,0.10498,0.741028,7.91077,6.08521,-161.41,0.200912,1.41353,0,-1070.55,-792.55,1,0.65625,56.269,3072507
0.217102,0.165894,0.891418,-8.82355,-3.34686,-164.757,0.208054,1.41867,0,-1173.78,-634.397,1,0.65625,56.287,3072522
0.123779,0.247864,1.41083,-8.97568,-1.5213,-169.169,0.22287,1.42899,0,-1124.92,-823.011,1,0.65625,56.3069,3072552
0.0932617,0.00915527,0.781189,1.5213,-5.02029,-168.104,0.23053,1.43428,0,-1060.5,-792.267,1,0.65625,56.327,3072567
0.00506592,0.199219,0.98053,0.608521,-3.34686,-169.169,0.238281,1.43968,0,-1150.88,-610.594,1,0.65625,56.348,3072582
0.109436,0.118103,0.652527,6.84586,6.99799,-171.299,0.254272,1.45071,0,-1331.47,-698.885,1,0.65625,56.3689,3072612
0.291077,0.0853271,1.3407,-13.2353,-7.75864,-172.059,0.262527,1.45618,0,-1366.77,-740.302,1,0.65625,56.3873,3072627
0.0899658,0.0706177,0.903076,1.67343,6.84586,-176.319,0.279648,1.46684,0,-1094.93,-742.749,1,0.65625,56.4098,3072657
0.207275,0.0460205,0.868225,3.65112,5.17242,-176.927,0.288376,1.47214,0,-1076.08,-773.186,1,0.65625,56.4274,3072672
-0.0255127,0.102051,0.867493,-4.5639,-8.0629,-176.167,0.297195,1.47748,0,-1195.46,-669.142,1,0.65625,56.4479,3072687
0.317322,0.0510254,0.854919,0.15213,-0.608521,-179.97,0.315414,1.48837,0,-1224.66,-712.809,1,0.65625,56.4678,3072717
-0.208679,0.0592041,0.949036,8.97568,6.5416,-180.578,0.324677,1.49385,0,-1080.44,-590.441,1,0.65625,56.4884,3072732
0.059021,0.137756,1.22327,-6.23734,-5.62881,-182.708,0.333878,1.49963,0,-1218.84,-632.211,1,0.65625,56.5099,3072747
0.236267,0.307434,0.987,-4.25964,3.65112,-186.207,0.352798,1.51164,0,-1262.23,-732.011,1,0.65625,56.5297,3072777
0.0283203,0.110657,0.468506,-0.30426,4.86816,-185.294,0.362671,1.51785,0,-1171.99,-692.569,1,0.65625,56.5471,3072792
0.552063,0.122742,1.15637,-12.3225,-9.12781,-189.25,0.372849,1.52399,0,-1075.44,-698.3,1,0.65625,56.5721,3072807
0.0637207,0.0680542,0.948181,1.21704,4.86816,-192.597,0.383301,1.53003,0,-1118.26,-664.121,1,0.65625,56.587,3072822
0.292297,0.12677,0.855835,1.21704,10.3448,-199.443,0.404327,1.54265,0,-957.625,-775.074,1,0.65625,56.6087,3072852
0.230957,0.264221,0.821655,-9.88846,-5.62881,-201.725,0.415253,1.54909,0,-1176.61,-682.594,1,0.65625,56.6296,3072867
0.125793,0.208313,1.21136,-10.3448,3.49899,-207.81,0.437988,1.56239,0,-1102.66,-764.994,1,0.65625,56.6475,3072897
-0.0545654,0.11676,0.581116,8.97568,12.3225,-208.114,0.449539,1.56935,0,-926.784,-698.227,1,0.65625,56.6676,3072912
0.437927,0.165344,1.06183,-10.3448,1.82556,-209.635,0.461304,1.57642,0,-1099.38,-852.406,1,0.65625,56.6881,3072927
0.0640869,0.183594,1.04755,-17.495,1.82556,-209.635,0.473343,1.58357,0,-1073.25,-659.261,1,0.65625,56.7077,3072942
-0.0656128,0.169739,0.788696,-1.67343,10.3448,-211.765,0.497726,1.59865,0,-1112.59,-639.407,1,0.65625,56.7281,3072972
0.0274658,0.271729,0.86792,-8.21503,-0,-211.309,0.509949,1.60667,0,-1090.22,-651.848,1,0.65625,56.749,3072987
0.30127,0.121887,1.28815,-10.8012,-6.84586,-212.982,0.522369,1.61493,0,-1241,-637.918,1,0.65625,56.7679,3073002
0.155029,0.158264,0.97406,-7.45438,4.71603,-218.763,0.548126,1.6315,0,-1194.03,-751.145,1,0.65625,56.787,3073032
0.30896,0.0617676,0.814087,-5.93307,1.5213,-219.676,0.561356,1.63989,0,-1123.34,-736.757,1,0.65625,56.8071,3073047
0.0153809,0.155212,0.902954,-9.5842,-2.43408,-224.696,0.588196,1.65727,0,-991.326,-639.018,1,0.65625,56.8289,3073077
0.251953,0.0500488,0.473083,-2.28195,6.08521,-225.457,0.60173,1.66623,0,-1103.57,-955.429,1,0.65625,56.8472,3073092
0.0472412,0.124268,0.638428,-1.82556,12.4747,-227.282,0.615417,1.67526,0,-1082.37,-758.409,1,0.65625,56.8672,3073107
0.0578613,0.233521,1.22363,-15.213,-0,-229.26,0.615417,1.68456,0,-1330.67,-695.797,1,0.65625,56.8875,3073122
0.333496,0.187195,0.642822,-4.71603,16.4301,-230.629,0.615753,1.70406,0,-1161.37,-724.506,1,0.65625,56.9079,3073152
0.203003,0.16687,1.0603,-0.30426,8.36716,-230.934,0.616318,1.71411,0,-1101.56,-654.793,1,0.65625,56.928,3073167
-0.107666,0.223389,1.02844,-12.7789,3.65112,-229.26,0.617569,1.73528,0,-1105.95,-711.339,1,0.65625,56.9518,3073196
0.0648804,0.288574,1.28424,-8.67142,17.6471,-230.781,0.617981,1.74644,0,-996.363,-657.981,1,0.65625,56.9682,3073211
0.173767,0.188538,0.64386,-3.65112,9.12781,-230.477,0.618454,1.75795,0,-1297.94,-805.51,1,0.65625,56.9883,3073226
0.18103,0.189453,0.832764,-6.23734,-5.78094,-228.499,0.619064,1.76971,0,-1052.41,-704.746,1,0.65625,57.0076,3073242
0.0529175,0.215088,1.31012,-5.17242,-10.8012,-229.869,0.620361,1.79424,0,-1090.39,-760.312,1,0.65625,57.0269,3073271
0.213318,0.129333,0.543518,1.36917,7.60651,-231.542,0.621002,1.80692,0,-1132.31,-645.474,1,0.65625,57.0469,3073286
0.162659,0.135986,1.04089,-3.0426,-5.32455,-229.869,0.62178,1.81979,0,-1239.16,-861.326,1,0.65625,57.067,3073302
0.185608,0.280701,0.930725,-12.7789,-7.60651,-233.368,0.623016,1.84648,0,-1284.27,-671.795,1,0.65625,57.0871,3073331
0.00268555,0.074707,0.884583,1.67343,-0.45639,-235.345,0.623535,1.86028,0,-1060.95,-729.155,0.826772,0.65625,57.1106,3073346
-0.119995,0.269531,0.985168,-3.19473,-0.15213,-234.889,0.623825,1.8743,0,-972.242,-660.306,0.472441,0.648438,57.127,3073362
0.438293,0.136353,0.840149,-10.6491,4.71603,-240.518,0.62439,1.90329,0,-812.48,-649.583,0.23622,0.625,57.147,3073391
0.179688,0.211426,0.805969,-2.43408,11.5619,-242.648,0.625046,1.9182,0,-676.682,-645.161,0.023622,0.585938,57.1693,3073406
0.288269,0.260132,0.942383,-16.8864,-3.0426,-247.516,0.626312,1.94873,0,-397.464,-539.273,-0.0078125,0.5625,57.1871,3073436
0.11145,0.186279,1.0318,-13.6917,-7.91077,-244.017,0.626984,1.96448,0,-285.992,-731.984,-0.0078125,0.554688,57.2075,3073451
-0.00592041,0.135315,0.803528,2.43408,5.93307,-242.191,0.627533,1.98042,0,-249.7,-708.642,-0.0078125,0.554688,57.2276,3073466
0.201782,0.175781,0.789734,-6.08521,9.73633,-230.934,0.62822,2.01286,0,-102.465,-654.022,-0.0078125,0.546875,57.2473,3073496
-0.00939941,0.0894165,0.942871,-10.3448,3.65112,-225.609,0.628464,2.02939,0,-60.5303,-611.116,-0.0078125,0.546875,57.2671,3073511
-0.170776,0.0881348,0.980591,-0,11.2576,-218.155,0.628403,2.04596,0,-49.8889,-561.356,-0.0078125,0.546875,57.2893,3073526
0.183533,0.0177612,1.04657,-5.17242,5.93307,-212.222,0.628159,2.06256,0,-49.8889,-764.409,-0.0078125,0.546875,57.3071,3073542
-0.476868,0.0524292,0.881897,0.912781,5.17242,-204.159,0.626984,2.09581,0,-49.8889,-713.801,-0.0078125,0.546875,57.3273,3073571
0.143066,0.0654907,1.00745,-8.82355,2.12982,-195.639,0.625748,2.11234,0,-6.94131,-702.346,-0.0078125,0.546875,57.3497,3073586
-0.0703125,0.0211792,1.02142,-0.608521,0.760651,-191.532,0.624405,2.12889,0,5.40995,-632.191,-0.0078125,0.546875,57.3676,3073602
0.00616455,0.194885,1.20197,-6.69373,2.58621,-184.382,0.620987,2.16237,0,72.953,-639.386,-0.0078125,0.625,57.3875,3073631
-0.268921,0.134949,1.04913,-4.25964,0.912781,-180.578,0.618744,2.17928,0,80.6201,-646.433,-0.0078125,0.640625,57.4076,3073646
0.306213,-0.0136108,0.914307,-4.5639,-0.45639,-171.299,0.614044,2.21323,0,86.6495,-844.595,-0.0078125,0.648438,57.4278,3073676
-0.335083,0.0969849,0.956909,-2.73834,6.84586,-172.363,0.611633,2.23027,0,132.802,-744.823,-0.0078125,0.648438,57.447,3073691
-0.067749,0.0637817,1.14948,-6.84586,5.78094,-169.169,0.60878,2.24719,0,134.23,-729.182,-0.0078125,0.648438,57.4672,3073706
0.308838,0.101013,0.874451,-4.25964,1.97769,-166.735,0.605865,2.26427,0,138.051,-735.51,-0.0078125,0.648438,57.4872,3073722
-0.247192,0.111877,0.855164,-2.58621,2.43408,-161.106,0.599518,2.29849,0,142.738,-623.791,-0.0078125,0.648438,57.5092,3073751
0.142151,-0.0217285,0.999084,2.58621,1.5213,-158.063,0.595932,2.31552,0,169.704,-728.916,-0.0078125,0.648438,57.5277,3073766
-0.345398,0.148987,0.856323,-5.17242,5.47668,-155.933,0.592087,2.33247,0,192.927,-524.123,-0.0078125,0.648438,57.5483,3073782
-0.0726318,0.149353,0.8974,-1.67343,7.91077,-149.696,0.583542,2.36638,0,164.21,-797.83,-0.0078125,0.648438,57.568,3073811
0.168884,0.0369263,1.06189,-0.912781,-3.80325,-144.828,0.579041,2.38345,0,161.273,-820.513,-0.0078125,0.648438,57.587,3073826
-0.348511,0.0897827,0.739136,1.21704,3.34686,-143.459,0.574295,2.40047,0,168.098,-883.665,-0.0078125,0.648438,57.6069,3073842
-0.249634,0.0223999,0.85498,-1.21704,10.0406,-139.047,0.564758,2.43474,0,172.595,-628.18,-0.0078125,0.648438,57.6272,3073871
0.210388,0.0679932,0.908325,-3.49899,-1.21704,-137.678,0.559845,2.45189,0,181.22,-768.197,-0.0078125,0.648438,57.647,3073886
-0.484253,0.0720825,1.36017,-8.36716,-2.43408,-134.179,0.554626,2.4689,0,162.702,-732.708,-0.0078125,0.648438,57.6672,3073902
-0.296082,-0.00408936,0.704712,-1.97769,-0.30426,-130.071,0.54361,2.50281,0,164.266,-642.942,-0.0078125,0.648438,57.6871,3073931
-0.207947,0.16272,1.15222,0.912781,-1.5213,-129.311,0.537643,2.51953,0,195.702,-762.108,-0.0078125,0.648438,57.707,3073946
-0.0617065,0.0875854,0.877625,4.71603,2.28195,-122.313,0.52478,2.55232,0,186.282,-761.47,-0.0078125,0.648438,57.7277,3073976
0.090332,0.022644,0.804382,-0.15213,3.0426,-122.008,0.518097,2.56863,0,251.699,-917.979,-0.0078125,0.648438,57.7472,3073991
0.0653076,-0.0410156,0.98291,-0.760651,4.5639,-120.335,0.511414,2.58498,0,206.107,-839.772,-0.0078125,0.648438,57.7689,3074006
0.0757446,-0.0285645,1.23059,0.15213,0.15213,-120.639,0.511414,2.6013,0,274.081,-821.456,-0.0078125,0.648438,57.7881,3074021
0.158386,-0.046936,0.945679,-1.5213,3.0426,-117.444,0.511246,2.60135,0,207.029,-782.534,-0.0078125,0.648438,57.8083,3074051
0.00549316,0.0389404,0.919373,-0.45639,7.91077,-116.988,0.511139,2.60141,0,229.706,-857.339,-0.0078125,0.648438,57.8274,3074066
0.00531006,0.0447388,0.866821,3.49899,3.19473,-111.816,0.510925,2.60147,0,254.088,-683.878,-0.0078125,0.648438,57.8476,3074081
-0.125549,-0.0216064,0.924255,-0,7.30225,-108.317,0.509872,2.60155,0,243.002,-789.173,-0.0078125,0.648438,57.8677,3074111
0.153748,0.104736,1.12604,-6.99799,0.912781,-106.035,0.509125,2.60155,0,289.113,-865.501,-0.0078125,0.648438,57.8876,3074126
0.0453491,0.0488892,1.21228,6.23734,3.65112,-102.688,0.507065,2.60126,0,241.517,-764.731,-0.0078125,0.648438,57.9084,3074156
0.0294189,0.00561523,0.768677,3.0426,-5.17242,-101.319,0.505859,2.60106,0,278.118,-829.635,-0.0078125,0.648438,57.9296,3074171
0.0472412,0.129272,0.976624,1.21704,-3.34686,-97.9718,0.504532,2.60091,0,285.294,-742.005,-0.0078125,0.648438,57.947,3074186
-0.0137329,0.00750732,0.890686,0.15213,-0,-98.5803,0.503052,2.60077,0,316.251,-885.073,-0.0078125,0.648438,57.9669,3074201
0.129272,-0.0361328,0.955566,-7.15012,2.73834,-97.5154,0.500015,2.60052,0,317.465,-847.889,-0.0078125,0.648438,57.9874,3074231
-0.0402222,0.09375,0.894653,-4.86816,3.49899,-95.6898,0.498428,2.60045,0,295.84,-701.139,-0.0078125,0.648438,58.0078,3074246
-0.12323,-0.00341797,1.00226,-2.43408,2.73834,-91.5823,0.496674,2.60025,0,384.224,-869.187,-0.0078125,0.648438,58.0274,3074261
-0.0497437,0.074585,1.05054,3.49899,0.45639,-85.4971,0.492722,2.59987,0,273.134,-744.269,-0.0078125,0.648438,58.0472,3074291
-0.00170898,-0.0562134,0.954041,5.32455,-0.912781,-83.8237,0.49057,2.59961,0,348.08,-757.834,-0.0078125,0.648438,58.0673,3074306
-0.0963135,-0.0372925,1.07458,3.19473,-0.30426,-79.8683,0.486267,2.59938,0,289.784,-876.347,-0.0078125,0.648438,58.0889,3074336
-0.00494385,0.0641479,0.736694,6.5416,3.34686,-75.9129,0.483994,2.5992,0,347.494,-643.728,-0.0078125,0.648438,58.1089,3074351
-0.0990601,0.090271,1.11542,-2.12982,-4.25964,-72.5661,0.481522,2.59894,0,346.332,-793.21,-0.0078125,0.648438,58.1278,3074366
-0.104248,0.0206299,0.900146,6.84586,4.5639,-71.9576,0.478867,2.59854,0,379.24,-748.867,-0.0078125,0.648438,58.1477,3074381
0.0117798,0.041687,1.11597,-4.10751,0.45639,-68.1543,0.473236,2.59744,0,398.947,-679.256,-0.0078125,0.648438,58.1675,3074411
0.0287476,-0.0554199,0.790405,4.25964,7.45438,-69.0671,0.470337,2.59683,0,360.218,-722.909,-0.0078125,0.648438,58.1876,3074426
0.15918,-0.0253906,1.0705,-2.89047,0.760651,-67.6979,0.467468,2.59628,0,429.562,-562.936,-0.0078125,0.648438,58.2079,3074441
-0.0397949,0.0411377,1.0578,-1.5213,1.06491,-66.9373,0.4617,2.59557,0,391.167,-830.599,-0.0078125,0.648438,58.2277,3074471
-0.022583,-0.00219727,0.800415,-3.65112,2.12982,-66.1766,0.458664,2.59515,0,444.296,-884.134,-0.0078125,0.648438,58.2476,3074486
-0.00585938,-0.0145874,1.01953,-3.65112,4.71603,-64.9596,0.452652,2.59433,0,437.321,-800.737,-0.0078125,0.648438,58.2676,3074516
-0.109375,0.0408325,0.854126,0.760651,3.19473,-63.8947,0.449539,2.5938,0,385.706,-762.399,-0.0078125,0.648438,58.2895,3074531
-0.0610962,0.00762939,1.02899,1.36917,2.73834,-60.8521,0.44632,2.59311,0,456.819,-868.772,-0.0078125,0.648438,58.3081,3074546
-0.052002,-0.0184326,0.934998,-0.30426,1.82556,-57.9616,0.439789,2.59184,0,527.315,-704.399,-0.0078125,0.648438,58.3269,3074576
-0.0222168,0.00378418,0.887146,1.21704,-1.21704,-57.0488,0.436462,2.59113,0,530.8,-774.863,-0.0078125,0.648438,58.3474,3074591
0.358459,-0.0032959,0.956421,-4.86816,-0.760651,-57.0488,0.433151,2.59059,0,507.511,-600.546,-0.0078125,0.648438,58.3673,3074606
-0.23175,0.0443726,0.93457,-3.65112,1.5213,-56.8967,0.426239,2.5892,0,542.108,-804.959,-0.0078125,0.648438,58.3874,3074636
0.226135,-0.0281372,1.13312,-5.02029,5.32455,-53.7019,0.422607,2.58829,0,532.056,-948.362,-0.0078125,0.648438,58.4078,3074651
0.0201416,0.120728,1.18219,-0.15213,5.78094,-50.6593,0.4189,2.58748,0,546.986,-734.619,-0.0078125,0.648438,58.4278,3074666
0.467468,-0.0745239,1.06885,0.760651,-5.17242,-47.7689,0.411209,2.58546,0,557.383,-777.001,-0.0078125,0.648438,58.4492,3074696
-0.149231,0.129944,1.24463,-0.45639,-2.58621,-47.1603,0.407364,2.58464,0,498.244,-743.771,-0.0078125,0.648438,58.4672,3074711
0.189087,-0.0931396,0.458008,-2.12982,-1.06491,-44.1177,0.403442,2.58379,0,571.445,-832.189,-0.0078125,0.648438,58.4868,3074726
-0.414978,0.0898438,1.7453,-1.82556,7.45438,-41.6837,0.39595,2.58257,0,687.521,-766.754,-0.0078125,0.648438,58.5072,3074756
-0.348755,0.0891113,0.963928,10.6491,11.2576,-41.2273,0.391846,2.58138,0,655.501,-648.382,-0.0078125,0.648438,58.5271,3074771
-0.0773315,-0.0838013,1.09283,6.84586,9.43207,-37.8804,0.387604,2.57985,0,568.473,-916.128,-0.0078125,0.648438,58.5475,3074786
-0.229919,0.188477,0.633301,-6.5416,2.28195,-35.4463,0.379044,2.57687,0,691.922,-1024.75,-0.0078125,0.648438,58.5678,3074816
-0.217224,0.00878906,0.994019,-8.97568,-2.89047,-28.7526,0.37442,2.57507,0,838.399,-828.432,-0.0078125,0.648438,58.5877,3074831
0.276184,0.0882568,0.871643,-8.21503,4.86816,-27.9919,0.36972,2.5733,0,701.459,-814.797,-0.0078125,0.648438,58.6077,3074846
-0.247498,-0.0562134,0.803528,0.760651,-4.86816,-24.0366,0.359909,2.56949,0,811.853,-864.678,-0.0078125,0.578125,58.629,3074876
-0.0740356,0.0824585,1.25134,-3.19473,6.99799,-21.6025,0.354843,2.56717,0,761.876,-865.014,-0.0078125,0.515625,58.6478,3074891
0.388855,0.0921021,1.31958,-6.99799,-0,-17.1907,0.349655,2.56503,0,695.58,-881.718,-0.0078125,0.3125,58.6677,3074906
0.389221,0.0344238,0.669373,0.760651,-8.82355,-14.1481,0.344482,2.56339,0,631.512,-695.894,-0.0078125,0.1875,58.6868,3074921
-0.0838623,0.0668335,0.789246,8.51929,6.69373,-6.99799,0.333893,2.55949,0,781.616,-622.781,-0.0078125,0.0390625,58.7076,3074951
-0.0379639,0.234192,1.28699,-7.15012,-0.608521,-2.58621,0.328262,2.55728,0,603.427,-654.45,-0.0078125,0.0078125,58.7271,3074966
0.22168,0.116516,1.10193,0.45639,2.89047,1.06491,0.31633,2.5529,0,761.267,-494.756,-0.0078125,0.0078125,58.7471,3074996
-0.459045,0.319153,1.03619,0.30426,1.21704,6.84586,0.309937,2.55066,0,550.388,-462.738,-0.0078125,0.0078125,58.7675,3075011
0.301819,0.192993,0.641357,-3.19473,3.80325,15.9737,0.303162,2.54837,0,580.046,-542.947,-0.0078125,0.0078125,58.7893,3075026
0.0848389,0.108643,1.13135,-3.80325,-1.97769,-3.0426,0.289291,2.54439,0,578.787,-575.457,-0.0078125,0.0078125,58.8085,3075056
0.117981,0.090332,0.88208,-10.9534,-4.25964,-1.5213,0.282196,2.54257,0,507.46,-530.504,-0.0078125,0.0078125,58.8281,3075071
0.067749,0.0287476,0.883911,0.45639,-1.82556,1.21704,0.275055,2.54088,0,538.938,-563.412,-0.0078125,0.0078125,58.8474,3075086
-0.0196533,0.0929565,0.981445,-2.12982,-4.5639,-0.760651,0.260574,2.53754,0,510.191,-512.085,-0.0078125,0.0078125,58.8692,3075116
0.0801392,0.0535278,0.836975,1.5213,0.30426,1.21704,0.253189,2.53589,0,494.731,-496.463,-0.0078125,0.0078125,58.8879,3075131
0.00585938,0.109314,0.948669,1.36917,-1.36917,-0.912781,0.245712,2.53429,0,490.749,-523.026,-0.0078125,0.0078125,58.908,3075146
0.043457,0.116577,1.32635,-0,-6.5416,-0.608521,0.230148,2.53096,0,435.682,-404.269,-0.0078125,0.0078125,58.9303,3075176
-0.0142212,0.0109253,0.331482,5.17242,4.10751,-0.608521,0.222183,2.52928,0,472.567,-556.297,-0.0078125,0.0078125,58.9477,3075191
-0.0057373,0.069397,1.849,-3.80325,-13.6917,3.0426,0.214172,2.52756,0,444.286,-392.95,0.0629921,0.0078125,58.9677,3075206
0.138733,0.161316,1.85614,-15.0609,-6.08521,-0.608521,0.197754,2.52429,0,420.212,-360.231,0.11811,0.0078125,58.9878,3075236
0.0330811,0.0700684,0.397034,13.0832,8.21503,0.45639,0.189377,2.52281,0,276.64,-552.364,0.165354,0.0078125,59.0078,3075251
-0.101013,0.278137,0.987854,-3.80325,-8.36716,-6.08521,0.180756,2.52133,0,193.515,-425.08,0.181102,0.0078125,59.0277,3075266
0.101929,0.305664,0.863342,-2.58621,0.608521,-9.43207,0.162888,2.51881,0,115.976,-278.851,0.204724,0.0078125,59.047,3075296
-0.0665283,0.246521,1.08435,0.30426,-4.25964,-9.12781,0.153519,2.51775,0,78.6476,-269.44,0.220472,0.0078125,59.0671,3075310
0.0119629,0.186768,0.850586,3.80325,5.02029,-8.97568,0.143875,2.51666,0,78.6476,-310.073,0.267717,0.0078125,59.0875,3075325
-0.0101929,0.237366,0.971375,-0,-0.760651,-9.88846,0.133987,2.51559,0,9.85824,-215.752,0.314961,0.0078125,59.107,3075341
0.0736084,0.210144,0.913025,0.15213,2.73834,-12.9311,0.113449,2.51367,0,-52.7971,-219.522,0.338583,0.0078125,59.1277,3075370
0.0979004,0.212952,1.00482,0.15213,1.67343,-14.3002,0.102859,2.51289,0,-97.7145,-225.134,0.362205,0.0078125,59.1476,3075385
0.0710449,0.163879,0.907898,-0.30426,0.15213,-17.6471,0.0810852,2.51175,0,-125.369,-186.848,0.377953,0.0078125,59.1675,3075415
0.0206909,0.202271,0.996521,-0.30426,1.06491,-18.2556,0.0699158,2.51129,0,-149.94,-136.685,0.393701,-0.133858,59.1877,3075430
0.0333252,0.189636,0.900269,-0.912781,-0,-19.1684,0.0585632,2.51088,0,-179.416,-101.321,0.425197,-0.338583,59.2077,3075445
-0.0947266,0.331848,0.928894,-0,0.30426,-20.6897,0.0230103,2.50986,0,-223.386,85.1002,0.464567,-0.480315,59.2515,3075490
0.0825195,0.450317,0.966858,-7.60651,-6.23734,-14.6045,0.0103912,2.50958,0,-254.159,75.7269,0.511811,-0.574803,59.2676,3075505
0.024353,0.38916,0.797241,3.65112,0.30426,-6.5416,-0.0162201,2.50935,0,-288.517,218.298,0.527559,-0.582677,59.2878,3075535
-0.0788574,0.454346,1.0293,-1.06491,-0.30426,-3.0426,-0.0302582,2.50931,0,-311.052,269.339,0.535433,-0.590551,59.3091,3075550
-0.00341797,0.474243,0.913391,-0.45639,-1.36917,-0.45639,-0.0448456,2.50929,0,-324.38,277.331,0.559055,-0.598425,59.3278,3075565
0.00439453,0.478394,0.970093,2.12982,-0.45639,1.06491,-0.0599823,2.50937,0,-349.01,428.366,0.574803,-0.606299,59.3468,3075581
-0.00939941,0.310242,0.9599,1.82556,0.45639,-0.15213,-0.0916443,2.50996,0,-390.48,388.048,0.582677,-0.606299,59.3669,3075610
0.0253906,0.383179,0.991882,0.15213,-4.71603,-0.608521,-0.108017,2.51038,0,-456.663,492.09,0.582677,-0.606299,59.387,3075625
0.0449219,0.214111,0.951904,2.58621,2.43408,-1.67343,-0.141632,2.51176,0,-474.406,470.71,0.590551,-0.606299,59.4072,3075655
0.0198364,0.36499,1.14807,-0,-1.82556,1.21704,-0.158813,2.5126,0,-536.265,577.818,0.598425,-0.622047,59.4271,3075670
0.252625,0.138672,0.962769,3.80325,5.93307,0.760651,-0.176163,2.51363,0,-592.189,568.861,0.606299,-0.629921,59.447,3075685
0.161804,0.179993,1.17566,2.58621,0.45639,0.760651,-0.21138,2.51613,0,-542.299,643.17,0.614173,-0.645669,59.467,3075715
-0.0515747,0.0908813,0.733582,12.1704,-1.5213,-0.760651,-0.229126,2.51749,0,-567.585,654.579,0.622047,-0.645669,59.4874,3075730
0.176575,0.272705,1.12085,8.21503,-0.45639,1.67343,-0.246994,2.51891,0,-678.794,740.549,0.629921,-0.645669,59.5076,3075745
-0.0360107,0.171936,0.967529,3.65112,4.71603,-1.36917,-0.264999,2.5204,0,-669.299,661.463,0.629921,-0.645669,59.5273,3075761
-0.0512085,0.0665894,0.929199,8.67142,-1.21704,-1.67343,-0.301376,2.52356,0,-812.546,717.206,0.629921,-0.653543,59.5476,3075790
0.118225,0.305603,0.900818,-0.30426,0.15213,1.67343,-0.319717,2.52518,0,-814.896,714.005,0.629921,-0.653543,59.5675,3075805
0.0385742,0.153625,1.04901,0.912781,-0.608521,-2.12982,-0.35672,2.52827,0,-688.682,746.714,0.629921,-0.653543,59.5875,3075835
0.0604248,0.157593,1.23926,-4.5639,-4.25964,-2.43408,-0.37529,2.5298,0,-762.835,843.811,0.629921,-0.653543,59.6075,3075850
0.216431,0.0820312,0.884094,-1.06491,-3.49899,-1.36917,-0.393845,2.53146,0,-808.604,707.439,0.629921,-0.653543,59.6277,3075865
-0.164978,0.00323486,0.952393,12.9311,2.43408,-1.36917,-0.430878,2.53458,0,-858.516,778.24,0.629921,-0.653543,59.649,3075895
0.0261841,0.146301,0.956055,5.32455,-1.06491,-0.912781,-0.449387,2.53586,0,-948.677,719.942,0.629921,-0.653543,59.6681,3075910
-0.289612,0.0731201,0.689636,8.36716,1.5213,-3.34686,-0.467972,2.53694,0,-749.344,949.442,0.629921,-0.653543,59.6877,3075925
-0.020752,0.161133,1.23566,-11.2576,5.93307,-2.28195,-0.505157,2.53903,0,-814.996,951.52,0.629921,-0.653543,59.7078,3075955
-0.0338135,-0.00744629,0.887878,2.89047,-4.10751,0.608521,-0.523727,2.54004,0,-818.8,939.188,0.629921,-0.653543,59.7274,3075970
0.131836,0.121399,1.07062,2.73834,5.78094,1.67343,-0.542221,2.54106,0,-921.914,943.886,0.629921,-0.653543,59.7473,3075985
-0.00872803,0.0840454,0.908875,5.47668,0.760651,-1.97769,-0.542221,2.54211,0,-927.386,1045.1,0.629921,-0.653543,59.767,3076001
0.151794,0.0718994,0.83728,-6.84586,-7.75864,0.15213,-0.542191,2.54425,0,-746.882,669.142,0.629921,-0.653543,59.7873,3076030
-0.300659,0.0521851,1.16034,0.30426,-7.15012,-1.06491,-0.542145,2.54521,0,-909.05,1090.81,0.629921,-0.653543,59.8071,3076045
0.0973511,0.148193,1.34882,-7.60651,-10.6491,-0,-0.541977,2.54718,0,-920.895,962.742,0.535433,-0.653543,59.827,3076075
0.0115356,-0.00311279,0.665894,6.5416,-4.25964,-1.06491,-0.54184,2.54829,0,-911.91,1048.77,0.488189,-0.653543,59.8493,3076090
0.244629,-0.0196533,0.893555,-8.67142,-5.47668,-1.21704,-0.54155,2.54951,0,-871.726,782.075,0.338583,-0.653543,59.8672,3076105
0.0319824,0.000183105,0.843384,1.82556,-5.17242,1.21704,-0.540634,2.5519,0,-848.824,1001.8,0.15748,-0.653543,59.8876,3076135
-0.010376,-0.0411987,0.886414,1.06491,-3.49899,-1.21704,-0.539993,2.55296,0,-764.468,954.7,0.0551181,-0.653543,59.9082,3076150
-0.24115,0.0404053,0.829407,4.86816,-0.45639,-1.97769,-0.539291,2.55382,0,-798.594,925.198,-0.0078125,-0.653543,59.9276,3076165
-0.196838,-0.133545,0.761353,2.43408,1.97769,4.41177,-0.538483,2.55432,0,-577.017,956.343,-0.0078125,-0.653543,59.9474,3076180
-0.107666,-0.00872803,1.19153,-8.0629,-7.91077,16.4301,-0.536255,2.55441,0,-793.525,961.261,-0.0078125,-0.653543,59.9674,3076210
-0.0969849,-0.116211,0.888306,2.43408,-1.97769,18.4077,-0.534866,2.55411,0,-811.952,768.226,-0.0078125,-0.653543,59.9904,3076225
-0.709167,-0.0453491,0.706909,0.15213,-1.82556,13.8438,-0.531479,2.5533,0,-919.075,866.889,-0.0078125,-0.653543,60.0073,3076255
0.547668,0.0319214,1.26874,-3.34686,-1.67343,14.7566,-0.529648,2.55258,0,-813.537,820.277,-0.0078125,-0.653543,60.0272,3076270
-0.246582,0.0336914,0.948608,-5.17242,-0.608521,11.8661,-0.527679,2.552,0,-949.938,908.306,-0.0078125,-0.653543,60.0489,3076285
-0.200378,0.0481567,0.794434,-1.82556,-0.912781,6.69373,-0.523529,2.55083,0,-841.468,756.544,-0.0078125,-0.653543,60.0673,3076315
0.236145,0.0715332,1.03021,-7.15012,-0.15213,5.78094,-0.521378,2.55023,0,-784.96,734.538,-0.0078125,-0.677165,60.0872,3076330
-0.179199,0.0997314,0.852051,-7.15012,4.5639,2.28195,-0.519241,2.54965,0,-971.44,827.986,-0.0078125,-0.692913,60.1077,3076345
-0.185242,-0.00280762,0.800659,0.30426,-6.08521,-0.608521,-0.514496,2.54817,0,-793.336,884.682,-0.0078125,-0.708661,60.1283,3076375
-0.170227,0.048645,1.06232,-0.15213,0.912781,-2.12982,-0.512009,2.5471,0,-817.728,843.811,-0.0078125,-0.716535,60.1479,3076390
-0.165771,0.00274658,0.98114,1.5213,4.5639,0.912781,-0.509521,2.54575,0,-886.014,908.224,-0.0078125,-0.716535,60.1699,3076405
-0.137329,0.0887451,0.898621,-2.28195,2.58621,1.06491,-0.504318,2.54294,0,-833.715,930.406,-0.0078125,-0.716535,60.1877,3076435
0.0913696,-0.093689,1.11566,4.5639,-2.73834,-0.30426,-0.501602,2.54144,0,-907.112,831.152,-0.0078125,-0.724409,60.2084,3076450
-0.205444,0.1203,0.852295,0.912781,-5.47668,0.760651,-0.498825,2.53983,0,-902.772,837.907,-0.0078125,-0.724409,60.2301,3076465
0.0301514,0.0775757,0.222107,-8.21503,15.6694,-2.43408,-0.493164,2.53644,0,-902.649,946.701,-0.0078125,-0.724409,60.2481,3076495
0.140991,0.00195312,0.968811,-12.1704,-0.608521,5.78094,-0.490265,2.53485,0,-996.761,852.878,-0.0078125,-0.724409,60.2676,3076510
0.0914917,0.0172729,0.966919,-3.49899,-1.67343,2.89047,-0.487259,2.53339,0,-757.978,782.718,-0.0078125,-0.724409,60.2879,3076525
0.0223389,-0.000366211,0.756836,-0.30426,-1.21704,0.912781,-0.481049,2.53088,0,-825.593,728.332,-0.0078125,-0.724409,60.3077,3076555
-0.0900269,0.0349121,0.933044,-0.30426,0.912781,0.912781,-0.477859,2.5296,0,-916.674,814.996,-0.0078125,-0.724409,60.3291,3076570
-0.0575562,0.13623,0.984131,-3.65112,3.34686,1.67343,-0.474716,2.52821,0,-833.438,862.627,-0.0078125,-0.724409,60.3477,3076585
0.0421143,-0.0441895,0.969482,0.608521,-2.12982,1.97769,-0.46814,2.52579,0,-961.955,842.389,-0.0078125,-0.724409,60.3676,3076615
-0.128357,0.140747,0.959351,-2.73834,-6.08521,0.15213,-0.464737,2.52458,0,-855.945,907.276,-0.015625,-0.724409,60.3882,3076630
-0.0765991,0.0718994,1.0993,0.760651,1.97769,1.67343,-0.461395,2.52321,0,-706.864,923.105,-0.0390625,-0.724409,60.4078,3076645
-0.0481567,0.181213,0.998596,-7.30225,-0.15213,2.43408,-0.45459,2.52046,0,-979.72,873.935,-0.0859375,-0.724409,60.427,3076675
0.145264,-0.0952759,0.982971,-1.06491,-9.88846,3.34686,-0.451141,2.51912,0,-835.073,883.002,-0.117188,-0.724409,60.4475,3076690
-0.262451,-0.0556641,0.997742,-4.10751,-9.88846,2.12982,-0.447495,2.51764,0,-577.434,1070.26,-0.125,-0.732283,60.4673,3076705
-0.241577,-0.0634766,0.900696,-0.912781,-1.36917,19.929,-0.440079,2.51335,0,-393.445,952.2,-0.140625,-0.740157,60.4874,3076735
0.157776,-0.145386,1.06018,-4.71603,-3.49899,26.7749,-0.436127,2.51086,0,-293.69,842.886,-0.140625,-0.755906,60.508,3076750
-0.399841,0.0617065,0.993042,-1.36917,-3.49899,34.2293,-0.432068,2.50818,0,-212.682,974.754,-0.164062,-0.755906,60.5268,3076765
0.285889,-0.0622559,0.62738,4.86816,1.97769,45.639,-0.42366,2.50211,0,-170.555,865.464,-0.164062,-0.755906,60.5469,3076795
-0.776611,0.10376,1.11841,-1.5213,-1.06491,51.8764,-0.419373,2.49876,0,-131.362,1007.3,-0.164062,-0.755906,60.567,3076810
0.18042,-0.0999146,1.09076,-3.49899,-1.36917,56.4403,-0.4151,2.495,0,-92.8428,944.376,-0.164062,-0.755906,60.5877,3076825
-0.136414,-0.0894165,0.870544,4.5639,1.5213,62.3734,-0.410599,2.49121,0,-74.1873,945.537,-0.164062,-0.755906,60.6071,3076840
0.0410156,-0.172913,0.809509,10.497,-1.5213,71.5012,-0.401306,2.48309,0,-47.1754,954.244,-0.101562,-0.314961,60.6276,3076870
-0.277283,0.0115356,1.03516,-3.49899,3.49899,75.9129,-0.396423,2.47878,0,-27.8036,667.624,-0.0625,-0.0708661,60.6487,3076885
0.071228,-0.227112,0.888123,7.45438,3.34686,81.6939,-0.386261,2.46983,0,-42.2519,707.689,-0.0234375,0.0078125,60.6681,3076915
-0.136292,-0.102539,1.13971,3.34686,1.36917,78.6513,-0.380753,2.46526,0,-152.198,489.333,-0.0078125,0.0078125,60.6886,3076930
0.213806,-0.341248,0.95752,6.99799,4.10751,75.7608,-0.374863,2.4606,0,-227.311,570.06,-0.0078125,0.0078125,60.7081,3076945
0.222656,-0.294067,0.967773,1.21704,6.99799,61.0042,-0.361053,2.4514,0,-349.04,561.514,-0.0078125,0.0078125,60.7277,3076975
0.458984,-0.111511,0.886536,-7.91077,-6.38947,62.6776,-0.353363,2.44716,0,-355.682,436.196,-0.0078125,0.0078125,60.7477,3076990
-0.403687,-0.074707,1.22345,2.89047,6.69373,59.1786,-0.345474,2.44289,0,-298.094,489.237,-0.0078125,0.0078125,60.7671,3077005
0.0575562,-0.0361938,1.14624,10.3448,1.5213,41.0751,-0.328918,2.43466,0,-314.021,513.479,-0.0078125,0.0078125,60.7871,3077035
-0.218628,-0.0310059,0.794006,1.67343,1.82556,34.9899,-0.32045,2.43056,0,-296.899,530.898,-0.0078125,0.0078125,60.8068,3077050
0.963928,-0.123291,0.826904,1.5213,-5.47668,31.1867,-0.311661,2.42686,0,-283.785,430.71,-0.0078125,0.0078125,60.8272,3077065
-0.34967,-0.0205078,1.00403,0.30426,4.25964,15.0609,-0.293289,2.4205,0,-304.897,344.893,-0.0078125,0.0078125,60.8472,3077095
0.25531,-0.0928345,1.07092,-1.36917,-0.912781,9.88846,-0.284027,2.41708,0,-382.512,414.456,-0.0078125,0.0078125,60.8677,3077110
0.538635,-0.158325,0.862366,0.760651,-3.34686,3.34686,-0.274368,2.41408,0,-365.07,331.066,-0.0078125,0.0078125,60.8875,3077125
-0.0389404,-0.0322266,0.938538,-2.28195,-2.28195,-0.15213,-0.254456,2.40836,0,-343.106,406.488,-0.0078125,0.0078125,60.9074,3077155
0.0557251,-0.0686646,0.983154,-1.82556,-3.95538,0.15213,-0.244385,2.40536,0,-367.357,336.491,-0.0078125,0.0078125,60.9276,3077170
-0.0350952,-0.0363159,0.991455,-2.43408,-4.71603,-1.06491,-0.234222,2.40233,0,-356.882,261.117,-0.0078125,0.0078125,60.9476,3077185
0.0753174,-0.159729,0.942322,4.25964,0.912781,-2.73834,-0.213669,2.39601,0,-312.086,303.587,-0.0078125,0.0078125,60.9675,3077215
-0.0630493,-0.0843506,1.01257,-2.73834,-1.97769,-2.43408,-0.20314,2.39273,0,-296.661,304.767,-0.0078125,0.0078125,60.9881,3077230
0.0584717,-0.0385132,0.987793,-0.30426,-0.760651,2.43408,-0.192505,2.38939,0,-291.962,263.296,-0.0078125,-0.181102,61.0075,3077245
0.000732422,0.0186768,0.960388,-2.89047,-3.80325,-0.608521,-0.171097,2.38606,0,-276.438,299.312,-0.0078125,-0.559055,61.0275,3077275
0.0487671,-0.00915527,1.03619,-2.58621,-0,0.608521,-0.16037,2.38606,0,-267.319,263.477,-0.0078125,-0.811024,61.0476,3077290
0.0552979,-0.0428467,0.788818,0.15213,1.06491,-1.21704,-0.149551,2.38606,0,-280.018,704.771,-0.0078125,-1,61.0675,3077305
-0.000610352,0.383911,1.06366,-17.3428,0.608521,10.497,-0.128403,2.38597,0,-333.111,672.948,-0.0078125,-1,61.0877,3077335
0.196838,0.186157,0.811157,-11.5619,-3.19473,15.0609,-0.118286,2.38617,0,-296.406,1002.41,-0.0078125,-1,61.1102,3077350
-0.357727,0.208252,0.947327,0.15213,-4.10751,18.5599,-0.108444,2.38632,0,-334.599,1012.09,-0.0078125,-1,61.128,3077365
0.308716,0.0831299,0.673706,-0.912781,-15.5173,24.0366,-0.089325,2.38675,0,-344.744,1071.07,-0.0078125,-1,61.1477,3077395
-0.229614,0.236511,0.94342,-1.97769,0.608521,26.4706,-0.0799408,2.38722,0,-456.194,1039.18,-0.0078125,-1,61.1671,3077410
-0.621033,0.333252,1.3985,-4.25964,1.67343,32.0995,-0.0710754,2.38727,0,-385.736,1014.56,-0.0078125,-1,61.1884,3077425
0.237488,0.114807,0.772705,5.32455,-1.5213,39.2496,-0.0548096,2.38631,0,-421.452,1037.51,-0.0078125,-1,61.2076,3077454
0.350037,0.197266,0.657471,-1.97769,-1.5213,42.4443,-0.046814,2.38625,0,-484.203,1175.64,-0.0078125,-1,61.2276,3077469
-0.417114,0.249084,1.44354,4.41177,12.3225,46.3997,-0.0390625,2.38623,0,-418.34,1160.03,-0.0078125,-1,61.2477,3077484
0.404053,0.136047,0.409912,2.28195,2.73834,55.5275,-0.0250092,2.38512,0,-415.74,882.807,-0.0078125,-1,61.2708,3077514
-0.180115,0.251648,0.991089,0.608521,-6.23734,57.9616,-0.01828,2.38477,0,-360.055,899.119,-0.0078125,-1,61.2877,3077529
-0.622009,0.313477,1.25671,-13.996,5.62881,63.5904,-0.0120544,2.38405,0,-450.593,808.669,-0.0078125,-1,61.3075,3077544
0.337097,0.0315552,0.835571,10.0406,-13.8438,70.2841,-0.000762939,2.38206,0,-439.792,1001.3,-0.0859375,-1,61.3276,3077574
-0.705078,0.303162,1.14563,4.10751,0.760651,72.5661,0.00457764,2.38101,0,-433.36,763.301,-0.0859375,-1,61.3476,3077589
-0.5495,0.197205,0.747559,7.91077,7.15012,78.6513,0.00932312,2.37932,0,-369.222,710.303,-0.09375,-1,61.3669,3077604
0.490662,0.14679,0.804016,7.60651,-3.34686,95.6898,0.0187225,2.37651,0,-352.74,826.959,-0.09375,-0.677165,61.3883,3077634
-0.235168,0.323853,1.32257,-6.38947,-2.58621,104.209,0.023407,2.3757,0,-180.722,726.771,-0.09375,-0.299213,61.4108,3077649
-0.757996,0.191345,0.582642,4.86816,-1.5213,112.576,0.0275421,2.37444,0,-148.104,809.487,-0.09375,0.0078125,61.427,3077664
0.668457,-0.177429,0.877869,6.38947,0.608521,115.315,0.0353394,2.37085,0,-148.304,752.134,-0.09375,0.0078125,61.4472,3077694
0.318726,-0.146118,1.07812,9.27994,1.67343,104.513,0.0400085,2.36957,0,-115.628,728.306,-0.09375,0.0078125,61.4679,3077709
-0.660645,-0.0351562,1.02936,2.12982,3.0426,99.6452,0.0447388,2.36801,0,-89.2698,672.812,-0.09375,0.0078125,61.4877,3077724
-0.353027,-0.0784912,1.20087,1.67343,1.06491,99.4931,0.0546722,2.36444,0,-74.1122,671.524,-0.09375,0.0078125,61.5077,3077754
0.142761,-0.117554,0.697998,0.912781,8.36716,103.144,0.0598602,2.36241,0,-74.087,595.539,-0.09375,0.0078125,61.5275,3077769
0.618103,-0.185852,0.967651,10.6491,-4.41177,103.144,0.065567,2.3607,0,-71.2789,672.902,-0.09375,0.0078125,61.5468,3077784
-0.186951,-0.149353,0.838135,5.32455,0.760651,96.1462,0.0782776,2.3578,0,-57.9448,602.5,-0.09375,0.0078125,61.5667,3077814
0.360962,-0.0200806,1.00391,1.82556,-4.10751,94.1685,0.0849609,2.35631,0,-68.4243,599.862,-0.09375,0.0078125,61.5911,3077829
-0.353271,-0.0824585,0.950806,2.12982,0.608521,92.4951,0.0917511,2.35477,0,-39.4358,532.439,-0.0234375,0.0078125,61.6069,3077844
0.454163,-0.0221558,1.18994,3.65112,1.21704,90.061,0.106567,2.35204,0,-38.5108,597.836,-0.0078125,0.0078125,61.6271,3077874
-0.586975,-0.000793457,0.84729,-0.912781,5.02029,87.627,0.114273,2.3508,0,-73.5118,468.099,-0.0078125,0.0078125,61.647,3077889
0.384583,-0.155029,0.802368,2.89047,3.19473,86.7142,0.122025,2.34937,0,-121.097,380.134,-0.0078125,0.0078125,61.6672,3077904
-0.2724,-0.0134277,1.16553,-4.25964,4.71603,78.6513,0.138657,2.34711,0,-149.541,531.152,-0.0078125,0.0078125,61.6875,3077934
0.333252,-0.193359,0.55072,3.65112,1.36917,75.9129,0.147202,2.3459,0,-159.499,388.719,-0.0078125,0.0078125,61.7077,3077949
0.601746,-0.0640869,1.14783,2.28195,-4.25964,70.132,0.156311,2.34506,0,-182.547,351.952,-0.0078125,0.0078125,61.7276,3077964
0.404541,-0.177795,0.636963,5.78094,8.82355,61.6127,0.175369,2.34377,0,-193.508,319.959,-0.0078125,0.0078125,61.7484,3077994
0.25354,-0.00427246,1.03851,8.0629,6.38947,54.919,0.185425,2.34335,0,-202.372,384.135,-0.0078125,0.0078125,61.7676,3078009
-0.162109,0.104248,0.894714,-13.3875,-3.19473,47.7689,0.19548,2.34303,0,-225.828,310.308,-0.0078125,0.0078125,61.7877,3078024
0.467957,-0.179932,1.3382,2.73834,4.41177,32.708,0.216568,2.34283,0,-169.47,294.118,0.0314961,0.0078125,61.8079,3078054
-0.172485,-0.0567627,0.737793,2.28195,9.73633,26.4706,0.227692,2.34288,0,-216.99,257.086,0.165354,0.0078125,61.8278,3078069
-0.00750732,-0.0561523,1.42902,-1.82556,-2.89047,21.6025,0.238785,2.34277,0,-190.318,213.379,0.338583,0.0078125,61.8478,3078084
0.268127,-0.0236206,0.991821,-0.912781,-4.10751,10.497,0.261932,2.34296,0,-181.544,210.724,0.440945,0.0390625,61.8688,3078114
-0.0749512,-0.0357666,0.909546,3.19473,7.30225,4.5639,0.273819,2.3432,0,-180.652,197.04,0.503937,0.078125,61.8877,3078129
0.606628,-0.0489502,1.10815,-3.0426,-0.15213,-0.912781,0.285995,2.34366,0,-406.711,175.133,0.519685,0.148438,61.9077,3078144
0.159607,-0.00756836,0.894531,-1.06491,-6.69373,-13.3875,0.310837,2.34532,0,-384.919,83.6369,0.535433,0.210938,61.9278,3078174
0.418396,-0.353638,1.14935,10.6491,-7.60651,-24.7972,0.323715,2.3463,0,-438.529,32.4684,0.559055,0.265625,61.9478,3078189
0.40918,-0.215881,0.920532,13.3875,-11.8661,-43.5092,0.337234,2.3474,0,-550.509,32.4684,0.574803,0.390625,61.9679,3078204
0.123108,-0.0948486,0.71991,-3.49899,-0,-58.7222,0.365402,2.3501,0,-479.939,32.4684,0.598425,0.515625,61.9877,3078234
0.341492,-0.108704,0.673218,-9.73633,9.73633,-63.2861,0.379913,2.35162,0,-465.723,5.50058,0.614173,0.570312,62.0067,3078249
0.25177,-0.0861816,1.06128,-13.2353,14.4524,-67.6979,0.394745,2.35333,0,-549.813,-132.238,0.614173,0.570312,62.0278,3078264
0.404663,-0.281738,1.16016,1.21704,2.28195,-92.1909,0.425873,2.35727,0,-552.151,-223.967,0.614173,0.609375,62.0469,3078294
0.328918,-0.20813,0.914612,1.67343,-6.5416,-106.491,0.442261,2.35945,0,-639.202,-228.788,0.614173,0.625,62.0671,3078309
0.458008,-0.170349,0.763916,0.608521,-13.8438,-116.075,0.459137,2.36185,0,-605.107,-376.152,0.614173,0.632812,62.0871,3078324
0.378174,-0.10675,0.70636,-4.10751,4.71603,-130.984,0.494278,2.36737,0,-506.894,-346.807,0.614173,0.632812,62.1069,3078354
0.219421,-0.272766,1.98694,-0.15213,-47.1603,-146.501,0.530853,2.37357,0,-586.321,-396.393,0.622047,0.632812,62.136,3078384
0.219421,-0.272766,1.98694,-0.15213,-47.1603,-146.501,0.530853,2.37357,0,-611.546,-441.16,0.622047,0.632812,62.1469,3078384
-0.0800171,-0.0142212,1.38428,4.10751,6.38947,-154.564,0.56813,2.37923,0,-559.863,-433.52,0.622047,0.632812,62.167,3078414
0.0125732,-0.0741577,0.81073,7.75864,3.65112,-163.692,0.586685,2.38181,0,-656.793,-493.145,0.622047,0.632812,62.1872,3078429
0.050415,0.0494995,0.995605,-13.2353,-3.19473,-168.864,0.605209,2.38434,0,-620.771,-523.999,0.622047,0.632812,62.2074,3078444
0.0634766,-0.00823975,0.987,-0,-1.06491,-176.319,0.642609,2.39009,0,-642.715,-591.226,0.622047,0.632812,62.2272,3078474
0.0512085,0.0922852,1.05945,-8.0629,-4.25964,-179.057,0.661285,2.3931,0,-647.836,-531.434,0.622047,0.632812,62.247,3078489
0.304016,0.0234985,1.16547,-12.1704,-4.5639,-183.013,0.679916,2.39627,0,-684.392,-678.587,0.622047,0.632812,62.2671,3078504
0.288818,0.003479,1.04083,0.45639,1.06491,-188.641,0.717072,2.40324,0,-579.643,-529.998,0.622047,0.632812,62.2874,3078534
0.0281982,0.0197754,0.733765,1.82556,2.12982,-191.836,0.735641,2.40695,0,-730.887,-652.358,0.622047,0.632812,62.3083,3078549
0.0124512,0.143738,1.03113,-6.5416,4.86816,-193.814,0.754059,2.41066,0,-710.884,-717.026,0.622047,0.640625,62.3276,3078564
0.00317383,0.0546875,1.06665,-3.19473,-1.5213,-198.834,0.790466,2.41829,0,-535.003,-725.637,0.622047,0.640625,62.3476,3078594
0.121399,-0.0194702,0.758301,-0,-0.760651,-201.116,0.808563,2.42212,0,-650.576,-650.111,0.559055,0.640625,62.3676,3078609
0.117371,0.0239868,1.11572,0.912781,1.06491,-202.789,0.826645,2.42604,0,-557.6,-663.218,0.385827,0.507812,62.3899,3078624
0.0758057,0.171814,1.06616,0.15213,8.21503,-205.832,0.862762,2.4343,0,-523.547,-661.091,0.283465,0.429688,62.4097,3078654
0.211792,0.0477905,0.749268,-1.97769,7.15012,-205.071,0.88063,2.43863,0,-425.487,-760.254,0.149606,0.398438,62.4279,3078669
0.0383911,0.200439,0.904785,-5.17242,-5.02029,-202.942,0.898331,2.4431,0,-354.126,-605.749,0.11811,0.390625,62.4477,3078684
-0.137329,0.227112,0.985718,0.608521,0.45639,-191.532,0.932816,2.45168,0,-243.155,-583.908,0.0866142,0.382812,62.4681,3078714
-0.024292,0.202515,1.19312,-0,1.21704,-189.25,0.949539,2.45572,0,-145.238,-516.502,0.0314961,0.382812,62.4876,3078729
