raw_accel_x,raw_accel_y,raw_accel_z,world_accel_x,world_accel_y,yaw,left_encoder_rate,right_encoder_rate,fpga time,navx time
0.0254517,0.00323486,1.01788,0,0,-0.67,0,0,373.473,8606676
0.0248413,0.0032959,1.01654,0,0,-0.67,0,0,373.492,8606691
0.0244141,0,1.01703,0,-0.003,-0.67,0,0,373.512,8606706
0.0240479,0.00256348,1.01648,-0.001,-0.001,-0.67,0,0,373.532,8606736
0.0274048,0.00201416,1.01709,0.002,-0.001,-0.67,0,0,373.552,8606751
0.0238037,0.00311279,1.02197,-0.001,0,-0.67,0,0,373.573,8606766
0.0261841,0.00427246,1.01593,0,0,-0.67,0,0,373.593,8606796
0.0264282,0.00268555,1.01123,0.001,0,-0.67,0,0,373.613,8606811
0.0251465,0.00152588,1.01434,0,-0.002,-0.67,0,0,373.633,8606826
0.0253296,0.00439453,1.01465,0,0,-0.67,0,0,373.653,8606856
0.0250244,-0.000610352,1.02264,0,-0.004,-0.67,0,0,373.672,8606871
0.0251465,0.00189209,1.01123,0,-0.001,-0.67,0,0,373.692,8606886
0.0268555,0.00189209,1.00903,0.001,-0.001,-0.67,0,0,373.712,8606916
0.0247192,0.00494385,1.0166,0,0.001,-0.67,0,0,373.732,8606931
0.0248413,0.00213623,1.01422,0,-0.001,-0.67,0,0,373.752,8606946
0.0256958,0.0045166,1.01758,0,0,-0.68,0,0,373.773,8606976
0.027832,0.00256348,1.01501,0.002,0,-0.68,0,0,373.793,8606991
0.0244751,0.00408936,1.01355,0,0,-0.68,0,0,373.813,8607006
0.0230103,0.00598145,1.02045,-0.002,0.002,-0.68,0,0,373.833,8607036
0.0262451,0.00372314,1.01807,0,0,-0.68,0,0,373.853,8607051
0.0263062,0.00262451,1.0174,0.001,0,-0.68,0,0,373.872,8607066
0.0250854,0.0032959,1.01404,0,0,-0.68,0,0,373.892,8607096
0.0233154,0.00274658,1.01776,-0.001,0,-0.68,0,0,373.913,8607111
0.0255127,0.00494385,1.01245,0,0.001,-0.68,0,0,373.935,8607126
0.0256348,0.00219727,1.01196,0,-0.001,-0.68,0,0,373.952,8607156
0.0252075,0.00506592,1.01636,0,0.001,-0.68,0,0,373.973,8607171
0.0268555,0.00592041,1.00787,0.001,0.002,-0.68,0,0,373.992,8607186
0.0244751,0.00360107,1.01581,0,0,-0.68,0,0,374.015,8607216
0.0267334,0.00360107,1.01617,0.001,0,-0.68,0,0,374.033,8607231
0.027832,0.00183105,1.01575,0.002,-0.001,-0.68,0,0,374.052,8607246
0.0248413,0.00128174,1.01819,0,-0.002,-0.68,0,0,374.072,8607276
0.0256348,0.00262451,1.01501,0,-0.001,-0.68,0,0,374.092,8607291
0.0257568,0.003479,1.01727,0,0,-0.68,0,0,374.113,8607306
0.0236816,0.00421143,1.01239,-0.001,0,-0.68,0,0,374.133,8607336
0.0246582,0.00195312,1.01654,0,-0.001,-0.68,0,0,374.152,8607351
0.0275269,0.0043335,1.0127,0.002,0,-0.68,0,0,374.172,8607366
0.026123,0.00354004,1.0155,0,0,-0.68,0,0,374.192,8607396
0.0231934,0.00439453,1.0213,-0.002,0,-0.69,0,0,374.217,8607411
0.0258179,0.00299072,1.01038,0,0,-0.69,0,0,374.233,8607426
0.026123,0.00170898,1.01495,0.001,-0.001,-0.69,0,0,374.253,8607456
0.0264282,0.00561523,1.01404,0.001,0.001,-0.69,0,0,374.273,8607471
0.0202026,0.00408936,1.01477,-0.004,0,-0.69,0,0,374.292,8607486
0.0255127,0.00384521,1.01581,0,0,-0.69,0,0,374.312,8607516
0.0264893,0.00366211,1.01477,0.001,0,-0.69,0,0,374.333,8607531
0.0237427,0.00268555,1.01868,-0.001,-0.001,-0.69,0,0,374.352,8607546
0.0248413,0.00292969,1.01611,0,0,-0.69,0,0,374.375,8607576
0.0253296,0.00109863,1.01611,0,-0.002,-0.69,0,0,374.392,8607591
0.0224609,0.00219727,1.01404,-0.002,-0.001,-0.69,0,0,374.413,8607607
0.0257568,0.00427246,1.01123,0,0,-0.69,0,0,374.433,8607637
0.0256958,0.00396729,1.01251,0,0,-0.69,0,0,374.453,8607652
0.0274658,0.000427246,1.01282,0.002,-0.003,-0.69,0,0,374.472,8607667
0.0269165,0.00476074,1.01611,0.001,0.001,-0.69,0,0,374.492,8607697
0.0247803,0.00360107,1.00952,0,0,-0.69,0,0,374.513,8607712
0.0259399,-0.00012207,1.01501,0,-0.003,-0.69,0,0,374.532,8607727
0.0244141,0.00463867,1.01935,0,0.001,-0.69,0,0,374.554,8607757
0.0263062,0.00378418,1.00983,0.001,0,-0.69,0,0,374.574,8607772
0.0255737,0.00262451,1.013,0,0,-0.69,0,0,374.607,8607802
0.0251465,0.00360107,1.01733,0,0,-0.69,0,0,374.618,8607817
0.0261841,0.00396729,1.01062,0.001,0,-0.69,0,0,374.633,8607832
0.0222778,0.00238037,1.0155,-0.002,-0.001,-0.69,0,0,374.654,8607847
0.0263672,0.00384521,1.01373,0.001,0,-0.69,0,0,374.675,8607877
0.0272217,0.00537109,1.01825,0.001,0.001,-0.69,0,0,374.693,8607892
0.0253906,0.00256348,1.01093,0,-0.001,-0.69,0,0,374.715,8607907
0.0245361,0.00213623,1.01306,0,-0.001,-0.69,0,0,374.732,8607937
0.0268555,0.00201416,1.01166,0.001,-0.001,-0.69,0,0,374.759,8607952
0.026062,0.00646973,1.01416,0,0.002,-0.69,0,0,374.775,8607967
0.0255127,0.00134277,1.02094,0,-0.002,-0.69,0,0,374.793,8607997
0.0223389,0.003479,1.01715,-0.002,0,-0.69,0,0,374.823,8608027
0.0258179,0.00439453,1.01575,0,0,-0.69,0,0,374.874,8608072
0.027832,0.00244141,1.01019,0.002,-0.001,-0.69,0,0,374.892,8608087
0.024292,0.00390625,1.02057,0,0,-0.69,0,0,374.913,8608117
0.024292,0.00427246,1.01788,0,0,-0.69,0,0,374.933,8608132
0.0253906,0.00415039,1.01166,0,0,-0.69,0,0,374.952,8608147
0.0290527,0.00427246,1.01141,0.004,0,-0.69,0,0,374.972,8608177
0.0221558,0.00280762,1.01813,-0.003,0,-0.69,0,0,374.992,8608192
0.024231,0.00494385,1.01367,0,0.001,-0.69,0,0,375.011,8608207
0.0238647,0.00518799,1.0202,-0.001,0.001,-0.69,0,0,375.036,8608237
0.0264282,0.00543213,1.01917,0.001,0.001,-0.69,0,0,375.052,8608252
0.0215454,0.00469971,1.01886,-0.003,0,-0.69,0,0,375.072,8608267
0.0239868,0.00543213,1.01184,-0.001,0.001,-0.69,0,0,375.092,8608297
0.0279541,0.00280762,1.01611,0.002,0,-0.69,0,0,375.112,8608312
0.0280762,0.00372314,1.01776,0.002,0,-0.69,0,0,375.135,8608327
0.0255127,0.00494385,1.01904,0,0.001,-0.69,0,0,375.159,8608357
0.0283813,0.00109863,1.01843,0.003,-0.002,-0.69,0,0,375.175,8608372
0.0247803,0.00476074,1.01978,0,0.001,-0.69,0,0,375.197,8608402
0.0240479,0.00213623,1.01031,0,-0.001,-0.69,0,0,375.214,8608417
0.024292,0.00415039,1.01965,0,0,-0.69,0,0,375.234,8608432
0.0256348,0.00506592,1.00757,0,0.001,-0.69,0,0,375.252,8608447
0.0270386,0.00384521,1.01587,0.001,0,-0.69,0,0,375.274,8608477
0.0230713,0.00341797,1.01471,-0.002,0,-0.69,0,0,375.293,8608492
0.0266113,0.00280762,1.01367,0.001,0,-0.69,0,0,375.312,8608507
0.0232544,0.003479,1.01135,-0.001,0,-0.69,0,0,375.373,8608567
0.0258179,0.00567627,1.01331,0,0.002,-0.69,0,0,375.399,8608597
0.0258789,0.00256348,1.01599,0,-0.001,-0.69,0,0,375.413,8608612
0.0258789,0.00238037,1.01434,0,-0.001,-0.69,0,0,375.434,8608627
0.0269165,0.00183105,1.01294,0.001,-0.001,-0.69,0,0,375.452,8608657
0.0258179,0.00201416,1.01489,0,-0.001,-0.69,0,0,375.474,8608672
0.0262451,0.0045166,1.01508,0.001,0,-0.69,0,0,375.493,8608687
0.0253296,0.00585938,1.01599,0,0.002,-0.69,0,0,375.513,8608717
0.026123,0.00219727,1.01642,0,-0.001,-0.69,0,0,375.54,8608732
0.024353,0.00598145,1.01544,0,0.002,-0.69,0,0,375.553,8608747
0.0263062,0.00482178,1.01593,0.001,0.001,-0.69,0,0,375.572,8608777
0.0247803,0.003479,1.01715,0,0,-0.69,0,0,375.592,8608792
0.0241699,0.00390625,1.01074,0,0,-0.69,0,0,375.613,8608807
0.0246582,0.000610352,1.01746,0,-0.002,-0.7,0,0,375.634,8608837
0.0256958,0.00231934,1.01373,0,-0.001,-0.7,0,0,375.659,8608852
0.0275269,0.0012207,1.01703,0.002,-0.002,-0.7,0,0,375.682,8608883
0.0284424,0.00421143,1.01843,0.003,0,-0.7,0,0,375.695,8608897
0.0263672,0.0022583,1.0144,0.001,-0.001,-0.7,0,0,375.714,8608912
0.0238647,0.00152588,1.01208,-0.001,-0.002,-0.7,0,0,375.732,8608927
0.0244141,0.00317383,1.01575,0,0,-0.7,0,0,375.811,8609017
0.0219727,0.00213623,1.01392,-0.003,-0.001,-0.71,0,0,375.912,8609107
0.0239868,0.00177002,1.01178,-0.001,-0.001,-0.71,0,0,375.934,8609137
0.0256958,0.00170898,1.01965,0,-0.001,-0.71,0,0,376.025,8609228
0.0268555,0.00244141,1.01721,0.001,0,-0.71,0,0,376.038,8609243
0.0249634,-0.00115967,1.01593,0,-0.004,-0.71,0,0,376.059,8609258
0.0258789,0.00274658,1.01477,0,0,-0.71,0,0,376.073,8609273
0.0240479,0.00189209,1.01941,-0.001,-0.001,-0.71,0,0,376.094,8609288
0.0249634,0.00219727,1.01855,0,-0.001,-0.71,0,0,376.119,8609318
0.0253296,0.00396729,1.01349,0,0,-0.71,0,0,376.132,8609333
0.0241699,0.00384521,1.01459,0,0,-0.71,0,0,376.157,8609348
0.0248413,0.00512695,1.01208,0,0.001,-0.71,0,0,376.172,8609378
0.0233765,0.00195312,1.02014,-0.001,-0.001,-0.71,0,0,376.193,8609393
0.027771,0.00262451,1.0155,0.002,0,-0.71,0,0,376.213,8609408
0.0250244,0.00170898,1.01526,0,-0.001,-0.71,0,0,376.232,8609438
0.0231323,0.00256348,1.01685,-0.002,0,-0.71,0,0,376.256,8609453
0.0257568,0.00323486,1.02161,0,0,-0.71,0,0,376.273,8609468
0.0223999,0.00268555,1.01569,-0.002,0,-0.71,0,0,376.292,8609498
0.0284424,0.00262451,1.013,0.003,0,-0.71,0,0,376.312,8609513
0.0249023,0.0043335,1.01257,0,0.001,-0.71,0,0,376.332,8609528
0.0256348,0.00372314,1.01404,0,0,-0.71,0,0,376.356,8609558
0.0238647,0.00482178,1.01569,-0.001,0.001,-0.71,0,0,376.372,8609573
0.0257568,0.00402832,1.01526,0,0,-0.71,0,0,376.415,8609618
0.0254517,0.00012207,1.01886,0,-0.003,-0.71,0,0,376.437,8609633
0.0252686,0.00500488,1.0199,0,0.001,-0.71,0,0,376.459,8609663
0.0241089,0.00427246,1.01233,0,0.001,-0.71,0,0,376.479,8609678
0.0258789,0.00439453,1.01477,0,0.001,-0.71,0,0,376.501,8609708
0.0258789,0.00439453,1.01477,0,0.001,-0.71,0,0,376.512,8609708
0.0250854,0.00341797,1.01855,0,0,-0.71,0,0,376.532,8609738
0.0253296,0.00305176,1.01831,0,0,-0.71,0,0,376.563,8609768
0.0253296,0.00305176,1.01831,0,0,-0.71,0,0,376.576,8609768
0.026001,0.00250244,1.01514,0,0,-0.71,0,0,376.596,8609798
0.0263062,0.00305176,1.01355,0.001,0,-0.71,0,0,376.612,8609813
0.024353,0.00323486,1.01544,0,0,-0.71,0,0,376.632,8609828
0.0220337,0.00311279,1.01099,-0.002,0,-0.71,0,0,376.653,8609858
0.0269775,0.00360107,1.01703,0.001,0,-0.71,0,0,376.675,8609873
0.0251465,0.000793457,1.01068,0,-0.002,-0.71,0,0,376.692,8609888
0.0259399,0.00579834,1.01166,0,0.002,-0.71,0,0,376.712,8609918
0.0238647,0.00286865,1.01764,-0.001,0,-0.71,0,0,376.732,8609933
0.0241089,0.00299072,1.00983,0,0,-0.71,0,0,376.752,8609948
0.0245972,0.00268555,1.01831,0,0,-0.71,0,0,376.777,8609978
0.0247192,0.0045166,1.01672,0,0.001,-0.71,0,0,376.793,8609993
0.0250244,0.00231934,1.01953,0,0,-0.71,0,0,376.812,8610008
0.0258789,0.00421143,1.01837,0,0.001,-0.71,0,0,376.834,8610038
0.0258179,0.00341797,1.00952,0,0,-0.71,0,0,376.853,8610053
0.0249023,0.00280762,1.01538,0,0,-0.71,0,0,376.873,8610068
0.0235596,0.00531006,1.0155,-0.001,0.002,-0.71,0,0,376.893,8610098
0.0250244,0.00390625,1.0127,0,0,-0.71,0,0,376.912,8610113
0.0245972,0.00341797,1.01331,0,0,-0.71,0,0,376.935,8610128
0.0253296,0.00567627,1.01276,0,0.002,-0.71,0,0,376.952,8610158
0.0239258,0.00317383,1.01355,-0.001,0,-0.71,0,0,376.972,8610173
0.0285034,0.00415039,1.01703,0.003,0.001,-0.71,0,0,376.992,8610188
0.0275269,0.0022583,1.01483,0.002,0,-0.71,0,0,377.012,8610204
0.0251465,0.00189209,1.01697,0,-0.001,-0.71,0,0,377.032,8610233
0.0270386,0.00384521,1.01611,0.001,0,-0.71,0,0,377.052,8610248
0.0255737,0.000976562,1.01501,0,-0.002,-0.71,0,0,377.073,8610278
0.0228882,0.00152588,1.01459,-0.002,-0.001,-0.71,0,0,377.093,8610293
0.0237427,0.00695801,1.01837,-0.001,0.003,-0.71,0,0,377.112,8610308
0.0255127,0.00244141,1.01581,0,0,-0.71,0,0,377.132,8610338
0.0269165,0.00164795,1.01862,0.001,-0.001,-0.71,0,0,377.151,8610353
0.022644,0.00396729,1.01526,-0.002,0,-0.71,0,0,377.173,8610368
0.0238647,0.0022583,1.01605,-0.001,-0.001,-0.71,0,0,377.192,8610398
0.0247803,0.00500488,1.02228,0,0.001,-0.71,0,0,377.213,8610413
0.0251465,0.00341797,1.01276,0,0,-0.71,0,0,377.233,8610428
0.0238647,0.0020752,1.01202,-0.001,-0.001,-0.71,0,0,377.252,8610458
0.0222168,0.00341797,1.01837,-0.002,0,-0.71,0,0,377.272,8610473
0.0244141,0.00183105,1.01807,0,-0.001,-0.71,0,0,377.292,8610488
0.0245972,0.00250244,1.02069,0,0,-0.71,0,0,377.312,8610518
0.0265503,0.00244141,1.00983,0.001,0,-0.71,0,0,377.332,8610533
0.0229492,0.00286865,1.01642,-0.002,0,-0.71,0,0,377.352,8610548
0.0253296,0.00152588,1.01709,0,-0.001,-0.71,0,0,377.373,8610578
0.0272827,0.00439453,1.01306,0.002,0.001,-0.71,0,0,377.394,8610593
0.0217285,0.00280762,1.01117,-0.003,0,-0.71,0,0,377.412,8610608
0.0234375,0.00421143,1.01947,-0.001,0,-0.71,0,0,377.432,8610624
0.0247803,0.00360107,1.01886,0,0,-0.71,0,0,377.452,8610653
0.0273438,0.00628662,1.0105,0.002,0.003,-0.71,0,0,377.472,8610668
0.0284424,0.00390625,1.01721,0.003,0,-0.71,0,0,377.494,8610698
0.0244141,0.0022583,1.01721,0,-0.001,-0.71,0,0,377.512,8610713
0.0258179,0.0010376,1.01068,0.001,-0.002,-0.71,0,0,377.532,8610729
0.0239258,0.00152588,1.01202,0,-0.001,-0.71,0,0,377.552,8610744
0.0282593,0.00354004,1.0152,0.003,0,-0.7,0,0,377.572,8610774
0.0230103,0.00134277,1.01807,-0.001,-0.001,-0.7,0,0,377.596,8610789
0.0250854,0.00280762,1.01233,0,0,-0.7,0,0,377.612,8610804
0.0284424,0.0032959,1.01221,0.003,0,-0.71,0,0,377.633,8610834
0.022583,0.00561523,1.01825,-0.002,0.002,-0.71,0,0,377.652,8610849
0.0239258,0.00671387,1.01465,0,0.003,-0.71,0,0,377.673,8610879
0.0269775,0.000488281,1.02167,0.002,-0.002,-0.71,0,0,377.692,8610894
0.0254517,0.00177002,1.01459,0,-0.001,-0.71,0,0,377.712,8610909
0.0265503,0.00292969,1.02118,0.001,0,-0.71,0,0,377.732,8610924
0.0252686,0.00323486,1.01685,0,0,-0.71,0,0,377.755,8610954
0.0267944,0.00274658,1.00885,0.002,0,-0.71,0,0,377.773,8610969
0.0263062,0.00372314,1.01581,0.001,0,-0.7,0,0,377.793,8610999
0.0239258,0.00299072,1.01324,0,0,-0.7,0,0,377.812,8611014
0.0252686,0.00299072,1.01575,0,0,-0.7,0,0,377.832,8611029
0.0245361,0.00494385,1.02002,0,0.001,-0.7,0,0,377.852,8611059
0.0273438,0.00396729,1.01105,0.002,0,-0.7,0,0,377.873,8611074
0.0274048,0.00482178,1.01526,0.002,0.001,-0.7,0,0,377.893,8611089
0.0256958,0.00427246,1.01312,0,0,-0.7,0,0,377.912,8611104
0.0233765,0.00213623,1.01813,-0.001,-0.001,-0.7,0,0,377.932,8611134
0.0279541,0.00274658,1.01471,0.003,0,-0.71,0,0,377.952,8611149
0.0250854,0.00476074,1.01031,0,0.001,-0.7,0,0,377.974,8611179
0.0291748,0.0116577,1.0177,0.004,0.008,-0.7,0,0,378.013,8611209
0.0493164,-0.0794678,1.00629,0.025,-0.082,-0.71,-32.3158,0,378.04,8611239
0.060791,-0.0115967,1.01886,0.035,-0.013,-0.71,-21.6402,58.3674,378.074,8611269
0.06427,-0.127625,1.01331,0.04,-0.126,-0.69,-71.2022,70.5764,378.112,8611314
0.0195312,-0.138,1.01849,-0.004,-0.132,-0.69,-138.988,103.898,378.152,8611359
-0.03479,-0.151306,1.03564,-0.059,-0.145,-0.7,-115.246,146.548,378.175,8611374
0.0985718,-0.172424,0.998779,0.075,-0.161,-0.7,-182.158,186.454,378.213,8611404
0.0679932,-0.102173,1.00311,0.043,-0.087,-0.71,-262.926,232.41,378.252,8611449
0.0256348,-0.104309,1.03253,0,-0.088,-0.71,-211.793,251.256,378.274,8611464
0.0841064,-0.140869,1.03571,0.059,-0.121,-0.71,-299.491,233.152,378.313,8611509
-0.0733032,-0.0723267,1.23083,-0.104,-0.048,-0.72,-306.466,317.96,378.352,8611554
-0.0342407,-0.0302124,0.994019,-0.06,-0.01,-0.72,-343.059,285.051,378.373,8611569
-0.0777588,-0.0343628,0.990845,-0.103,-0.013,-0.73,-363.273,312.656,378.416,8611614
0.120483,-0.0643311,1.03259,0.094,-0.039,-0.72,-344.163,376.152,378.452,8611644
0.0430908,-0.0189209,0.93634,0.018,0.003,-0.74,-366.629,332.84,378.474,8611674
-0.0115967,-0.0167236,1.05402,-0.039,0.007,-0.73,-447.828,314.614,378.511,8611705
0.0830688,-0.0484009,0.920288,0.058,-0.025,-0.74,-390.389,404.678,378.552,8611749
0.0599976,0.00189209,0.915649,0.035,0.024,-0.75,-355.013,401.445,378.575,8611779
0.112854,-0.0718994,1.08514,0.084,-0.045,-0.76,-378.551,421.505,378.612,8611809
-0.00158691,-0.0704346,0.90387,-0.026,-0.049,-0.75,-357.207,370.13,378.652,8611854
0.152039,-0.00341797,1.03827,0.123,0.022,-0.75,-427.707,426.639,378.674,8611869
-0.0259399,-0.0253296,1.15198,-0.057,-0.001,-0.75,-401.437,406.628,378.791,8611989
-0.0437622,0.0165405,1.04211,-0.074,0.037,-0.77,-430.469,393.236,378.914,8612109
0.258179,-0.012207,0.825623,0.235,0.007,-0.77,-484.391,401.324,378.933,8612139
0.0098877,0.00170898,0.860168,-0.014,0.018,-0.79,-476.44,461.095,378.972,8612169
0.14325,0.0551758,0.770508,0.119,0.071,-0.79,-387.267,420.61,379.018,8612214
0.0697021,-0.0687866,1.19562,0.033,-0.045,-0.79,-439.638,476.327,379.034,8612229
-0.0892944,0.0245972,0.922302,-0.117,0.039,-0.8,-411.853,470.577,379.072,8612274
-0.0376587,0.0612183,1.09015,-0.072,0.078,-0.81,-441.755,398.422,379.112,8612320
-0.0722656,0.0513916,1.09393,-0.106,0.067,-0.81,-466.952,345.967,379.133,8612335
-0.00897217,-0.0292358,1.19843,-0.044,-0.011,-0.8,-472.188,414.972,379.172,8612365
0.0185547,0.0755615,1.04803,-0.013,0.09,-0.81,-485.19,423.012,379.214,8612410
-0.069397,0.00878906,0.976013,-0.098,0.021,-0.82,-423.218,467.191,379.24,8612440
0.0263672,-0.003479,1.41632,-0.014,0.015,-0.82,-445.553,412.193,379.273,8612470
-0.0840454,0.0397949,1.1123,-0.118,0.053,-0.83,-416.034,424.872,379.313,8612515
0.0767212,0.0455322,0.954102,0.048,0.058,-0.83,-368.08,361.161,379.343,8612545
0.02948,-0.0418091,0.858032,0.004,-0.03,-0.83,-265.421,419.622,379.374,8612575
0.0283813,-0.057373,1.08905,-0.002,-0.043,-0.84,-448.049,387.162,379.412,8612605
0.0845947,-0.0348511,1.04041,0.054,-0.021,-0.84,-435.152,337.975,379.456,8612650
0.0649414,0.0431519,1.19159,0.028,0.058,-0.85,-375.537,429.895,379.474,8612680
0.00415039,0.00482178,1.14081,-0.031,0.018,-0.85,-408.563,426.185,379.517,8612710
-0.0162354,-0.020874,0.90625,-0.043,-0.01,-0.87,-370.824,468.823,379.552,8612755
0.138855,-0.000915527,0.929321,0.11,0.012,-0.88,-456.288,418.594,379.572,8612770
0.02948,-0.0249023,1.1236,-0.004,-0.011,-0.88,-392.596,403.853,379.612,8612815
-0.00476074,-0.00604248,1.04364,-0.037,0.005,-0.87,-446.269,450.349,379.652,8612845
-0.0647583,0.0609741,0.980042,-0.097,0.07,-0.88,-423.039,386.294,379.674,8612875
0.0043335,0.00878906,0.971619,-0.028,0.019,-0.87,-438.596,413.42,379.712,8612905
-0.0871582,-0.0552979,0.865845,-0.114,-0.046,-0.88,-409.19,421.292,379.752,8612950
-0.0192261,0.0285034,1.25317,-0.062,0.042,-0.87,-494.144,368.976,379.774,8612980
-0.0945435,-0.0336914,0.801331,-0.12,-0.026,-0.88,-443.449,409.584,379.892,8613085
0.162903,0.0574951,1.20197,0.121,0.073,-0.91,-454.174,351.074,379.914,8613115
0.0303345,0.085022,1.16266,-0.01,0.097,-0.9,-402.075,437.006,379.955,8613160
0.165283,0.0168457,1.13739,0.126,0.029,-0.89,-310.598,395.664,379.992,8613190
0.0317383,0.165466,1.11237,-0.006,0.171,-0.87,-505.753,379.752,380.033,8613235
-0.00683594,0.0518188,1.31744,-0.051,0.055,-0.86,-355.859,332.325,380.072,8613266
0.128967,0.116089,0.867676,0.098,0.118,-0.87,-280.128,315.691,380.095,8613295
0.0320435,0.107971,1.08368,-0.006,0.105,-0.85,-250.307,248.676,380.154,8613355
-0.0235596,0.1073,1.08942,-0.061,0.095,-0.85,-182.672,180.047,380.274,8613475
-0.0204468,0.114258,0.956543,-0.053,0.101,-0.86,-135.271,130.523,380.334,8613535
0.0421753,0.0840454,1.00201,0.007,0.069,-0.85,-117.281,116.39,380.372,8613566
-0.0453491,0.0249023,1.07434,-0.081,0.006,-0.85,-458.547,64.0841,380.413,8613610
0.367615,-0.107361,1.28259,0.314,-0.092,-2.78,-1023.17,-50.5348,380.532,8613730
0.451782,-0.136719,1.16705,0.403,-0.102,-4.26,-1029.87,-276.113,380.573,8613775
0.00482178,-0.0905762,1.05261,-0.041,-0.088,-4.85,-1204.09,-430.246,380.593,8613790
0.326721,-0.0341797,1.47638,0.242,0.01,-6.94,-936.11,-691.946,380.632,8613835
0.243286,-0.143433,0.693115,0.218,-0.107,-7.74,-1008.01,-909.174,380.656,8613850
0.454346,0.112305,1.23993,0.343,0.196,-10.4,-1155.87,-813.537,380.694,8613896
0.233948,0.0430298,0.29364,0.197,0.092,-12.38,-999.65,-997.258,380.732,8613926
0.313538,-0.190125,0.879333,0.287,-0.098,-15.55,-1105.95,-1124.1,380.776,8613971
0.142822,0.0943604,0.967712,0.029,0.131,-17.81,-1042.37,-989.903,380.795,8614001
0.294495,0.0927734,1.17523,0.119,0.199,-26.1,-1292.74,-900.495,380.912,8614106
0.365173,0.0716553,0.72876,0.182,0.256,-36.59,-1094.51,-909.008,381.032,8614226
0.104614,0.114685,1.31134,-0.127,0.103,-45.01,-1303.61,-1538.11,381.112,8614316
0.335022,0.175659,0.528198,0.054,0.341,-46.44,-1015.8,-1065.25,381.134,8614331
0.131409,0.163391,1.01715,-0.134,0.157,-50.72,-1089.98,-1227.67,381.172,8614376
0.219177,0.0473022,0.686829,0.031,0.168,-53.54,-951.158,-1083.25,381.212,8614406
-0.0636597,-0.0306396,0.616028,-0.06,-0.106,-57.79,-1142.92,-1252.66,381.252,8614451
-0.117249,0.132446,0.889404,-0.245,-0.092,-60.66,-1140.97,-1032.2,381.274,8614481
0.2948,0.198242,0.977783,-0.123,0.287,-63.59,-1333.6,-1035.36,381.314,8614511
0.463013,-0.0705566,0.482483,0.203,0.368,-68.06,-1114.95,-1240.93,381.353,8614556
-0.346252,0.121155,0.925781,-0.202,-0.41,-83.67,-1510.12,-1049.1,381.512,8614706
0.318481,0.335388,1.60358,-0.384,0.195,-86.95,-1145.48,-969.18,381.534,8614736
0.19281,0.246155,0.993164,-0.28,0.102,-90.27,-1124.1,-913.659,381.572,8614766
0.418457,0.330017,1.04199,-0.389,0.292,-95.23,-864.192,-425.053,381.613,8614811
0.130249,0.298645,0.810547,-0.326,0.022,-96.83,-590.65,-276.163,381.633,8614827
0.0189819,0.281616,1.00769,-0.286,-0.118,-101.18,-624.902,-107.418,381.672,8614871
-0.235962,0.173218,1.05646,-0.106,-0.349,-104.51,-489.608,-48.7856,381.713,8614916
-0.146301,0.100281,0.882874,-0.052,-0.227,-106.24,-559.754,6.9955,381.752,8614947
-0.171631,0.0714722,0.928711,0.008,-0.23,-112.25,-324.818,35.1124,381.873,8615067
-0.121521,0.0728149,1.10248,-0.004,-0.185,-113.98,-260.217,19.9386,381.913,8615111
-0.145325,0.0968628,1.01331,-0.011,-0.208,-115.43,-263.401,38.2678,381.953,8615156
-0.0164185,-0.00592041,1.01166,0.027,-0.012,-118.3,8.26326,-5.50904,382.453,8615652
-0.137207,-0.277466,1.31525,0.323,0.008,-118.24,-21.4199,715.64,382.492,8615697
-0.0193481,-0.265076,0.815369,0.219,0.071,-110.09,-554.985,1218.1,382.854,8616057
0.372681,0.0460205,1.59607,-0.24,0.333,-109.69,-469.55,950.932,382.874,8616072
0.688293,0.166626,0.864319,-0.414,0.596,-108.59,-557.88,522.166,382.912,8616117
0.546509,0.341858,1.06268,-0.533,0.405,-108.15,-703.73,561.829,382.953,8616147
-0.0296021,0.0950928,0.90918,-0.104,-0.069,-107.96,-287.919,552.944,382.993,8616192
-0.0116577,0.145569,1.00854,-0.156,-0.067,-107.94,-586.527,529.143,383.032,8616237
0.017334,0.0140381,0.997009,-0.037,0.001,-107.95,-575.374,481.22,383.072,8616267
-0.0635376,0.0620117,1.15027,-0.059,-0.09,-107.96,-436.71,445.653,383.113,8616312
-0.117859,0.0196533,0.995972,0.002,-0.126,-107.99,-527.12,445.018,383.152,8616357
-0.124084,-0.0969238,0.879822,0.116,-0.096,-108.03,-470.289,375.227,383.192,8616387
-0.00390625,-0.0146484,1.1001,-0.001,-0.008,-108.09,-458.8,457.195,383.213,8616417
0.048645,0.0448608,1.07031,-0.074,0.023,-108.12,-511.457,483.033,383.253,8616448
-0.0310669,0.0810547,1.02386,-0.083,-0.063,-108.15,-470.732,505.267,383.293,8616492
-0.246033,-0.0791626,0.981079,0.136,-0.216,-108.18,-515.623,470.688,383.333,8616537
-0.0178833,0.0140381,1.05634,-0.024,-0.029,-108.19,-549.934,483.91,383.355,8616552
-0.1698,-0.115234,0.985413,0.146,-0.133,-108.22,-536.121,435.692,383.393,8616597
0.0925293,-0.108887,0.766296,0.061,0.117,-108.24,-515.903,494.364,383.433,8616628
0.0123291,0.0238647,1.09229,-0.046,-0.003,-108.29,-534.774,496.266,383.473,8616672
0.325684,-0.0558472,1.12872,-0.069,0.318,-108.34,-496.722,419.498,383.511,8616717
0.145203,0.0239868,0.875671,-0.081,0.123,-108.43,-476.417,217.37,383.553,8616748
0.373901,0.0634766,1.00903,-0.19,0.323,-108.71,-515.331,58.7034,383.592,8616792
0.0898438,0.0543213,0.932495,-0.088,0.056,-108.87,-458.201,13.1441,383.614,8616808
-0.165955,0.152466,1.16821,-0.091,-0.225,-109.5,-496.167,-16.4555,383.654,8616852
0.238342,0.117676,1.05933,-0.19,0.163,-110.38,-466.277,-14.6655,383.694,8616897
0.272766,0.169556,1.09918,-0.248,0.17,-111.14,-433.651,-157.449,383.733,8616928
0.0669556,0.10376,1.00592,-0.11,0,-112.03,-408.405,-194.486,383.754,8616957
0.0544434,0.0614014,1.03479,-0.063,0,-113.07,-425.026,-332.513,383.796,8616988
0.169861,0.0216064,0.816833,-0.077,0.123,-114.82,-497.76,-284.868,383.833,8617033
0.0146484,0.0446167,1.10577,-0.023,-0.038,-116.82,-558.8,-171.619,383.872,8617078
0.165649,0.0814209,1.09814,-0.124,0.075,-118.29,-551.587,-139.241,383.912,8617108
0.0161133,-0.0535889,0.681702,0.055,0.019,-120.62,-560.114,-83.5073,383.952,8617153
-0.00012207,0.0239258,1.2016,0.01,-0.049,-121.41,-510.764,-58.8123,383.972,8617168
0.039978,-0.101135,0.987793,0.087,0.058,-123.69,-316.496,22.3591,384.014,8617213
-0.0501099,-0.0501709,0.924072,0.093,-0.034,-130.22,-451.559,139.775,384.153,8617348
-0.0359497,0.0852661,0.904968,-0.015,-0.109,-132.26,-489.92,166.055,384.192,8617393
-0.138123,0.0814819,0.893494,0.057,-0.18,-132.88,-518.417,154.231,384.213,8617408
-0.0571899,0.111511,1.01361,-0.012,-0.139,-134.6,-438.818,137.449,384.253,8617453
-0.318054,0.103882,0.569153,0.171,-0.302,-136,-425.08,160.341,384.293,8617498
-0.265076,0.0507812,0.721191,0.175,-0.223,-136.75,-337.336,174.368,384.333,8617528
-0.369446,0.0669556,0.814819,0.244,-0.301,-137.31,-315.214,170.033,384.355,8617558
-0.190674,0.0465698,0.876953,0.127,-0.16,-137.71,-294.369,289.918,384.392,8617588
0.157776,-0.0969849,1.19965,-0.034,0.187,-137.92,-220.814,286.701,384.414,8617618
-0.0526733,-0.0881348,1.04059,0.1,0.027,-136.65,-387.132,475.511,384.812,8618009
-0.309448,-0.138184,0.908386,0.319,-0.114,-136.5,-376.364,465.864,384.853,8618053
0.0131836,-0.0610962,1.15778,0.03,0.049,-136.46,-451.355,480.896,384.873,8618069
0.0469971,0.147156,1.20056,-0.126,-0.068,-136.3,-288.93,320.883,385.352,8618549
0.00323486,0.162598,0.950684,-0.105,-0.109,-136.31,-347.663,286.066,385.392,8618594
0.0764771,0.03479,1.00366,-0.068,0.033,-136.3,-251.528,301.869,385.413,8618609
0.0230103,0.155884,1.10333,-0.11,-0.088,-136.28,-256.594,249.128,385.453,8618654
-0.0222168,0.0392456,1.07837,0.004,-0.034,-136.27,-206.039,220.841,385.492,8618699
0.0105591,0.0889282,1.08191,-0.052,-0.045,-136.28,-220.403,187.593,385.532,8618729
-0.0175171,0.100952,0.994263,-0.04,-0.073,-136.27,-185.026,178.543,385.554,8618759
0.0170288,0.0808716,1.03711,-0.05,-0.034,-136.27,-162.774,151.865,385.592,8618789
0.050354,0.0544434,0.993103,-0.055,0.009,-136.28,-122.551,112.799,385.641,8618834
-0.0124512,0.0901489,1.05707,-0.032,-0.057,-136.27,-119.124,100.199,385.653,8618849
-0.0616455,0.0829468,0.98407,0.007,-0.086,-136.28,-70.1437,82.3465,385.693,8618894
-0.0275879,0.115723,1.00281,-0.038,-0.085,-136.27,-50.8366,59.329,385.732,8618924
-0.000793457,0.0881348,1.04047,-0.036,-0.044,-136.26,-39.7788,49.5092,385.754,8618954
0.00799561,0.117126,1.02148,-0.062,-0.058,-136.27,-26.8307,30.4033,385.792,8618984
0.0171509,0.0443115,1.01672,-0.017,0.001,-136.27,-26.8307,20.9645,385.833,8619029
-0.0294189,0.0218506,1.04413,0.032,-0.014,-136.27,-26.8307,6.3932,385.853,8619059
-0.0170288,0.00604248,1.02576,0.033,0.004,-136.27,0,-5.09444,385.893,8619089
0.0131226,-0.0101929,1.01709,0.022,0.036,-136.27,3.82969,-12.5505,385.915,8619119
0.0230713,-0.0159302,1.01416,0.018,0.046,-136.27,6.7952,-10.9084,385.952,8619149
0.0161133,-0.000793457,1.02814,0.012,0.03,-136.27,8.21629,-10.9084,385.993,8619194
0.0343628,-0.0327759,1.02765,0.02,0.065,-136.27,-82.926,-7.19389,386.013,8619209
0.067749,0.0103149,1.00763,-0.033,0.053,-136.37,-33.8552,-46.4961,386.052,8619254
0.0911865,-0.0273438,0.983398,-0.024,0.094,-136.57,-40.0592,-96.8218,386.094,8619299
0.0600586,-0.00915527,1.00385,-0.013,0.059,-136.66,-42.6985,-104.263,386.113,8619314
0.106201,-0.0465088,0.978027,-0.021,0.115,-136.9,-61.8192,-139.384,386.152,8619344
0.0834961,-0.0588379,0.973267,0.003,0.107,-137.39,-92.4501,-193.81,386.192,8619389
0.0975342,0.00598145,1.00085,-0.049,0.066,-137.82,-90.8839,-214.489,386.215,8619419
0.0587158,-0.0251465,0.993164,0,0.06,-138.33,-107.475,-313.47,386.254,8619449
0.162659,0.0529785,1.10535,-0.122,0.066,-139.29,-144.82,-296.415,386.293,8619494
0.0688477,0.0169067,0.933105,-0.032,0.031,-139.68,-148.824,-393.523,386.315,8619509
0.441895,-0.00921631,1.19678,-0.294,0.283,-140.98,-154.02,-354.667,386.352,8619554
0.29187,0.0663452,1.21057,-0.225,0.118,-142.53,-188.717,-516.409,386.393,8619599
0.0668945,0.00201416,0.831116,-0.022,0.034,-143.1,-217.019,-479.421,386.413,8619614
0.036377,-0.0770874,0.882324,0.051,0.077,-144.88,-226.508,-442.292,386.453,8619659
0.00982666,0.0114746,0.942322,0.025,-0.012,-146.19,-271.765,-591.628,386.492,8619690
0.11615,0.0599976,1.05084,-0.085,0.004,-146.87,-247.145,-639.161,386.513,8619704
0.0839844,0.0349731,1.12146,-0.041,0.003,-148.94,-302.494,-547.705,386.554,8619750
0.340759,0.0963745,0.887573,-0.304,0.072,-151.16,-309.387,-610.594,386.594,8619794
0.0213623,0.00140381,1.04279,0.03,0,-152.71,-273.261,-495.823,386.632,8619824
0.0999146,0.15802,1.14203,-0.1,-0.109,-155.15,-390.411,-489.908,386.673,8619870
0.0823364,0.174744,1.21655,-0.078,-0.137,-157.74,-337.353,-521.105,386.713,8619914
0.133118,0.0216064,1.14587,-0.07,0.022,-158.64,-297.433,-572.001,386.734,8619930
0.0689697,0.0272217,0.850342,-0.025,-0.006,-161.45,-377.138,-517.09,386.773,8619974
-0.026062,0.104126,1.10278,0.063,-0.107,-164.41,-345.77,-498.778,386.816,8620019
0.0441895,0.0739136,1.19238,0.047,-0.043,170.85,-360.627,-435.967,387.152,8620350
-0.0525513,0.16156,1.04431,0.152,-0.112,168.42,-343.956,-237.905,387.176,8620380
-0.170471,0.112305,0.88324,0.247,-0.034,166.03,-329.571,-231.42,387.212,8620410
-0.141479,0.25946,1.16095,0.274,-0.16,162.72,-267.226,-209.284,387.252,8620455
-0.247009,0.140137,0.901245,0.322,-0.02,161.73,-342.565,-225.65,387.272,8620470
-0.123718,0.0320435,0.879761,0.145,0.055,154.8,-215.269,-101.142,387.413,8620605
-0.139099,0.0344849,1.0415,0.158,0.067,153.76,-235.796,-68.8174,387.433,8620635
-0.133301,0.0625,1.14618,0.162,0.044,152.88,-171.618,-27.5712,387.473,8620665
-0.252258,0.101807,1.01562,0.276,0.061,151.93,-124.761,-20.0246,387.516,8620710
-0.249573,0.0494995,1.05005,0.246,0.107,151.7,-115.801,0,387.532,8620725
-0.231201,0.00384521,0.650574,0.201,0.126,151.32,-60.7694,30.981,387.572,8620770
0.093689,0.0966187,1.03973,-0.045,-0.099,151.28,-38.9881,25.2356,387.612,8620815
-0.055481,0.149048,1.05115,0.109,-0.072,151.27,-27.0565,26.3094,387.634,8620830
-0.0343628,0.055603,1.02411,0.046,0,151.29,-27.0565,15.5183,387.672,8620875
-0.0140381,0.0391235,1.01489,0.02,0.004,151.27,-27.0565,15.5183,387.712,8620905
0.0107422,0.0055542,1.00635,-0.016,0.021,151.28,-27.0565,4.78959,387.733,8620935
0.0228882,0.0108032,1.01813,-0.024,0.01,151.27,-27.0565,4.78959,387.773,8620980
0.010437,0.00201416,1.01538,-0.017,0.023,151.28,-27.0565,4.78959,387.813,8621010
0.00793457,0.013916,1.0257,-0.009,0.014,151.27,-27.0565,4.78959,387.836,8621040
0.00183105,0.0108032,1.0257,-0.005,0.02,151.27,-27.0565,4.78959,387.873,8621070
0.00653076,0.0236816,1.01611,-0.002,0.005,151.27,-27.0565,4.78959,387.912,8621115
-0.0247192,-0.0108643,0.996887,0.008,0.05,151.27,-3.01986,4.78959,387.955,8621160
0.138794,-0.137817,1.06989,-0.195,0.084,151.26,-68.4974,60.6781,387.972,8621175
-0.114136,-0.257385,1.04883,-0.027,0.304,151.22,-120.593,141.023,388.012,8621205
0.0275269,-0.237244,0.953308,-0.137,0.208,151.28,-228.663,224.137,388.052,8621251
-0.0216675,-0.181458,1.15143,-0.064,0.18,151.27,-243.096,304.836,388.074,8621280
0.0404663,-0.202637,1.12762,-0.127,0.164,151.3,-343.755,332.309,388.113,8621311
-0.10083,-0.216125,0.958069,-0.008,0.238,151.35,-369.549,386.436,388.152,8621355
0.060791,-0.106873,1.06647,-0.095,0.063,151.37,-336.423,432.722,388.174,8621371
-0.0186157,-0.0917969,1.08429,-0.015,0.084,151.43,-554.554,488.126,388.213,8621415
-0.0628662,-0.0821533,1.02972,0.028,0.094,151.46,-435.417,519.4,388.252,8621445
0.0830688,-0.0792847,1.14563,-0.096,0.02,151.49,-481.452,574.053,388.274,8621475
0.0321655,-0.0559692,0.768188,-0.044,0.026,151.51,-697.715,574.531,388.312,8621505
0.186646,-0.0566406,0.938049,-0.176,-0.049,151.57,-568.618,536.15,388.352,8621551
-0.024353,-0.0164185,1.09869,0.031,0.011,151.6,-598.283,568.521,388.392,8621595
-0.146851,-0.121582,0.738953,0.083,0.167,151.62,-467.979,632.831,388.433,8621640
0.0178833,0.0841675,1.3537,0.045,-0.1,151.64,-706.015,580.956,388.455,8621655
0.0189819,0.0379028,0.93103,0.016,-0.054,151.65,-533.775,594.248,388.495,8621700
0.0493164,0.0772705,0.939209,0.007,-0.103,151.64,-620.232,699.276,388.532,8621731
-0.10376,-0.0142212,1.15485,0.102,0.048,151.65,-587.941,635.284,388.572,8621776
0.108337,0.0270386,0.892456,-0.069,-0.085,151.65,-615.214,513.65,388.594,8621791
0.155701,0.132751,1.33649,-0.055,-0.204,151.64,-561.814,544.87,388.632,8621836
-0.131531,-0.0708008,0.958557,0.095,0.115,151.64,-793.651,709.9,388.658,8621851
0.316345,0.118835,0.885254,-0.21,-0.262,151.64,-593.401,665.159,388.693,8621896
-0.723022,0.0198975,1.20203,0.662,0.316,151.63,-689.75,560.208,388.732,8621926
0.55188,0.05896,1.1424,-0.444,-0.323,151.63,-593.296,552.227,388.774,8621971
-0.052063,0.0463867,0.828979,0.077,-0.021,151.62,-613.064,578.402,388.793,8622001
-0.194763,0.0601196,0.89679,0.211,0.035,151.62,-528.989,621.099,388.826,8622031
0.1203,0.0614014,1.07544,-0.066,-0.115,151.62,-474.024,586.046,388.86,8622061
-0.109009,0.0841675,1.01825,0.146,-0.023,151.61,-612.239,606.575,388.907,8622106
-0.11438,0.0386963,1.0155,0.129,0.019,151.61,-613.328,548.261,388.934,8622136
-0.039917,0.0428467,0.854187,0.062,-0.018,151.6,-551.526,514.854,388.975,8622181
0.14917,0.0529785,1.18274,-0.096,-0.117,151.6,-527.649,590.598,388.999,8622196
-0.0808105,0.0265503,1.26196,0.093,0.016,151.6,-544.84,560.224,389.033,8622226
-0.0151367,-0.0443726,1.01257,0,0.048,151.59,-440.102,424.755,389.072,8622271
-0.0407715,0.0968018,0.968262,0.088,-0.063,151.57,-511.496,443.439,389.094,8622301
-0.0202637,0.0947266,0.979553,0.069,-0.071,151.56,-489.764,433.755,389.132,8622331
0.187317,-0.0279541,0.983948,-0.171,-0.062,151.57,-542.079,440.849,389.155,8622361
-0.00402832,-0.0527954,0.995728,-0.014,0.051,151.56,-421.719,442.39,389.193,8622391
0.138916,-0.0632324,0.862305,-0.145,-0.007,151.55,-432.479,452.571,389.232,8622436
0.0259399,-0.0317993,1.01392,-0.031,0.019,151.54,-474.462,479.789,389.272,8622466
-0.0336304,0.118164,1.12476,0.094,-0.083,151.52,-452.448,467.825,389.294,8622496
0.0432129,0.00250244,1.03961,-0.028,-0.018,151.53,-385.304,528.639,389.333,8622526
0.0186157,-0.0357666,0.424683,-0.029,0.024,151.52,-382.768,418.384,389.373,8622571
0.305969,0.107117,1.5918,-0.207,-0.233,151.51,-523.04,446.708,389.393,8622586
-0.16803,0.0651855,1.32092,0.188,0.029,151.5,-528.248,420.796,389.432,8622631
-0.0123291,0.0831909,1.12982,0.059,-0.061,151.5,-505.727,452.96,389.474,8622676
0.034668,-0.019104,0.959595,-0.032,0.005,151.5,-447.728,440.131,389.493,8622692
0.101257,0.0307007,0.8255,-0.069,-0.07,151.48,-497.76,407.897,389.532,8622736
0.0441284,-0.0183105,0.958374,-0.04,0,151.47,-475.771,422.333,389.577,8622781
0.189758,0.133606,1.13544,-0.094,-0.201,151.47,-370.322,425.749,389.593,8622796
0.126953,0.0147705,1.11395,-0.095,-0.066,151.46,-389.856,412.618,389.633,8622826
-0.0418091,-0.036377,1.03705,0.028,0.059,151.45,-649.519,424.295,389.672,8622872
-0.0350952,0.0369263,1.14746,0.057,-0.007,151.45,-455.456,446.927,389.693,8622886
0.0657959,0.0844116,1.159,-0.008,-0.096,151.44,-390.961,473.922,389.732,8622932
-0.0265503,-0.0105591,1.01129,0.026,0.03,151.44,-461.702,365.05,389.772,8622976
0.146301,0.0879517,1.06879,-0.078,-0.137,151.44,-361.474,464.781,389.793,8622992
0.111328,0.0837402,0.878052,-0.051,-0.119,151.42,-389.879,382.768,389.832,8623036
-0.0517578,-0.0222168,0.97583,0.042,0.052,151.39,-350.982,410.602,389.873,8623066
-0.0160522,-0.00317383,0.786621,0.018,0.017,151.39,-426.913,361.788,389.893,8623096
-0.0318604,-0.0587158,1.18524,0.008,0.076,151.39,-409.224,426.103,389.932,8623126
-0.0620728,-0.0359497,0.90448,0.043,0.068,151.38,-379.471,396.652,389.973,8623172
0.170715,0.0183716,1.13739,-0.133,-0.089,151.38,-448.179,396.44,389.994,8623186
-0.218933,0.00195312,0.920349,0.2,0.109,151.35,-464.997,403.096,390.034,8623232
0.175598,0.0185547,0.889526,-0.139,-0.094,151.34,-444.474,355.259,390.072,8623277
0.0142822,-0.0238647,1.08014,-0.015,0.021,151.34,-484.238,370.913,390.112,8623307
-0.0814819,-0.0137329,0.875916,0.071,0.056,151.33,-392.095,417.493,390.134,8623337
-0.144897,-0.00537109,0.976013,0.132,0.08,151.32,-414.267,428.862,390.173,8623367
0.0270386,-0.0187988,0.807495,-0.024,0.01,151.26,-412.592,445.424,390.533,8623727
0.157776,0.0639038,1.15472,-0.095,-0.12,151.24,-360.529,456.038,390.571,8623772
0.154175,0.0809326,1.14752,-0.085,-0.133,151.24,-419.56,430.654,390.612,8623817
0.0638428,-0.0162354,1.04407,-0.054,-0.004,151.24,-411.819,410.905,390.634,8623832
0.166687,-0.0264893,0.876343,-0.15,-0.044,151.2,-398.995,365.43,390.812,8624012
0.0592651,0.0784912,1.08051,-0.004,-0.081,151.19,-219.79,344.104,390.852,8624057
0.0269165,0.0169678,0.920715,-0.007,-0.013,151.18,-375.58,404.384,390.893,8624087
0.0230713,-0.0179443,1.19678,-0.018,0.022,151.17,-478.79,364.212,390.912,8624117
0.0597534,-0.00488281,0.900879,-0.046,-0.01,151.16,-387.387,335.621,390.952,8624147
-0.0952759,-0.0163574,0.927551,0.084,0.074,151.15,-410.298,385.03,390.992,8624192
-0.168396,-0.00628662,0.904114,0.152,0.099,151.07,-339.415,380.662,391.218,8624417
0.173279,0.0127563,1.04254,-0.136,-0.08,151.08,-422.547,365.718,391.234,8624433
-6.10352e-05,-0.0301514,1.14667,-0.004,0.042,151.05,-427.049,389.75,391.273,8624477
-0.0350952,-0.019104,0.864319,0.028,0.045,151.05,-426.13,399.752,391.312,8624507
0.0466309,-0.0499268,1.07349,-0.055,0.036,151.03,-460.363,399.752,391.336,8624537
-0.0258789,-0.0526733,1.17639,0.007,0.074,151.01,-370.007,363.135,391.385,8624582
0.0379028,0.0689087,0.983704,0.007,-0.065,151,-391.919,459.453,391.412,8624613
0.0108032,0.0300293,1.30737,0.015,-0.013,151,-440.616,433.661,391.452,8624657
-0.0452271,-0.057312,1.02753,0.021,0.087,150.95,-462.011,370.309,391.632,8624837
-0.0368042,0.078186,1.00946,0.079,-0.034,150.94,-428.688,406.232,391.672,8624868
-0.0948486,0.0522461,1.13068,0.118,0.018,150.93,-449.277,410.055,391.715,8624913
-0.0874634,0.0518799,1.11884,0.112,0.015,150.92,-406.736,436.062,391.746,8624943
-0.0823975,0.0261841,0.925476,0.093,0.033,150.91,-388.108,369.379,391.773,8624973
0.0217285,0.00421143,1.04669,-0.008,0.004,150.92,-331.538,414.602,391.812,8625018
0.00274658,0.0332642,1.12061,0.025,-0.012,150.87,-381.134,403.845,392.013,8625213
-0.0150757,-0.0928955,0.969238,-0.021,0.104,150.85,-371.851,365.07,392.053,8625258
-0.0545044,0.0090332,1.02734,0.062,0.034,150.84,-412.116,414.044,392.074,8625273
0.0289917,0.133789,1.11023,0.051,-0.113,150.82,-357.711,352.64,392.112,8625318
-0.115906,0.129028,0.975525,0.172,-0.038,150.82,-287.77,305.521,392.153,8625348
-0.0963745,0.0490723,1.05878,0.117,0.024,150.84,-195.674,349.803,392.174,8625378
-0.00909424,0.160339,1.04645,0.094,-0.114,150.86,-317.728,304.243,392.213,8625408
-0.0341187,0.0897217,0.920898,0.079,-0.041,150.87,-269.357,267.412,392.252,8625453
0.000793457,0.0962524,0.987732,0.052,-0.061,150.87,-295.395,244.568,392.297,8625498
0.0230103,0.106934,0.978149,0.037,-0.08,150.89,-232.118,248.407,392.326,8625528
0.00189209,0.0430298,1.0083,0.025,-0.013,150.88,-241.718,244.308,392.344,8625543
0.0205078,0.036499,1.09698,0.005,-0.013,150.88,-201.869,229.274,392.377,8625573
0.0498047,0.0554199,1.01361,-0.014,-0.041,150.89,-103.702,116.498,392.592,8625798
-0.0244751,0.0458984,0.998596,0.045,0.003,150.9,-100.376,93.3607,392.632,8625828
0.0474243,0.0569458,1.02863,-0.012,-0.039,150.9,-89.3947,75.4663,392.653,8625858
-0.0131226,0.0761108,1.00592,0.048,-0.027,150.9,-70.2718,78.0866,392.692,8625888
0.0123901,0.0706787,1.01544,0.023,-0.033,150.9,-63.3096,42.5253,392.733,8625934
0.019043,0.0958862,1.01587,0.029,-0.057,150.89,-119.564,42.5253,392.756,8625963
0.222656,-0.0422974,0.993347,-0.213,-0.037,150.83,-126.619,-35.0138,392.792,8625994
0.118591,0.0488892,0.87915,-0.056,-0.073,147.41,-338.215,-434.991,392.993,8626188
-0.0614624,0.0148926,0.911072,0.079,0.056,145.94,-321.404,-480.735,393.032,8626234
0.153015,0.0447998,1.11206,-0.071,-0.079,144.22,-370.281,-520.007,393.075,8626278
0.0145264,0.0438843,0.956177,0.038,-0.002,142.89,-379.161,-473.451,393.114,8626308
0.142517,0.0892334,1.30756,0.006,-0.088,130.1,-365.297,-582.242,393.332,8626534
-0.0248413,0.1474,1.00031,0.152,-0.012,129.09,-402.576,-576.219,393.352,8626549
-0.0355225,-0.0281982,0.52887,0.007,0.078,125.97,-390.93,-715.461,393.392,8626594
-0.15271,0.0177002,0.823669,0.11,0.174,122.68,-517.063,-494.486,393.433,8626639
0.301331,0.11084,1.23956,-0.04,-0.231,120.43,-507.022,-816.027,393.472,8626669
0.355469,0.163513,1.25909,-0.004,-0.303,116.95,-547.69,-637.633,393.512,8626714
-0.256836,0.0917969,1.08942,0.189,0.276,113.35,-470.455,-605.767,393.552,8626759
-0.00927734,0.198792,1.03107,0.189,0.009,112.11,-544.558,-664.673,393.574,8626774
-0.248474,0.174988,0.975952,0.246,0.248,109.61,-591.541,-693.794,393.612,8626804
0.353821,0.277161,1.06921,0.161,-0.331,105.72,-496.044,-707.414,393.652,8626849
0.129456,0.176697,1.02753,0.13,-0.079,101.73,-583.158,-546.612,393.693,8626894
-0.00970459,0.244019,1.01257,0.223,0.048,100.38,-496.413,-582.632,393.714,8626909
-0.0648804,0.179016,1.2511,0.152,0.15,96.24,-510.882,-594.796,393.752,8626954
0.182617,0.0755005,0.839172,0.041,-0.112,92,-363.491,-519.737,393.795,8626999
0.25531,0.0907593,0.917969,0.061,-0.174,89.13,-298.681,-515.291,393.832,8627029
-0.079895,0.0960083,0.690857,0.06,0.144,84.84,-269.949,-382.329,393.881,8627074
0.167847,0.137512,1.16766,0.107,-0.057,83.44,-283.507,-507.898,393.894,8627089
-0.0601807,0.0392456,1.0791,-0.02,0.144,79.39,-252.302,-298.267,393.933,8627134
-0.40686,0.123718,0.877319,-0.002,0.483,78.12,-204.987,-334.163,393.954,8627149
0.0351562,0.0864258,1.02386,0.046,0.049,74.64,-223.626,-282.674,393.992,8627194
-0.0440674,0.0828857,1.11969,0.012,0.122,71.52,-220.148,-282.068,394.032,8627239
-0.235352,0.105469,1.11218,-0.034,0.305,69.66,-273.845,-295.247,394.073,8627269
-0.217285,0.085022,0.968201,-0.05,0.268,67.13,-222.68,-221.978,394.112,8627314
-0.184448,0.104187,1.06177,-0.03,0.244,65.64,-206.045,-169.489,394.153,8627344
-0.177673,0.0647583,0.895935,-0.059,0.211,64.33,-160.259,-132.317,394.175,8627374
-0.106628,0.0106812,0.985291,-0.082,0.118,62.66,-144.336,-119.669,394.214,8627419
-0.285583,0.0200195,1.15332,-0.166,0.278,61.76,-111.03,-99.3458,394.253,8627449
-0.249512,0.0515747,0.993042,-0.116,0.249,60.73,-83.9549,-61.3988,394.293,8627495
-0.187988,0.0537109,0.996155,-0.083,0.189,60.12,-51.5975,-38.7693,394.332,8627539
-0.237061,0.0161743,1.01099,-0.14,0.21,60.01,-36.9625,-38.7693,394.354,8627555
0.14502,0.0675659,0.951172,0.099,-0.098,59.96,-20.8546,-38.7693,394.393,8627599
-0.0375977,0.0476074,0.984497,-0.011,0.048,59.95,-20.8546,-4.4227,394.433,8627629
0.055481,0.00610352,1.01562,-0.001,-0.052,59.96,-20.8546,-4.4227,394.472,8627675
0.0353394,0.024353,1.02667,0.004,-0.025,59.96,-20.8546,-4.4227,394.512,8627719
0.00598145,0.0220337,1.01459,-0.011,0,59.96,-20.8546,-4.4227,394.533,8627735
-0.00402832,0.0221558,1.01477,-0.016,0.008,59.96,-20.8546,-4.4227,394.573,8627779
0.0157471,0.0227661,1.01587,-0.005,-0.008,59.96,-20.8546,-4.4227,394.612,8627809
0.0126343,0.0231323,1.01703,-0.006,-0.005,59.96,-20.8546,-4.4227,394.651,8627855
-0.0228882,-0.0166016,1.00513,-0.058,0.006,59.96,-20.8546,1.31762,394.694,8627899
0.052002,-0.0809326,1.01807,-0.075,-0.089,59.98,-2.72596,25.9442,394.731,8627929
0.0820312,-0.136169,1.02319,-0.105,-0.141,59.98,-73.8416,44.5286,394.754,8627959
-0.00201416,-0.133606,1.01495,-0.141,-0.066,59.97,-97.4835,149.864,394.792,8627990
0.0233154,-0.158264,1.1051,-0.147,-0.097,60.08,-184.357,172.368,394.832,8628035
0.0187378,-0.134155,0.96759,-0.124,-0.08,60.09,-178.283,197.39,394.855,8628050
-0.0488892,-0.128723,1.05219,-0.15,-0.015,60.12,-269.734,285.144,394.893,8628095
0.0759277,-0.0888672,1.00653,-0.05,-0.101,60.18,-255.19,321.895,394.933,8628140
-0.0629272,-0.0986328,0.875183,-0.125,0.013,60.2,-306.866,347.741,394.972,8628170
0.116516,-0.00964355,0.986694,0.04,-0.096,60.26,-297.415,356.392,394.994,8628200
0.255249,-0.06427,0.999939,0.062,-0.244,60.32,-293.798,384.209,395.033,8628230
-0.199646,-0.0150757,1.06549,-0.119,0.178,60.39,-413.95,385.208,395.072,8628275
-0.050415,-0.0437622,0.989197,-0.069,0.032,60.43,-379.161,399.13,395.095,8628290
-0.0270996,-0.0308838,1.07526,-0.046,0.02,60.5,-355.328,478.08,395.133,8628335
0.0839233,0.00970459,1.06866,0.045,-0.055,60.57,-400.649,434.802,395.173,8628380
-0.0285645,-0.0643921,0.977783,-0.074,0.005,60.6,-430.154,439.58,395.194,8628395
0.0872192,0.0209961,1.08826,0.056,-0.051,60.66,-266.603,459.358,395.238,8628440
0.0615234,-0.0628662,0.986694,-0.028,-0.071,60.7,-469.23,469.572,395.273,8628470
0.105225,-0.0794678,1.11755,-0.022,-0.115,60.73,-488.245,431.695,395.294,8628500
0.0288696,0.0915527,1.21069,0.089,0.035,60.74,-445.147,475.556,395.332,8628530
-0.136658,-0.02771,0.961792,-0.094,0.119,60.78,-492.829,509.126,395.372,8628575
0.0917969,0.0477905,0.942566,0.072,-0.048,61.19,-395.015,456.861,395.913,8629116
0.0192871,0.114746,1.15417,0.093,0.049,61.2,-505.919,423.083,395.933,8629130
0.11261,0.142822,1.02332,0.164,-0.021,61.25,-353.501,444.296,395.992,8629190
0.0602417,-0.00695801,0.934021,0.008,-0.048,61.26,-371.243,394.617,396.013,8629205
0.100403,0.0632324,1.06024,0.087,-0.049,61.29,-387.327,377.237,396.052,8629250
0.109619,0.0499878,1.06274,0.079,-0.063,61.32,-382.651,380.149,396.093,8629296
0.0289917,0.0159912,1.04187,0.011,-0.01,61.32,-409.87,418.541,396.113,8629310
-0.127747,-0.0238037,0.831665,-0.095,0.107,61.34,-407.116,408.764,396.155,8629356
-0.0421753,-0.0723877,0.82074,-0.096,0.008,61.34,-404.31,335.126,396.193,8629385
0.393555,-0.0352173,0.755432,0.145,-0.357,61.36,-350.128,382.519,396.213,8629416
0.0626221,-0.0189209,1.1568,-0.004,-0.056,61.37,-376.159,366.65,396.252,8629445
0.207886,-0.0205688,1.02045,0.064,-0.187,61.45,-370.48,362.68,396.613,8629806
-0.0578613,-0.00323486,1.0968,-0.049,0.056,61.5,-317.314,323.771,396.833,8630031
0.0748901,0.120483,1.18451,0.119,-0.001,61.53,-379.507,335.503,396.872,8630076
0.163147,0.00305176,0.994446,0.061,-0.136,61.53,-356.544,335.537,396.892,8630091
0.0795288,0.0300293,1.05011,0.043,-0.049,61.54,-268.51,307.536,396.933,8630136
-0.0239868,0.055481,0.66687,0.024,0.051,61.54,-285.616,363.669,396.954,8630151
0.00915527,0.0839844,1.12775,0.055,0.037,61.55,-296.016,353.794,396.992,8630196
0.0826416,0.0200195,0.965515,0.036,-0.058,61.56,-254.294,335.087,397.032,8630226
0.115295,0.0431519,1.03644,0.07,-0.076,61.58,-307.111,284.285,397.073,8630271
0.106628,0.0334473,1.0307,0.057,-0.072,61.59,-312.715,314.391,397.093,8630286
0.0273438,0.0322876,1.06702,0.017,-0.003,61.6,-306.119,287.381,397.132,8630331
0.0198975,0.00927734,0.920837,-0.003,-0.008,61.6,-252.347,260.627,397.159,8630361
-0.0178223,0.0223389,1.08496,-0.013,0.031,61.62,-217.417,313.107,397.213,8630406
-0.0308228,-0.036377,1.07642,-0.068,0.016,61.66,-271.58,295.116,397.416,8630617
-0.105042,-0.0184326,1.09735,-0.088,0.091,61.67,-333.817,302.897,397.452,8630646
0.00549316,-0.00195312,0.97821,-0.018,0.001,61.68,-324.055,342.372,397.492,8630691
0.0822144,0.00524902,0.985474,0.023,-0.062,61.68,-285.555,291.771,397.514,8630706
0.00830078,0.0292358,1.1272,0.007,0.015,61.7,-318.309,322.082,397.553,8630751
-0.0848999,0.0335693,1.09857,-0.031,0.1,61.73,-286.492,319.898,397.732,8630931
0.0220337,0.0288696,0.948425,0.017,0.003,61.74,-356.506,300.793,397.773,8630977
0.0421753,-0.00616455,0.984924,-0.004,-0.031,61.76,-256.954,298.57,397.953,8631157
0.0730591,0.043457,1.05804,0.052,-0.033,61.78,-300.63,310.994,397.992,8631187
0.0629272,0.0467529,1.10217,0.048,-0.023,61.78,-260.196,257.576,398.033,8631232
0.0658569,0.168396,0.883362,0.16,0.028,61.78,-180.136,231.846,398.054,8631262
-0.0493774,0.057251,1.04474,0.001,0.077,61.78,-194.509,218.462,398.093,8631292
-0.0227051,0.0755005,1.02094,0.03,0.061,61.78,-184.315,206.941,398.132,8631337
-0.192078,0.152039,1.06177,0.015,0.246,61.78,-212.8,187.063,398.153,8631352
-0.0494385,0.0828857,1.03796,0.02,0.087,61.8,-164.811,167.445,398.192,8631397
-0.0230713,0.0544434,1.07263,0.006,0.05,61.8,-154.438,141.868,398.214,8631412
0.053772,0.0511475,1.03027,0.039,-0.02,61.8,-134.653,130.248,398.252,8631457
-0.0318604,0.0897217,1.08313,0.029,0.073,61.81,-106.802,114.006,398.292,8631487
-0.00323486,0.10083,0.997253,0.054,0.053,61.8,-95.4007,97.28,398.312,8631517
0.0271606,0.0806885,1.07568,0.047,0.016,61.81,-69.0024,78.377,398.352,8631547
0.019043,0.0627441,1.01526,0.028,0.014,61.81,-52.9019,51.8074,398.393,8631592
0.0100708,0.072876,1.05261,0.03,0.026,61.81,-32.6624,38.987,398.426,8631622
0.0531616,0.010376,1.02557,-0.005,-0.042,61.8,-4.75461,4.38424,398.535,8631727
-0.0600586,0.0201416,1.0351,-0.049,0.062,61.81,-317.692,-23.153,398.573,8631772
0.230835,-0.253784,0.983643,-0.148,-0.315,61.54,-310.434,-131.282,398.614,8631817
0.112732,-0.197083,1.11908,-0.156,-0.178,61.04,-276.327,-250.376,398.653,8631847
0.251282,-0.156311,1.46222,-0.061,-0.269,60.34,-357.424,-211.678,398.673,8631877
0.209656,-0.0819702,1.08868,-0.002,-0.197,59.47,-357.532,-355.638,398.712,8631907
0.156677,-0.0910645,1.14093,-0.034,-0.149,57.93,-468.033,-271.459,398.752,8631952
0.216003,-0.100403,0.993042,-0.003,-0.206,57.37,-411.684,-419.024,398.774,8631967
-0.0620728,-0.0906982,0.937317,-0.142,0.031,55.55,-443.922,-323.29,398.812,8632012
0.169983,-0.00543213,1.04895,0.059,-0.1,53.57,-556.158,-389.772,398.86,8632057
0.1875,-0.0705566,1.11792,0.016,-0.149,52.88,-485.178,-408.622,398.874,8632072
0.301147,0.0252686,0.663879,0.185,-0.191,50.72,-641.334,-424.71,398.912,8632117
-0.137451,-0.0420532,1.508,-0.18,0.135,48.44,-586.184,-382.717,398.954,8632162
-0.0422363,-0.0299072,0.968628,-0.088,0.05,47.63,-628.476,-355.038,398.974,8632178
-0.0402222,0.0525513,1.1842,-0.037,0.113,45.98,-378.344,-343.731,399.014,8632207
0.24646,0.09021,0.904114,0.202,-0.067,43.43,-602.627,-403.926,399.053,8632252
0.187439,-0.0304565,1.01471,0.073,-0.108,42.55,-683.27,-319.882,399.074,8632267
-0.0337524,0.0654297,0.761719,-0.02,0.101,39.83,-629.426,-300.689,399.112,8632312
-0.102844,0.109131,1.33923,-0.083,0.199,37.05,-515.584,-293.673,399.152,8632358
0.0792236,0.0584106,0.979858,0.048,0.037,36.12,-732.198,-276.981,399.173,8632372
0.105225,0.0423584,1.11389,0.048,0.018,33.27,-645.745,-338.055,399.212,8632418
0.0531006,-0.0373535,0.892578,-0.026,-0.027,31.32,-775.705,-333.929,399.253,8632447
0.175354,0.114197,1.17761,0.137,0.053,29.35,-648.256,-306.162,399.273,8632478
-0.319275,0.083313,0.550354,-0.28,0.237,27.31,-643.936,-286.965,399.312,8632507
0.159668,0.108093,0.864258,0.131,0.058,24.16,-621.06,-347.174,399.353,8632552
0.229004,0.128845,0.968567,0.19,0.064,20.95,-572.475,-373.629,399.395,8632598
0.103882,0.155945,1.17529,0.04,0.149,12.08,-677.14,-327.842,399.513,8632718
0.210693,0.062561,1.01172,0.126,0.06,1.42,-824.742,-434.802,399.653,8632853
0.0188599,0.117615,1.21729,-0.089,0.115,-2.27,-745.24,-469.572,399.692,8632898
0.440857,0.177979,0.955322,0.346,0.201,-3.51,-766.665,-428.991,399.719,8632913
0.123291,0.071228,1.08453,0.018,0.076,-7.29,-702.099,-422.824,399.753,8632958
-0.226257,0.167664,0.948303,-0.333,0.114,-9.81,-707.489,-390.648,399.792,8632988
0.150391,0.15918,1.00293,0.021,0.17,-13.56,-642.674,-428.614,399.837,8633033
0.116394,0.126404,1.19305,-0.029,0.127,-17.3,-725.321,-492.126,399.873,8633078
0.312073,0.0325317,1.37921,0.163,0.099,-19.75,-556.282,-453.155,399.912,8633108
0.0701294,0.11853,1.07007,-0.069,0.105,-22.15,-501.115,-399.6,399.934,8633138
-0.147156,0.165466,1.06854,-0.287,0.054,-24.4,-362.011,-131.288,399.976,8633168
-0.36145,0.269958,1.06757,-0.518,0.032,-27.41,-376.039,-67.3539,400.012,8633213
-0.267517,0.234497,0.909424,-0.405,0.043,-28.29,-433.745,-67.3539,400.034,8633228
-0.187927,0.0927124,1.09583,-0.266,-0.059,-30.61,-349.981,-67.3539,400.072,8633273
-0.181519,0.110962,0.994934,-0.255,-0.042,-32.43,-317.808,-67.3539,400.112,8633318
-0.176758,0.0896606,1.02094,-0.217,-0.064,-35.3,-140.917,61.2724,400.232,8633438
-0.208252,0.0834351,0.997437,-0.236,-0.087,-35.46,-123.633,52.2931,400.253,8633453
-0.170227,0.124023,0.995483,-0.221,-0.03,-35.71,-66.0849,57.3944,400.293,8633498
0.097168,0.0471191,0.972656,0.043,0.063,-35.7,-45.8446,58.5636,400.332,8633528
0.0667114,0.0227051,0.99292,0.032,0.024,-35.7,-35.1752,29.2751,400.372,8633573
0.0442505,0.00354004,1.01044,0.026,-0.006,-35.69,-26.3426,18.716,400.492,8633693
-0.0473022,-0.0606079,1.05554,-0.011,-0.112,-35.69,-3.37595,168.098,400.552,8633753
-0.0783691,-0.0873413,1.05786,-0.022,-0.133,-34.56,-78.2026,376.279,400.712,8633919
0.0960693,-0.06073,0.923523,0.106,-0.009,-34.15,-121.045,396.228,400.752,8633948
-0.149963,-0.0286865,1.0528,-0.118,-0.117,-33.48,-147.157,448.561,400.794,8633993
-0.0166016,-0.133057,0.957581,0.05,-0.128,-33.23,-154.661,529.97,400.814,8634008
-0.0248413,-0.0601196,1.04364,0.002,-0.068,-32.39,-167.298,617.322,400.852,8634053
-0.11261,-0.109863,1.18732,-0.049,-0.153,-31.41,-194.458,745.462,400.894,8634099
0.130432,-0.128296,0.964417,0.168,-0.042,-30.71,-194.309,563.111,400.933,8634128
-0.207397,-0.135193,1.0459,-0.123,-0.217,-30,-277.477,610.296,400.954,8634159
0.119141,-0.0860596,1.00787,0.134,-0.012,-28.55,-239.811,519.764,401.012,8634219
-0.214722,0.0128174,0.902405,-0.219,-0.083,-26.15,-289.956,312.691,401.172,8634369
-0.138794,0.0454712,1.07739,-0.175,-0.023,-26.07,-307.868,317.667,401.212,8634414
0.0534058,-0.0464478,0.933716,0.045,-0.026,-26.09,-238.854,261.599,401.373,8634579
0.108582,0.0236206,1.01361,0.061,0.06,-26.09,-271.695,275.251,401.413,8634609
0.211487,0.0821533,0.936523,0.131,0.157,-26.1,-241.374,275.073,401.456,8634654
-0.0411987,0.0371094,1.00903,-0.077,0.004,-26.1,-271.477,251.474,401.475,8634669
-0.0119629,0.0691528,0.884521,-0.061,0.047,-26.1,-244.218,226.634,401.512,8634714
0.0437012,0.00775146,0.987976,0.012,0.014,-26.11,-264.309,238.641,401.557,8634759
0.041748,0.0234375,1.05994,0.003,0.027,-26.12,-233.155,259.272,401.572,8634774
-0.0335083,0.0284424,0.9729,-0.064,-0.001,-26.11,-238.604,243.324,401.625,8634819
0.0228271,0.00689697,1.07269,-0.006,0.003,-26.11,-269.357,219.532,401.639,8634834
0.0714722,-0.0325317,0.954224,0.056,-0.009,-26.11,-230.779,243.528,401.673,8634864
-0.0401001,0.0119629,1.0531,-0.064,-0.02,-26.12,-225.836,223.594,401.712,8634909
0.0458984,0.0119019,0.997131,0.013,0.017,-26.11,-207.592,206.254,401.752,8634954
-0.0253906,0.022644,1.10596,-0.056,-0.006,-26.12,-200.471,197.506,401.892,8635089
0.0140381,-0.0124512,0.978149,-0.003,-0.018,-26.13,-196.277,192.632,401.932,8635134
0.0585938,-0.0184326,0.904663,0.041,-0.003,-26.12,-144.859,222.296,401.972,8635179
-0.0532837,0.00830078,0.986084,-0.072,-0.029,-26.12,-173.091,284.204,401.994,8635194
0.141968,-0.12085,0.92218,0.16,-0.055,-26.06,-237.459,237.158,402.033,8635239
0.0566406,-0.057373,1.08624,0.05,-0.035,-26.04,-252.656,280.674,402.073,8635269
0.041626,0.0147095,1.112,0.002,0.03,-25.93,-346.656,387.417,402.233,8635434
-0.0233154,-0.0532227,0.962708,-0.022,-0.056,-25.89,-351.148,374.273,402.275,8635480
-0.0975952,-0.114014,0.967285,-0.063,-0.142,-25.87,-435.474,420.557,402.293,8635494
0.0684814,-0.0993652,0.937927,0.079,-0.055,-25.84,-425.206,442.644,402.333,8635540
0.0354614,-0.069519,1.02618,0.033,-0.041,-25.81,-475.941,445.653,402.376,8635569
0.0412598,-0.0799561,1.11646,0.04,-0.045,-25.78,-436.662,488.222,402.412,8635614
0.119751,0.00958252,1.05066,0.072,0.07,-25.77,-467.803,555.741,402.452,8635660
0.0903931,0.0164795,1.07941,0.043,0.063,-25.76,-559.347,577.884,402.492,8635689
0.121033,-0.0473022,1.00116,0.1,0.019,-25.73,-490.966,475.477,402.535,8635734
0.0341797,-0.0543823,0.94812,0.026,-0.025,-25.73,-533.149,472.791,402.553,8635749
0.0186768,-0.0718994,0.885986,0.021,-0.047,-25.72,-614.779,555.34,402.592,8635794
0.0541992,0.0195312,1.27765,0.003,0.054,-25.71,-406.967,516.622,402.633,8635824
0.0227051,-0.0281372,1.00458,0.003,-0.005,-25.64,-484.262,566.139,402.792,8635990
0.071167,-0.00177002,0.989624,0.035,0.038,-25.62,-590.528,587.924,402.832,8636035
0.139404,-0.0376587,0.983704,0.113,0.035,-25.62,-472.713,583.482,402.854,8636050
-0.149414,-0.11853,0.989136,-0.113,-0.163,-25.6,-513.057,563.904,402.892,8636095
-0.0289917,-0.0239868,1.1015,-0.048,-0.026,-25.58,-520.183,605.785,402.918,8636125
0.0101318,-0.0708618,1.1521,0.005,-0.051,-25.55,-593.014,580.114,402.953,8636155
-0.0893555,-0.0463867,1.13989,-0.093,-0.073,-25.54,-575.788,589.084,402.992,8636185
0.219971,0.0090332,1.00195,0.167,0.108,-25.5,-565.355,530.701,403.032,8636230
0.078125,0.071167,1.20197,0.007,0.104,-25.47,-523.314,576.784,403.054,8636260
-0.0921021,0.114319,1.04169,-0.161,0.068,-25.46,-325.882,497.327,403.094,8636290
0.0959473,0.0125122,0.802917,0.06,0.055,-25.46,-596.143,528.667,403.132,8636335
-0.0854492,0.00390625,1.21814,-0.11,-0.03,-25.45,-485.602,518.162,403.172,8636365
-0.0895996,-0.0228882,0.9245,-0.094,-0.058,-25.44,-436.129,502.98,403.212,8636410
-0.143677,0.0229492,0.955444,-0.164,-0.04,-25.44,-473.384,494.792,403.235,8636440
0.0286865,0.0137329,1.02185,-0.004,0.02,-25.44,-468.274,406.876,403.393,8636590
0.101562,0.0616455,1.13104,0.039,0.093,-25.44,-404.785,418.288,403.414,8636620
0.141235,0.0670166,0.997803,0.076,0.115,-25.44,-406.86,462.503,403.452,8636650
-0.074707,0.0241089,1.18146,-0.104,-0.018,-25.44,-447.407,453.463,403.492,8636695
-0.0771484,-0.0756226,1.05469,-0.06,-0.108,-25.45,-474.35,393.414,403.513,8636710
-0.00158691,0.0300903,0.939392,-0.034,0.019,-25.46,-396.731,458.043,403.552,8636755
-0.129395,-0.0299683,1.00128,-0.126,-0.09,-25.46,-417.467,447.497,403.592,8636785
0.0474854,0.0460205,0.996643,0.001,0.052,-25.47,-395.726,385.282,403.712,8636905
0.177795,0.083374,1.30371,0.097,0.14,-25.46,-342.466,410.164,403.752,8636950
-0.115479,0.0147095,0.995544,-0.132,-0.045,-25.44,-334.65,426.43,403.792,8636995
-0.0571899,0.0846558,1.02386,-0.109,0.041,-25.44,-439.078,332.757,403.815,8637010
0.0866699,0.0628662,1.01471,0.03,0.083,-25.44,-393.809,365.07,403.852,8637055
0.0837402,-0.0441284,0.894775,0.075,-0.013,-25.44,-366.394,347.881,403.893,8637085
0.15094,0.0652466,1.02258,0.087,0.112,-25.44,-383.737,333.356,403.913,8637115
0.0120239,0.0300293,1.08002,-0.025,0.019,-25.42,-355.435,370.837,403.952,8637145
-0.00549316,-0.0421143,1.03729,-0.009,-0.052,-25.42,-351.568,341.577,403.993,8637190
0.071167,0.046814,0.922302,0.025,0.062,-25.42,-284.394,347.971,404.015,8637221
0.0855713,-0.00183105,0.937134,0.058,0.024,-25.41,-391.972,322.497,404.055,8637250
0.187012,0.0285645,0.99585,0.136,0.095,-25.4,-368.121,367.431,404.092,8637295
0.00128174,0.0200806,1.06689,-0.029,0.007,-25.4,-377.843,314.332,404.134,8637341
0.0717163,-0.00262451,1.104,0.043,0.017,-25.38,-328.78,336.197,404.192,8637385
-0.0140381,0.0110474,1.00409,-0.038,-0.006,-25.38,-349.473,346.711,404.232,8637430
0.0942993,0.00427246,0.89386,0.064,0.035,-25.38,-357.341,380.604,404.254,8637445
-0.000549316,0.0223999,0.942261,-0.03,0.01,-25.37,-386.384,361.795,404.294,8637490
0.106201,-0.0291748,1.05389,0.083,0.009,-25.36,-344.459,355.6,404.452,8637656
0.0526733,0.00201416,1.05084,0.022,0.015,-25.36,-297.81,348.547,404.493,8637686
-0.0114746,0.00946045,0.932007,-0.035,-0.005,-25.36,-275.232,254.641,404.534,8637731
0.0067749,0.218018,1.12109,-0.111,0.185,-25.38,-188.166,265.256,404.584,8637791
0.0067749,0.218018,1.12109,-0.111,0.185,-25.38,-215.364,287.299,404.597,8637791
0.0128174,0.103333,0.935181,-0.051,0.084,-25.36,-226.958,200.658,404.623,8637821
0.0819702,0.0387573,0.9505,0.039,0.053,-25.37,-187.071,171.814,404.682,8637881
0.0840454,0.0536499,0.903687,0.036,0.068,-25.36,-195.549,167.988,404.7,8637896
0.0772095,0.015625,1.02612,0.044,0.028,-25.36,-178.907,170.072,404.726,8637926
-0.0237427,0.0734253,1.0896,-0.071,0.034,-25.38,-135.364,156.804,404.772,8637971
0.0684814,0.0269775,0.995056,0.033,0.032,-25.37,-118.778,130.999,404.794,8638001
0.020752,0.0699463,1.04034,-0.028,0.048,-25.37,-113.545,102.297,404.844,8638046
0.020752,0.0699463,1.04034,-0.028,0.048,-25.37,-111.155,98.8831,404.852,8638046
0.00793457,0.036499,1.01007,-0.025,0.012,-25.36,-102.688,83.5143,404.874,8638076
0.0366211,0.076355,1.01508,-0.015,0.06,-25.36,-60.3657,71.1159,404.912,8638106
0.00689697,0.071167,1.02167,-0.04,0.041,-25.36,-43.1945,53.1745,404.953,8638151
0.015686,0.0588379,1.01855,-0.026,0.032,-25.36,-30.8331,33.5559,404.993,8638196
0.0411377,0.0603027,1.02441,-0.003,0.044,-25.36,-20.5359,33.5559,405.015,8638211
0.0963745,0.0883789,0.987122,0.035,0.092,-25.38,-193.956,-7.46793,405.054,8638256
0.119507,-0.102478,0.93396,0.134,-0.065,-25.66,-280.281,-100.156,405.112,8638316
0.0524902,-0.11499,1.01837,0.076,-0.107,-25.83,-377.358,-108.541,405.132,8638331
0.334045,-0.0162354,1.35016,0.254,0.11,-28.27,-606.943,-296.463,405.231,8638436
-0.0911255,-0.211426,0.905273,-0.011,-0.251,-28.81,-827.164,-290.394,405.251,8638451
-0.181519,0.147949,1.06012,-0.292,-0.038,-39.97,-401.413,-129.914,405.463,8638662
0.15155,-0.0786743,0.92395,0.118,0.009,-41.92,-542.918,-269.669,405.512,8638706
0.116577,-0.0136108,0.818359,0.051,0.039,-43.26,-718.675,-346.32,405.533,8638736
0.157349,0.0256348,1.17572,0.032,0.082,-44.02,-817.494,-412.763,405.552,8638751
0.026123,-0.0760498,0.80249,0.028,-0.066,-44.82,-778.059,-440.441,405.572,8638766
-0.202576,-0.0504761,0.703613,-0.141,-0.21,-46.57,-779.302,-504.528,405.593,8638796
0.124878,0.0379639,1.18768,-0.01,0.068,-47.49,-869.225,-548.591,405.612,8638811
0.187805,-0.119141,1.18011,0.145,0.009,-48.46,-865.688,-557.103,405.632,8638826
-0.0627441,-0.144653,0.664551,0.034,-0.17,-51.57,-706.989,-562.098,405.672,8638871
0.160522,0.162964,1.5434,-0.134,0.146,-54.93,-977.756,-577.968,405.716,8638916
0.238281,-0.190308,0.949158,0.234,0.041,-56.06,-843.135,-511.182,405.739,8638931
0.14563,-0.0925293,1.02057,0.092,0.022,-59.59,-835.457,-604.759,405.775,8638976
0.514771,0.11792,1.19867,0.057,0.442,-63.23,-763.884,-622.762,405.814,8639022
0.620789,-0.0724487,1.05756,0.263,0.472,-65.65,-776.096,-693.602,405.853,8639051
0.167969,0.0748291,0.707397,-0.062,0.132,-75.87,-786.225,-483.933,405.974,8639172
0.286987,0.173279,1.0719,-0.149,0.244,-77.2,-619.655,-475.093,405.982,8639187
0.286987,0.173279,1.0719,-0.149,0.244,-77.2,-952.154,-549.828,405.993,8639187
0.0098877,0.102234,0.643494,-0.122,-0.016,-79.88,-977.852,-507.408,406.012,8639217
-0.199158,0.0999756,0.805603,-0.15,-0.239,-82.61,-1133.02,-554.739,406.052,8639247
-0.134644,0.0543823,0.904053,-0.089,-0.191,-85.37,-995.173,-501.744,406.081,8639277
0.29718,0.162048,1.15546,-0.177,0.224,-88.18,-1103.2,-442.674,406.113,8639307
-0.170288,0.0471191,0.568176,-0.048,-0.21,-92.44,-1182.24,-552.822,406.152,8639352
0.358154,0.264221,1.08276,-0.312,0.249,-96.75,-840.795,-506.163,406.192,8639397
0.150574,0.287598,1.29303,-0.31,0.01,-99.6,-662.011,-236.13,406.232,8639427
-0.143738,0.238892,0.732239,-0.199,-0.24,-102.3,-494.096,-142.736,406.252,8639457
-0.203857,0.18042,1.14502,-0.11,-0.315,-104.62,-304.201,-70.5485,406.293,8639487
0.00488281,0.168884,1.16217,-0.145,-0.107,-107.42,-392.211,-32.6694,406.333,8639532
-0.15802,0.213562,1.14484,-0.128,-0.272,-109.98,-360.276,-41.0369,406.374,8639577
-0.272949,0.0824585,0.976135,0.036,-0.325,-110.72,-325.818,-27.0519,406.396,8639592
-0.28241,0.0830078,1.04144,0.064,-0.31,-115.41,-182.897,8.30271,406.533,8639727
0.0343018,0.0470581,0.981689,-0.04,0.012,-116.66,-33.9173,49.1033,406.673,8639877
0.0800781,0.0314331,0.988586,-0.046,0.061,-116.66,-22.6509,29.3253,406.712,8639907
0.031189,0.0255127,1.0025,-0.018,0.019,-116.66,-19.6078,29.3253,406.752,8639952
-0.0761719,-0.052124,1.04053,0.091,-0.044,-116.66,-93.9091,311.289,407.014,8640207
0.0994263,-0.255432,0.77948,0.187,0.202,-116.57,-142.768,825.355,407.053,8640252
0.180664,-0.27478,0.891296,0.165,0.281,-116.39,-159.285,907.853,407.076,8640283
0.0394287,-0.238037,0.82196,0.192,0.136,-116.2,-224.271,1011.89,407.112,8640312
-0.329956,-0.128967,1.02216,0.25,-0.245,-115.92,-260.722,1020.2,407.152,8640357
-0.0567627,-0.165771,0.835754,0.162,0.016,-115.66,-299.729,864.043,407.194,8640387
-0.200195,-0.0136719,0.85498,0.061,-0.184,-112.77,-506.342,644.081,407.354,8640552
0.00842285,0.0822144,0.806885,-0.106,-0.029,-112.03,-534.974,578.72,407.394,8640597
0.0120239,0.0325317,0.716187,-0.055,-0.008,-111.78,-521.295,581.429,407.434,8640627
0.119751,0.108582,0.988159,-0.165,0.057,-111.66,-600.943,468.077,407.496,8640703
-0.0204468,0.0205688,1.01422,-0.019,-0.033,-111.66,-403.836,371.872,407.693,8640898
-0.0701294,-0.0341187,1.13336,0.053,-0.059,-111.75,-370.927,382.57,407.974,8641168
0.0211792,0.00213623,0.991943,-0.013,0.013,-111.77,-394.563,300.549,408.012,8641213
-0.0355835,-0.00482178,1.03564,0.013,-0.037,-111.78,-325.119,308.885,408.039,8641243
0.067627,0.0314331,0.975159,-0.058,0.045,-111.81,-230.752,357.43,408.074,8641273
-0.105896,0.0522461,1.11078,-0.014,-0.124,-111.84,-395.836,399.888,408.112,8641318
0.0752563,-0.0161133,0.879456,-0.017,0.071,-111.86,-408.622,431.034,408.153,8641348
-0.0300903,-0.0822144,1.00458,0.081,-0.002,-111.88,-409.987,348.22,408.174,8641378
-0.135925,-0.0249634,0.955688,0.067,-0.122,-111.89,-326.52,346.909,408.214,8641408
-0.222168,-0.110046,0.922546,0.175,-0.171,-112.1,-488.962,504.02,408.573,8641768
-0.0449829,-0.0305176,1.06879,0.033,-0.037,-112.11,-467.924,458.674,408.595,8641798
0.0811157,0.0663452,1.03802,-0.102,0.041,-112.19,-521.322,435.36,408.794,8641993
-0.0523682,0.126282,1.03467,-0.102,-0.102,-112.2,-385.788,375.361,408.913,8642113
-0.0250854,0.0786133,1.08679,-0.067,-0.058,-112.21,-351.457,407.548,408.954,8642158
0.0623169,-0.00976562,1.14398,-0.017,0.055,-112.22,-441.911,465.539,408.992,8642188
0.0445557,0.0234375,1.10712,-0.039,0.028,-112.23,-463.564,326.536,409.034,8642233
0.0330811,-0.0090332,0.928162,-0.004,0.03,-112.23,-426.285,340.669,409.054,8642248
-0.13678,-0.000427246,1.08563,0.053,-0.13,-112.24,-362.628,353.282,409.093,8642294
0.186829,-0.0151367,0.789734,-0.055,0.176,-112.24,-319.448,336.87,409.135,8642339
-0.0924683,-0.0602417,1.14185,0.092,-0.066,-112.25,-361.304,393.786,409.154,8642354
-0.0189209,-0.0645142,0.910034,0.068,0.004,-112.28,-375.587,420.053,409.193,8642399
-0.00933838,-0.0510254,0.891296,0.051,0.008,-112.3,-380.691,379.658,409.232,8642429
0.0701904,-0.00866699,1.03088,-0.017,0.066,-112.3,-301.805,364.518,409.273,8642474
0.022644,-0.0482788,0.893066,0.036,0.037,-112.36,-338.621,331.34,409.415,8642609
-0.0109863,0.0896606,1.11456,-0.078,-0.047,-112.38,-368.067,349.485,409.453,8642654
0.00390625,0.0280151,1.12103,-0.027,-0.01,-112.4,-427.296,375.411,409.481,8642684
-0.0686646,-0.0439453,0.945496,0.066,-0.049,-112.41,-441.579,405.943,409.514,8642714
0.00494385,0.0483398,1.04474,-0.047,-0.017,-112.42,-428.229,416.432,409.552,8642759
0.190796,-0.000183105,0.914185,-0.073,0.173,-112.43,-414.878,368.1,409.592,8642789
-0.00494385,-0.0714111,1.20258,0.066,0.018,-112.44,-448.38,404.891,409.613,8642819
0.0979614,0.0367432,1.00757,-0.072,0.072,-112.45,-451.202,330.033,409.652,8642849
-0.00994873,-0.00665283,1.19257,0.007,-0.011,-112.46,-435.578,428.477,409.675,8642879
0.0214844,-0.0162964,0.869995,0.005,0.022,-112.46,-414.869,377.038,409.712,8642909
-0.192322,-0.0531616,1.06995,0.121,-0.162,-112.48,-453.402,390.755,409.753,8642954
-0.00616455,-0.0422363,1.03992,0.04,0.005,-112.48,-452.366,385.855,409.776,8642969
0.0527954,0.109863,0.887512,-0.122,0.002,-112.5,-422.86,422.538,409.812,8643014
-0.286438,0.0426636,1.15808,0.071,-0.286,-112.49,-400.753,374.413,409.852,8643059
-0.124756,0.110413,1.15057,-0.052,-0.162,-112.49,-350.619,313.219,409.874,8643074
0.0141602,0.101624,1.07166,-0.091,-0.029,-112.48,-310.034,311.682,409.992,8643194
-0.00933838,0.050415,0.936584,-0.034,-0.031,-112.49,-298.775,297.903,410.032,8643224
0.0333862,-0.00958252,0.942932,0.004,0.032,-112.48,-291.091,265.178,410.057,8643254
0.0534668,0.0234375,0.86322,-0.032,0.039,-112.49,-245.921,265.64,410.094,8643299
-0.0862427,0.0203857,0.972961,0.024,-0.089,-112.5,-296.732,245.939,410.133,8643329
-0.0281982,-0.0362549,0.946838,0.055,-0.013,-112.51,-252.048,260.41,410.192,8643389
0.0893555,0.00158691,0.988647,-0.023,0.08,-112.51,-219.325,226.501,410.216,8643419
-0.0236206,0.00280762,0.983887,0.018,-0.024,-112.52,-260.064,230.744,410.253,8643449
0.0370483,0.0078125,0.988159,-0.009,0.03,-112.52,-211.611,215.325,410.295,8643494
0.0131836,-0.0281982,0.954773,0.031,0.021,-112.56,-276.905,215.617,410.452,8643659
-0.038269,-0.0161133,1.08191,0.04,-0.031,-112.56,-280.978,239.309,410.473,8643674
-0.0490112,-0.0490723,1.07367,0.074,-0.029,-112.58,-253.44,261.804,410.512,8643719
-0.0715942,-0.0339355,0.969116,0.067,-0.056,-112.59,-298.846,257.762,410.552,8643749
0.0320435,-0.00695801,1.03888,0.001,0.028,-112.59,-283.523,264.634,410.576,8643779
-0.0332031,-0.00665283,0.998962,0.025,-0.032,-112.62,-316.066,291.452,410.612,8643809
-0.0313721,0.0045166,1.08472,0.014,-0.035,-112.62,-272.127,280.647,410.652,8643854
0.00848389,-0.041626,0.835022,0.039,0.02,-112.63,-283.825,287.48,410.675,8643870
0.0625,0.0224609,1.06598,-0.039,0.044,-112.63,-319.55,270.245,410.712,8643915
0.0371094,0.0899658,1.04865,-0.092,-0.004,-112.64,-248.463,337.484,410.753,8643960
0.126709,0.0524292,1.06805,-0.091,0.092,-112.63,-279.728,267.48,410.775,8643975
-0.00372314,0.0488892,1.01398,-0.032,-0.024,-112.62,-179.976,175.911,410.893,8644095
-0.00921631,0.0477905,1.05908,-0.027,-0.029,-112.63,-178.282,193.759,410.933,8644125
-0.00750732,0.0979004,0.95929,-0.071,-0.044,-112.62,-115.099,110.484,411.053,8644260
0.0145264,0.0359497,0.971313,-0.021,0,-112.62,-92.8587,89.0892,411.093,8644290
-0.0232544,0.173157,1.0705,-0.128,-0.086,-112.63,-54.6402,62.9378,411.152,8644350
0.113159,0.0482788,0.885437,-0.063,0.077,-113.45,-56.7759,-650.999,411.273,8644470
0.0466919,-0.0287476,0.934692,0.036,0.041,-114.32,-106.897,-970.874,411.312,8644515
0.457764,0.0322876,1.09991,-0.185,0.385,-114.7,-121.57,-961.538,411.334,8644530
0.220093,-0.0266113,0.895142,-0.042,0.19,-116.15,-127.478,-944.867,411.375,8644575
0.219421,0.00891113,1.17035,-0.067,0.161,-117.87,-155.31,-977.231,411.413,8644620
0.348511,-0.0147095,0.871887,-0.12,0.289,-118.52,-163.967,-951.882,411.432,8644635
0.0230103,0.0494995,0.932373,-0.017,-0.033,-119.91,-227.151,-955.703,411.472,8644665
0.0698242,-6.10352e-05,0.590088,-0.011,0.039,-122.16,-182.309,-1024.49,411.512,8644710
0.284546,0.0758667,1.09283,-0.17,0.157,-123.85,-200.598,-1072.16,411.534,8644740
-0.0123901,0.086853,0.799438,-0.024,-0.089,-125.6,-188.218,-967.726,411.573,8644770
0.202087,0.0908203,1.1626,-0.138,0.062,-128.34,-262.881,-1082.02,411.613,8644815
0.213745,0.000671387,1.04346,-0.082,0.129,-129.29,-228.561,-1194.67,411.633,8644830
0.171204,0.188354,1.4223,-0.176,-0.046,-132.22,-254.197,-1011.53,411.672,8644875
-0.107483,-0.000732422,0.858765,0.122,-0.105,-133.23,-250.831,-1160.83,411.696,8644890
0.310425,0.288635,1.28406,-0.344,-0.034,-136.38,-237.818,-1120.26,411.732,8644935
-0.0775757,0.187073,1.04639,0,-0.219,-138.53,-232.299,-1160.9,411.772,8644966
0.176819,0.167542,1.0553,-0.174,-0.042,-140.7,-188.324,-992.507,411.794,8644995
0.0897217,0.188477,0.935303,-0.118,-0.118,-144.06,-217.363,-1049.32,411.832,8645040
-0.161987,0.113403,0.880432,0.134,-0.198,-146.34,-224.447,-1067.24,411.872,8645070
-0.188965,0.197266,1.11609,0.139,-0.28,-148.65,-195.311,-939.717,411.894,8645100
-0.128479,0.228394,1.05383,0.079,-0.271,-151.07,-181.25,-946.522,411.932,8645130
0.0300903,0.138489,0.670837,-0.036,-0.114,-154.7,-189.423,-1144.82,411.973,8645175
-0.0971069,0.119446,1.15497,0.125,-0.15,-155.91,-212.651,-1057.25,411.993,8645190
-0.0822754,0.144714,1.0719,0.107,-0.162,-159.66,-248.697,-1086.96,412.032,8645235
0.129272,0.0410767,0.951599,-0.064,0.004,-163.44,-200.489,-1134.3,412.073,8645280
-0.404663,0.123474,1.17438,0.453,-0.205,-166.05,-225.581,-1024.75,412.113,8645310
0.253418,0.266052,1.05731,-0.217,-0.195,-168.71,-199.221,-1016.31,412.133,8645340
-0.0808105,0.173645,1.14612,0.144,-0.162,-171.39,-182.857,-959.463,412.172,8645370
0.302307,0.157288,0.877991,-0.248,-0.104,-174.09,-178.431,-567.811,412.196,8645400
-0.248474,0.0808105,1.08484,0.325,-0.064,-176.76,-197.202,-519.615,412.233,8645430
-0.211548,0.131897,1.17584,0.292,-0.092,179.41,-125.924,-488.067,412.273,8645476
-0.357971,0.076416,1.05579,0.423,-0.012,175.98,-167.691,-416.641,412.314,8645521
-0.0975342,0.0340576,1.0733,0.158,0.014,174.93,-160.612,-414.43,412.337,8645536
-0.0461426,0.112,1.1842,0.115,-0.059,172.01,-94.4644,-402.423,412.38,8645581
-0.36554,0.0402222,0.923462,0.406,0.051,171.12,-109.957,-331.422,412.394,8645596
-0.418396,0.107666,1.07355,0.471,0.012,169.47,-125.143,-336.774,412.432,8645626
-0.21875,0.0606079,1.02094,0.257,0.029,167.27,-102.538,-292.689,412.472,8645671
-0.143677,-0.000610352,0.892212,0.161,0.07,166.01,-100.868,-254.149,412.495,8645701
-0.127136,0.000488281,0.813416,0.139,0.064,164.89,-74.7823,-187.704,412.533,8645731
-0.453735,0.0748901,0.964905,0.468,0.093,163.53,-52.5395,-153.169,412.573,8645776
-0.209839,0.0228271,0.746338,0.215,0.067,163.16,-40.5697,-147.365,412.594,8645791
-0.280029,0.0280762,1.04083,0.278,0.096,162.33,-22.6216,-120.454,412.633,8645836
-0.230408,0.0131836,0.822144,0.218,0.086,161.8,6.37189,-48.1635,412.692,8645896
-0.210449,-0.000549316,1.23059,0.189,0.105,161.76,34.816,-36.9779,412.714,8645911
-0.0637817,-0.0170288,0.992676,0.047,0.066,161.76,26.1488,-26.9244,412.753,8645956
0.0783081,-0.0352783,1.03558,-0.092,0.037,161.77,21.853,-16.6737,412.813,8646016
0.0180664,0.00598145,1.00909,-0.021,0.015,161.76,4.21167,-16.6737,412.852,8646061
0.0431519,0.0114136,1.00427,-0.043,0.002,161.76,-3.72269,-3.39991,412.892,8646091
0.0126953,0.0180054,1.00867,-0.012,0.005,161.76,-7.34203,3.31919,412.913,8646121
-0.00305176,0.0236206,1.00787,0.004,0.004,161.76,-17.3764,14.0385,412.952,8646151
0.00585938,0.0241699,1.01526,-0.003,0.001,161.76,-17.5819,14.3863,412.993,8646196
0.0222778,0.0302124,1.01324,-0.017,-0.009,161.75,-17.3303,13.2305,413.014,8646211
0.0411987,-0.0147095,1.02783,-0.049,0.027,161.75,-121.644,12.3682,413.054,8646256
-0.123657,-0.230957,1.02985,0.04,0.282,161.74,-51.6824,137.413,413.092,8646286
0.0394897,-0.250854,0.941589,-0.118,0.243,161.78,-127.694,149.25,413.114,8646316
0.00982666,-0.188354,0.964111,-0.068,0.186,161.77,-223.579,228.394,413.158,8646361
-0.00866699,-0.156616,1.02521,-0.038,0.158,161.78,-253.248,286.989,413.193,8646391
-0.0819702,-0.170349,1.01489,0.027,0.19,161.79,-291.036,285.185,413.215,8646421
0.0900879,-0.0723267,0.985413,-0.103,0.039,161.81,-423.173,349.333,413.273,8646467
-0.0357056,-0.116028,1.10724,0.007,0.111,161.84,-478.526,473.104,413.392,8646587
-0.0921021,-0.0249634,1.19971,0.091,0.038,161.86,-540.862,524.123,413.445,8646647
0.160095,0.06073,0.969421,-0.123,-0.119,161.87,-523.725,454.897,413.492,8646691
-0.0834961,0.0377808,0.908813,0.1,-0.02,161.87,-496.512,549.511,413.512,8646707
-0.10321,-0.0854492,0.819214,0.079,0.103,161.89,-483.138,449.206,413.552,8646751
0.00341797,-0.0215454,0.963074,0,0.008,161.89,-485.944,508.776,413.595,8646796
-0.00250244,0.0248413,0.891724,0.019,-0.033,161.9,-486.819,525.265,413.614,8646811
-0.157104,0.131042,1.09778,0.201,-0.087,161.91,-472.367,542.329,413.658,8646856
0.0194092,0.0167236,1.17096,0,-0.033,161.91,-505.663,567.875,413.692,8646887
-0.0657349,0.0475464,0.868958,0.086,-0.032,161.91,-489.5,476.168,413.732,8646931
0.37384,0.0592651,0.8974,-0.328,-0.179,161.92,-501.769,460.638,413.758,8646961
0.133667,-0.0310059,0.956238,-0.127,-0.018,161.92,-619.982,429.258,413.794,8646991
0.209106,-0.0942383,1.63,-0.214,0.015,161.93,-507.717,463.489,413.832,8647036
-0.0402832,-0.00201416,1.06268,0.047,0.009,161.93,-462.267,461.308,413.892,8647097
0.12262,0.0488892,0.825867,-0.094,-0.088,161.93,-477.76,431.434,413.913,8647112
0.0319214,0.122803,1.1153,0.018,-0.129,161.92,-370.021,475.285,413.954,8647157
0.195435,0.0270386,1.00122,-0.168,-0.088,161.92,-515.092,476.361,413.978,8647172
-0.0222778,0.108826,0.977905,0.062,-0.098,161.91,-511.457,386.339,414.013,8647217
0.261414,0.0216675,1.00287,-0.233,-0.103,161.91,-558.067,460.883,414.054,8647247
0.271057,-0.0303345,1.19165,-0.257,-0.056,161.9,-450.278,440.577,414.078,8647277
0.057251,0.0998535,1.05457,-0.015,-0.112,161.88,-400.408,432.938,414.132,8647337
-0.106445,0.069458,0.966125,0.13,-0.031,161.86,-465.008,455.332,414.152,8647352
-0.120178,-0.059082,0.826599,0.101,0.095,161.86,-451.345,421.754,414.192,8647397
0.118042,0.0740356,1.10992,-0.081,-0.103,161.85,-433.294,425.94,414.232,8647427
0.0811157,0.0615845,0.763611,-0.052,-0.08,161.84,-433.604,462.995,414.293,8647487
-0.0806274,-0.0401611,1.14832,0.073,0.07,161.8,-421.47,373.608,414.407,8647607
-0.0952148,0.0133057,0.850647,0.101,0.023,161.8,-411.65,400.465,414.438,8647637
0.112366,0.0224609,1.20813,-0.09,-0.048,161.8,-383.325,434.103,414.473,8647667
0.0204468,0.0408936,0.963379,0.001,-0.038,161.78,-362.779,412.686,414.512,8647712
0.149414,0.019165,0.855286,-0.129,-0.058,161.79,-403.372,380.366,414.533,8647742
-0.00335693,0.0435791,1.05145,0.025,-0.031,161.77,-406.562,353.276,414.572,8647772
0.149353,-0.00500488,0.9552,-0.136,-0.032,161.75,-405.211,396.637,414.692,8647892
-0.0879517,0.03125,1.07251,0.101,0.009,161.75,-344.009,340.391,414.732,8647937
-0.0308838,0.0513306,1.09296,0.052,-0.027,161.74,-373.399,342.683,414.755,8647952
0.0645142,0.0720215,1.06635,-0.031,-0.077,161.73,-351.272,349.938,414.793,8647997
0.0508423,0.0189209,0.992554,-0.034,-0.023,161.72,-313.063,327.418,414.832,8648027
-0.0386353,0.00262451,1.07867,0.046,0.019,161.66,-343.56,354.152,415.033,8648237
0.0354004,0.0527954,0.935852,-0.008,-0.052,161.64,-333.489,310.347,415.075,8648282
0.12738,0.0303345,1.01941,-0.102,-0.059,161.63,-388.75,319.474,415.114,8648312
-0.0415649,-0.0327148,0.936401,0.037,0.052,161.62,-365.724,314.357,415.132,8648328
-0.108887,-0.0656738,1.09973,0.092,0.106,161.58,-350.625,341.524,415.176,8648372
-0.117493,0.0165405,1.03857,0.126,0.03,161.55,-312.461,419.798,415.212,8648417
-0.11615,-0.0621338,1.03082,0.1,0.103,161.55,-367.857,323.039,415.233,8648432
0.00372314,-0.0179443,0.986633,0,0.023,161.53,-359.622,383.48,415.272,8648477
0.0513306,0.0778809,1.05951,-0.013,-0.081,161.52,-350.171,351.661,415.312,8648508
0.0649414,0.0667725,1.00409,-0.03,-0.076,161.48,-332.381,318.061,415.349,8648552
0.106995,0.000610352,1.03784,-0.09,-0.026,161.48,-361.814,313.465,415.374,8648568
0.052002,0.015625,0.936707,-0.034,-0.024,161.38,-408.188,358.938,415.552,8648748
0.0505981,0.0990601,1.06628,-0.005,-0.102,161.36,-359.189,431.76,415.592,8648793
0.111877,0.0134888,1.04279,-0.09,-0.041,161.34,-440.985,328.72,415.626,8648823
0.0320435,-0.0584717,0.969971,-0.037,0.051,161.34,-403.763,322.893,415.653,8648853
0.112854,0.0523071,1.2334,-0.076,-0.077,161.32,-373.615,357.022,415.692,8648898
0.0350342,-0.0235596,1.00427,-0.029,0.018,161.31,-381.476,398.2,415.715,8648913
0.0230103,0.0546265,1.03534,0.007,-0.05,161.29,-420.725,337.359,415.752,8648958
0.0971069,0.0139771,0.966187,-0.076,-0.036,161.28,-380.503,325.452,415.792,8648988
-0.0558472,-0.0605469,1.29211,0.048,0.086,161.25,-371.03,311.823,415.833,8649033
0.119202,0.0219116,0.948914,-0.094,-0.049,161.24,-326.121,332.287,415.854,8649063
0.0960693,0.119873,0.92218,-0.042,-0.135,161.22,-329.777,389.621,415.895,8649093
-0.120178,-0.0540161,1.02563,0.107,0.099,161.2,-368.155,337.684,415.931,8649138
-0.0250244,0.0126953,1.11444,0.04,0.006,161.19,-371.023,333.167,415.972,8649168
0.0125122,-0.0314331,0.965637,-0.011,0.033,161.08,-341.361,317.561,416.132,8649333
0.160889,0.027832,0.849976,-0.133,-0.071,161.02,-434.056,347.953,416.172,8649378
-0.078064,-0.00457764,0.860413,0.083,0.037,160.78,-394.112,375.742,416.338,8649543
0.00372314,-0.00939941,0.984375,0.006,0.015,160.72,-365.631,324.654,416.371,8649573
0.137817,-0.0214844,0.97406,-0.123,-0.016,160.63,-323.85,391.007,416.412,8649618
-0.19635,0.059021,1.07135,0.219,0.018,160.61,-420.256,369.529,416.434,8649633
0.0043335,-0.0421753,1.11078,-0.003,0.048,160.57,-421.532,391.144,416.473,8649678
0.117065,0.0237427,1.13135,-0.087,-0.05,160.53,-390.694,369.324,416.515,8649709
0.0551758,0.0396729,0.854309,-0.027,-0.048,160.47,-350.048,386.645,416.533,8649738
0.0621948,-0.0639038,0.854431,-0.068,0.047,160.44,-412.771,322.648,416.574,8649769
0.0362549,-0.0299683,0.977173,-0.03,0.025,160.37,-408.288,365.892,416.614,8649813
-0.0344849,0.0114136,1.09021,0.051,0.01,160.35,-373.664,411.43,416.633,8649829
0.267029,0.00531006,1.01959,-0.237,-0.085,160.3,-400.24,360.965,416.679,8649873
-0.0483398,-0.0245361,1.19293,0.051,0.05,160.24,-352.224,302.636,416.717,8649918
0.0163574,-0.0291748,1.11389,-0.011,0.032,160.22,-389.681,360.575,416.733,8649933
0.123657,0.0328369,1.00275,-0.091,-0.062,160.17,-398.398,401.857,416.773,8649978
0.102905,0.0109863,0.790894,-0.083,-0.037,160.12,-413.36,360.802,416.815,8650023
0.0211182,0.0759888,1.00739,0.018,-0.068,160.1,-400.28,349.754,416.834,8650038
0.138306,0.0650635,0.746826,-0.099,-0.1,160.08,-417.354,394.571,416.871,8650069
-0.114502,-0.0820923,0.967102,0.091,0.129,159.98,-384.845,417.554,417.053,8650249
0.0979004,-0.0514526,1.00537,-0.097,0.028,159.95,-366.643,302.838,417.093,8650294
0.00152588,0.0305176,0.97644,0.021,-0.015,159.94,-386.877,357.449,417.115,8650309
0.121704,-0.0223999,1.06421,-0.108,-0.005,159.89,-389.257,336.87,417.153,8650354
0.144775,0.0965576,1.15509,-0.088,-0.124,159.83,-384.032,370.686,417.192,8650399
0.0958252,-0.0203857,0.980591,-0.084,0,159.81,-315.477,364.08,417.213,8650414
0.188416,0.046875,1.11127,-0.147,-0.092,159.76,-402.236,387.883,417.252,8650459
0.0869141,-0.020874,0.950134,-0.076,0.003,159.7,-382.738,292.056,417.293,8650489
0.0557861,-0.072998,1.10883,-0.062,0.065,159.63,-359.241,396.959,417.315,8650519
-0.03479,-0.0149536,1.01215,0.04,0.041,159.58,-359.706,335.098,417.352,8650549
0.0640869,0.0167236,0.986389,-0.04,-0.023,159.48,-386.488,345.614,417.392,8650594
0.132568,0.0184937,0.964417,-0.104,-0.049,159.45,-436.538,345.489,417.413,8650609
0.0532837,-0.0189209,1.01666,-0.043,0.014,159.36,-419.868,295.709,417.454,8650654
0.0524902,0.0422363,1.05951,-0.019,-0.041,159.24,-333.817,347.554,417.492,8650699
0.110535,0.078125,1.24292,-0.059,-0.092,159.22,-377.75,292.744,417.512,8650714
-0.0837402,-0.0186157,1.08044,0.087,0.064,159.14,-381.978,333.039,417.552,8650759
0.0641479,0.0578613,1.00769,-0.025,-0.06,159.09,-366.495,315.154,417.592,8650789
-0.0716553,-0.00939941,1.10907,0.078,0.052,159.06,-282.538,325.246,417.625,8650819
-0.164368,-0.012085,1.06567,0.164,0.087,159.02,-389.94,356.119,417.654,8650849
0.246887,0.0227661,1.1582,-0.205,-0.09,158.95,-361.213,256.898,417.692,8650894
-0.0825195,-0.019104,1.21777,0.088,0.068,158.86,-334.091,331.658,417.736,8650939
-0.127686,-0.0276489,0.998291,0.123,0.088,158.86,-346.338,312.798,417.754,8650954
