raw_accel_x,raw_accel_y,raw_accel_z,raw_gyro_x,raw_gyro_y,raw_gyro_z,world_accel_x,world_accel_y,yaw,fused_heading,x,y,z,left_encoder_rate,right_encoder_rate,left_motor,right_motor,temp,fpga time,navx time
-0.0146484,-0.0209351,1.014470.0610352,0,-0.0610352,0,-0.002,53.18,-0.394241,-0.165009,0,0,0,0,0,41.6,309.871,1929980
-0.0148926,-0.0210571,1.01764-0.0610352,-0.0610352,0,0.001,0,-0.01,-0.394241,-0.165009,0,0,0,0,0,41.6,309.88,1929996
-0.0169678,-0.0194702,1.00708-0.12207,-0.12207,0,0,0,-0.01,0,0,0,0,0,0,0,41.6,309.899,1930010
-0.0172729,-0.0186157,1.018250,0,0.0610352,0,0.001,-0.01,0,0,0,0,0,0,0,41.6,309.92,1930026
-0.0153809,-0.0170288,1.01056-0.0610352,-0.12207,0,0.001,0.003,-0.01,0,0,0,0,0,0,0,41.6,309.938,1930056
-0.0188599,-0.0178833,1.011170,-0.0610352,0.0610352,-0.002,0.002,-0.01,0,0,0,0,0,0,0,41.6,309.958,1930071
-0.0162354,-0.019043,1.01733-0.12207,-0.12207,0,0,0.001,-0.01,0,0,0,0,0,0,0,41.6,309.978,1930086
-0.0133667,-0.019165,1.011290,0,0.0610352,0.003,0,-0.01,0,0,0,0,0,0,0,41.6,309.998,1930116
-0.0177002,-0.0175171,1.013-0.0610352,-0.12207,0,-0.001,0.002,-0.01,0,0,0,0,0,0,0,41.6,310.018,1930131
-0.0142822,-0.0187378,1.01147-0.0610352,-0.0610352,0.12207,0.002,0.001,-0.01,0,0,0,0,0,0,0,41.6,310.038,1930146
-0.0158691,-0.0201416,1.01306-0.12207,0,0,0,0,-0.01,0,0,0,0,0,0,0,41.6,310.058,1930176
-0.0211182,-0.0192261,1.011840,0.0610352,0.0610352,-0.004,0,-0.01,0,0,0,0,0,0,0,41.6,310.079,1930191
-0.0148315,-0.0184937,1.013490.0610352,0,-0.0610352,0.001,0.001,-0.01,0,0,0,0,0,0,0,41.6,310.098,1930206
-0.0155029,-0.0205688,1.010860,0,0,0.001,0,-0.01,0,0,0,0,0,0,0,41.6,310.118,1930236
-0.0183716,-0.0189209,1.01550,0.0610352,-0.12207,-0.001,0.001,-0.01,0,0,0,0,0,0,0,41.6,310.14,1930251
-0.0159302,-0.0199585,1.012150,0,0,0,0,-0.01,0,0,0,0,0,0,0,41.6,310.161,1930266
-0.0175171,-0.0181274,1.01080.0610352,0,0,0,0.001,-0.01,0,0,0,0,0,0,0,41.6,310.179,1930296
-0.0154419,-0.0205688,1.01263-0.183105,-0.0610352,-0.0610352,0.001,0,-0.01,0,0,0,0,0,0,0,41.6,310.199,1930311
-0.0180664,-0.0171509,1.010740,0,-0.0610352,-0.001,0.002,-0.01,0,0,0,0,0,0,0,41.6,310.218,1930326
-0.0175171,-0.0195923,1.010860,0,0,0,0,-0.01,0,0,0,0,0,0,0,41.6,310.24,1930356
-0.017395,-0.0202637,1.00879-0.0610352,-0.0610352,0.0610352,0,0,-0.01,0,0,0,0,0,0,0,41.6,310.258,1930371
-0.0153809,-0.0200195,1.011840,0.0610352,-0.0610352,0.001,0,0,0,0,0,0,0,0,0,41.6,310.278,1930386
-0.0167236,-0.0217896,1.00769-0.0610352,-0.0610352,-0.0610352,0,-0.001,0,0,0,0,0,0,0,0,41.58,310.299,1930416
-0.0182495,-0.0181274,1.01318-0.0610352,-0.0610352,-0.0610352,-0.001,0.001,0,0,0,0,0,0,0,0,41.58,310.319,1930431
-0.0186157,-0.0213013,1.009770,0,0,-0.001,-0.001,0,0,0,0,0,0,0,0,41.58,310.338,1930446
-0.0177002,-0.0221558,1.0105-0.0610352,-0.0610352,-0.0610352,-0.001,-0.002,0,0,0,0,0,0,0,0,41.58,310.358,1930476
-0.0158081,-0.0183716,1.015690,0,0,0,0.001,0,0,0,0,0,0,0,0,41.58,310.378,1930491
-0.0174561,-0.0203857,1.010620.0610352,0.0610352,0,0,0,0,0,0,0,0,0,0,0,41.58,310.398,1930506
-0.0183105,-0.0212402,1.01691-0.0610352,-0.0610352,-0.0610352,-0.001,-0.001,0,0,0,0,0,0,0,0,41.58,310.418,1930536
-0.0161743,-0.0194702,1.00983-0.0610352,0.0610352,-0.0610352,0,0,0,0,0,0,0,0,0,0,41.58,310.438,1930551
-0.017334,-0.019104,1.01630,0.0610352,0,0,0,0,0,0,0,0,0,0,0,41.58,310.457,1930566
-0.0174561,-0.0185547,1.011470,0.0610352,0.0610352,0,0.001,0,0,0,0,0,0,0,0,41.58,310.48,1930596
-0.0170898,-0.020813,1.014220,0.0610352,0,0,0,0,0,0,0,0,0,0,0,41.58,310.498,1930611
-0.0159302,-0.0182495,1.01892-0.0610352,-0.0610352,-0.0610352,0,0.001,0,0,0,0,0,0,0,0,41.58,310.518,1930626
-0.019165,-0.0192871,1.016050,0.0610352,0,-0.002,0,0,0,0,0,0,0,0,0,41.58,310.538,1930656
-0.0162964,-0.020874,1.01068-0.12207,-0.12207,0,0,-0.001,0,0,0,0,0,0,0,0,41.58,310.558,1930671
-0.0168457,-0.020874,1.010440,0.0610352,0,0,-0.001,0,0,0,0,0,0,0,0,41.58,310.578,1930686
-0.0183105,-0.019165,1.013550.0610352,0.0610352,0,-0.001,0,-0.01,0,0,0,0,0,0,0,41.58,310.599,1930716
-0.0161743,-0.0183105,1.013-0.183105,-0.183105,-0.0610352,0,0.001,-0.01,0,0,0,0,0,0,0,41.58,310.618,1930731
-0.0166016,-0.020874,1.01422-0.0610352,-0.12207,0,0,0,-0.01,0,0,0,0,0,0,0,41.58,310.638,1930746
-0.0162964,-0.019104,1.00732-0.0610352,-0.0610352,0,0,0,-0.01,0,0,0,0,0,0,0,41.58,310.658,1930776
-0.0172729,-0.0196533,1.00989-0.0610352,0,0.0610352,0,0,-0.01,0,0,0,0,0,0,0,41.58,310.678,1930791
-0.0149536,-0.0167236,1.010740,0.12207,0,0.001,0.003,-0.01,0,0,0,0,0,0,0,41.58,310.698,1930806
-0.0164185,-0.019104,1.012940.0610352,0.0610352,-0.0610352,0,0,-0.01,0,0,0,0,0,0,0,41.58,310.718,1930836
-0.0175171,-0.0187988,1.00562-0.0610352,-0.0610352,0,0,0,-0.01,0,0,0,0,0,0,0,41.58,310.745,1930851
-0.0198975,-0.0245361,1.008240,0.0610352,-0.12207,-0.003,-0.004,-0.01,0,0,0,0,0,0,0,41.58,310.763,1930881
-0.0177612,-0.0194092,1.00427-0.0610352,-0.0610352,-0.0610352,-0.001,0,-0.01,0,0,0,0,0,0,0,41.58,310.779,1930897
-0.0137329,-0.020813,1.01550.0610352,0,0,0.003,0,-0.01,0,0,0,0,0,0,0,41.58,310.798,1930911
-0.0134277,-0.0180664,1.0155-0.12207,-0.12207,0.12207,0.003,0.001,-0.01,0,0,0,0,0,0,0,41.58,310.818,1930926
-0.0164795,-0.0186157,1.014470.0610352,0,0,0,0.001,-0.01,0,0,0,0,0,0,0,41.58,310.838,1930957
-0.015625,-0.0167236,1.014160,-0.0610352,0.0610352,0.001,0.003,-0.01,0,0,0,0,0,0,0,41.58,310.857,1930971
-0.0146484,-0.0211182,1.015620.0610352,-0.12207,-0.0610352,0.002,-0.001,-0.01,0,0,0,0,0,0,0,41.58,310.885,1931001
-0.0163574,-0.0186768,1.01190,0,-0.183105,0,0.001,-0.01,0,0,0,0,0,0,0,41.58,310.903,1931017
-0.0163574,-0.0202637,1.01160,-0.0610352,0.0610352,0,0,-0.01,0,0,0,0,0,0,0,41.58,310.924,1931031
-0.0169067,-0.0194702,1.012390.0610352,0.0610352,0.0610352,0,0,-0.01,0,0,0,0,0,0,0,41.58,310.939,1931046
-0.0153809,-0.0167236,1.01416-0.12207,0,-0.12207,0.001,0.003,-0.01,0,0,0,0,0,0,0,41.58,310.96,1931077
-0.0158081,-0.020874,1.008610,0.0610352,-0.0610352,0.001,-0.001,0,0,0,0,0,0,0,0,41.58,310.98,1931091
-0.0167847,-0.0172119,1.013790.0610352,0.0610352,0,0,0.002,-0.01,0,0,0,0,0,0,0,41.58,310.998,1931106
-0.0153198,-0.0170898,1.01031-0.0610352,-0.0610352,-0.0610352,0.001,0.002,-0.01,0,0,0,0,0,0,0,41.58,311.018,1931137
-0.0142822,-0.0194702,1.00427-0.12207,-0.0610352,0,0.002,0,-0.01,0,0,0,0,0,0,0,41.58,311.038,1931151
-0.0159302,-0.0205688,1.01807-0.0610352,-0.12207,-0.0610352,0,0,-0.01,0,0,0,0,0,0,0,41.58,311.059,1931166
-0.0172729,-0.0182495,1.011960,0,0.0610352,0,0.001,-0.01,0,0,0,0,0,0,0,41.58,311.082,1931197
-0.0158691,-0.0187378,1.012760,0,0,0,0.001,-0.01,0,0,0,0,0,0,0,41.58,311.099,1931211
-0.0167236,-0.0198975,1.006410,0,0.0610352,0,0,-0.01,0,0,0,0,0,0,0,41.58,311.118,1931226
-0.0177002,-0.0205688,1.01611-0.0610352,-0.12207,0.12207,0,0,-0.01,0,0,0,0,0,0,0,41.58,311.138,1931257
-0.0170898,-0.0186768,1.013790,0,0,0,0.001,-0.01,0,0,0,0,0,0,0,41.58,311.158,1931271
-0.0164795,-0.0198975,1.01660,-0.0610352,0.0610352,0,0,-0.01,0,0,0,0,0,0,0,41.58,311.179,1931286
-0.0169067,-0.0192261,1.010070,0,-0.12207,0,0,-0.01,0,0,0,0,0,0,0,41.58,311.198,1931317
-0.0140991,-0.0186157,1.014710,0.244141,-0.12207,0.002,0.001,-0.01,0,0,0,0,0,0,0,41.58,311.218,1931331
-0.0153809,-0.0172119,1.01630,0,-0.12207,0.001,0.002,-0.01,0,0,0,0,0,0,0,41.58,311.238,1931346
-0.0145264,-0.0186768,1.01086-0.0610352,-0.183105,0,0.002,0.001,-0.01,0,0,0,0,0,0,0,41.58,311.259,1931377
-0.0178833,-0.0171509,1.009580.0610352,0.183105,0,-0.001,0.002,-0.01,0,0,0,0,0,0,0,41.58,311.279,1931392
-0.0170288,-0.019043,1.010680.183105,0,0,0,0,-0.01,0,0,0,0,0,0,0,41.58,311.299,1931407
-0.0160522,-0.0184326,1.012820,0.183105,-0.0610352,0,0.001,-0.01,0,0,0,0,0,0,0,41.59,311.318,1931437
-0.0160522,-0.0213623,1.01489-0.0610352,-0.12207,-0.0610352,0,-0.001,-0.01,0,0,0,0,0,0,0,41.59,311.338,1931452
-0.0164795,-0.0185547,1.01740.183105,0,0,0,0.001,0,0,0,0,0,0,0,0,41.59,311.36,1931467
-0.0209961,-0.0217896,1.008910.12207,0.12207,-0.12207,-0.004,-0.002,0,0,0,0,0,0,0,0,41.59,311.386,1931497
-0.0187378,-0.0170898,1.01190,0,0.0610352,-0.001,0.002,0,0,0,0,0,0,0,0,41.59,311.402,1931512
-0.0162354,-0.020752,1.013490,-0.0610352,0,0,-0.001,0,0,0,0,0,0,0,0,41.59,311.418,1931527
-0.0181274,-0.0204468,1.00830.0610352,0.0610352,0,-0.001,0,0,0,0,0,0,0,0,0,41.59,311.438,1931557
-0.0159302,-0.0187378,1.01239-0.0610352,-0.0610352,-0.0610352,0,0,0,0,0,0,0,0,0,0,41.59,311.458,1931572
-0.017395,-0.0189819,1.01276-0.0610352,-0.183105,0,0,0,0,0,0,0,0,0,0,0,41.59,311.478,1931587
-0.0150146,-0.020752,1.007450,0,0.12207,0.001,-0.001,-0.01,0,0,0,0,0,0,0,41.59,311.498,1931617
-0.0161743,-0.0185547,1.012820.0610352,0,-0.0610352,0,0.001,-0.01,0,0,0,0,0,0,0,41.59,311.52,1931632
-0.0165405,-0.0201416,1.010010,0.0610352,0,0,0,-0.01,0,0,0,0,0,0,0,41.59,311.539,1931647
-0.0178833,-0.0192871,1.012820.0610352,0.12207,-0.0610352,0,0,-0.01,0,0,0,0,0,0,0,41.59,311.558,1931677
-0.0110474,-0.0480957,1.01501-0.305176,-0.0610352,0.12207,0.005,-0.028,-0.01,0,-1.52588e-05,0,0,0,0,0,41.59,311.578,1931692
-0.000427246,-0.0857544,1.05298-1.64795,-0.305176,1.2207,0.017,-0.064,-0.02,0,-9.15527e-05,0,0,0,0,0,41.59,311.598,1931707
0.0438843,-0.000915527,0.994751-5.79834,-0.244141,-0.610352,0.06,0.024,-0.01,-4.57764e-05,-0.00062561,0,0,0,0,0,41.59,311.62,1931737
-0.0275269,-0.0151367,0.944763-0.671387,-0.244141,0.305176,-0.011,0.008,-0.01,-4.57764e-05,-0.000915527,0,0,0,0,0,41.59,311.638,1931752
-0.0355835,-0.0557861,0.9968263.78418,-0.12207,0.305176,-0.018,-0.031,-0.02,-4.57764e-05,-0.0012207,0,0,0,0,0,41.59,311.658,1931767
-0.0100708,-0.159546,1.027223.23486,0.183105,-0.610352,0.007,-0.134,-0.01,-4.57764e-05,-0.00163269,0,0,0,0,0,41.59,311.678,1931782
-0.0227661,-0.0495605,1.02808-0.549316,0.549316,-2.0752,-0.005,-0.023,0.01,-4.57764e-05,-0.0027771,0,0,0,0,0,41.59,311.698,1931812
-0.00701904,-0.0511475,0.996765-0.610352,0.183105,-1.77002,0.009,-0.025,0.04,-4.57764e-05,-0.00340271,0,0,0,0,0,41.59,311.718,1931827
-0.010498,-0.0193481,1.00122-0.305176,-0.12207,-0.610352,0.006,0.006,0.06,-4.57764e-05,-0.00405884,0,0,0,0,0,41.59,311.737,1931842
-0.00866699,-0.0136108,1.017821.70898,0.305176,0,0.008,0.012,0.07,-7.62939e-05,-0.00526428,0,0,0,0,0,41.59,311.759,1931872
-0.010498,0.017334,1.005861.70898,-0.183105,-1.09863,0.006,0.042,0.08,-7.62939e-05,-0.00582886,0,0,0,0,0,41.59,311.779,1931887
-0.0230713,-0.0682373,1.0191-5.43213,-0.0610352,-0.244141,-0.005,-0.04,0.11,-7.62939e-05,-0.00721741,0,0,0,0,0,41.59,311.799,1931917
0.00244141,0.0736694,0.966858-3.96728,-0.488281,-0.244141,0.019,0.101,0.12,-7.62939e-05,-0.00793457,0,0,0,0,0,41.59,311.818,1931932
-0.0350952,-0.0251465,0.987305-0.244141,-0.244141,0.488281,-0.018,0.003,0.11,-7.62939e-05,-0.00857544,0,0,0,0,0,41.59,311.838,1931947
-0.0109253,-0.104004,1.018312.01416,0.305176,-0.305176,0.006,-0.074,0.11,-7.62939e-05,-0.00927734,0,0,0,0,0,41.59,311.858,1931962
-0.00341797,-0.0907593,1.02711.64795,-0.427246,-1.34277,0.013,-0.062,0.14,-7.62939e-05,-0.0108948,0,0,0,0,0,41.59,311.881,1931992
-0.0247192,-0.0170898,1.03113-0.183105,-0.183105,-0.671387,-0.007,0.012,0.16,-7.62939e-05,-0.0117798,0,0,0,0,0,41.59,311.899,1932007
-0.00811768,-0.0987549,1.01282-1.70898,-0.183105,-0.427246,0.008,-0.069,0.16,-7.62939e-05,-0.0135193,0,0,0,0,0,41.59,311.918,1932037
-0.022644,-0.043335,1.02917-2.99072,-0.183105,-0.366211,-0.005,-0.011,0.17,-7.62939e-05,-0.0144653,0,0,0,0,0,41.59,311.938,1932052
-0.00836182,0.0183105,0.997314-1.70898,-0.244141,-1.52588,0.008,0.05,0.19,-7.62939e-05,-0.0153809,0,0,0,0,0,41.59,311.958,1932067
0.0192871,-0.0228882,0.9800422.0752,-0.793457,-0.244141,0.035,0.007,0.2,-4.57764e-05,-0.0162506,0,0,0,0,0,41.59,311.978,1932082
-0.0452271,-0.107666,1.041140.915527,0.183105,0,-0.028,-0.074,0.18,0,-0.0181885,0,0,0,0,0,41.59,311.999,1932112
-0.00421143,-0.13739,1.07178-0.793457,0.183105,-0.915527,0.013,-0.103,0.19,0,-0.0193176,0,0,0,0,0,41.59,312.018,1932127
-0.0178223,-0.115112,1.00574-0.305176,0,-1.2207,-0.001,-0.082,0.21,0,-0.0218353,0,0,0,0,0,41.59,312.038,1932158
-0.0480347,-0.127808,1.03052-2.31934,0.305176,-0.366211,-0.031,-0.092,0.22,-1.52588e-05,-0.0232391,0,0,0,0,0,41.59,312.059,1932172
-0.00744629,-0.0159302,1.04358-1.64795,-0.183105,-0.488281,0.009,0.02,0.23,-4.57764e-05,-0.024704,0,0,0,0,0,41.59,312.078,1932187
-0.0352173,-0.154175,1.055662.68555,-0.0610352,-0.366211,-0.018,-0.118,0.23,-6.10352e-05,-0.0276489,0,0,0,0,0,41.59,312.098,1932218
-0.0554199,-0.10321,1.04926-0.12207,0.549316,-1.09863,-0.038,-0.066,0.25,-0.000106812,-0.0292969,0,0,0,0,0,41.59,312.118,1932232
0.0544434,-0.0371094,1.06708-1.83105,-0.244141,-0.366211,0.071,0,0.26,-0.000137329,-0.0309906,0,0,0,0,0,41.59,312.138,1932247
-0.114807,-0.117859,1.016851.15967,1.52588,-1.89209,-0.098,-0.081,0.29,-0.000183105,-0.0345612,0,0,0,0,0,41.59,312.158,1932278
0.05896,-0.0700073,1.07703-0.0610352,0.305176,-0.488281,0.076,-0.032,0.31,-0.000259399,-0.0364838,0,0,0,0,0,41.59,312.179,1932292
-0.0478516,-0.0317993,0.95990.732422,1.09863,-0.854492,-0.032,0.001,0.32,-0.000305176,-0.0384216,0,0,0,0,0,41.59,312.198,1932307
0.0012207,-0.177856,1.09723-0.183105,0.0610352,-1.09863,0.018,-0.14,0.35,-0.000473022,-0.0423584,0,0,0,0,0,41.59,312.221,1932338
0.0211792,-0.130371,1.03827-4.5166,0.976562,0.0610352,0.038,-0.093,0.34,-0.000534058,-0.0445251,0,0,0,0,0,41.59,312.238,1932352
-0.0460815,-0.071167,0.96228-3.35693,0.427246,-1.89209,-0.029,-0.034,0.36,-0.000564575,-0.0467682,0,0,0,0,0,41.59,312.258,1932367
-0.00842285,0.0897827,1.01521.15967,-1.09863,0.305176,0.009,0.127,0.38,-0.00050354,-0.0510406,0,0,0,0,0,41.59,312.279,1932398
-0.0859375,0.0742188,0.9403693.41797,0,-1.09863,-0.069,0.109,0.38,-0.000473022,-0.0529327,0,0,0,0,0,41.59,312.298,1932412
0.00970459,-0.0271606,0.9857184.15039,-0.12207,-0.976562,0.026,0.008,0.4,-0.000473022,-0.0547333,0,0,0,0,0,41.59,312.319,1932427
-0.0674438,-0.0716553,0.983521-1.34277,-0.793457,-2.0752,-0.05,-0.036,0.41,-0.000427246,-0.0583344,0,0,0,0,0,41.6,312.34,1932458
0.026062,-0.0947876,1.02271-1.0376,0.793457,-0.12207,0.043,-0.057,0.42,-0.000427246,-0.0601959,0,0,0,0,0,41.6,312.359,1932472
-0.0597534,-0.104736,1.12402-1.52588,0.488281,-2.01416,-0.041,-0.063,0.44,-0.000427246,-0.0621338,0,0,0,0,0,41.6,312.379,1932487
-0.0483398,0.123901,0.9265755.43213,0.305176,-1.46484,-0.031,0.157,0.45,-0.000350952,-0.0656891,0,0,0,0,0,41.6,312.4,1932518
-0.0456543,0.00830078,1.00941.46484,-0.305176,-2.56348,-0.028,0.043,0.48,-0.000350952,-0.067215,0,0,0,0,0,41.6,312.419,1932532
0.0302734,-0.121521,1.07153-0.305176,0.12207,0.305176,0.047,-0.084,0.48,-0.000320435,-0.0687714,0,0,0,0,0,41.6,312.44,1932547
-0.00720215,-0.0463257,0.914734-2.19727,-1.28174,-0.793457,0.008,-0.013,0.53,-0.000335693,-0.0721741,0,0,0,0,0,41.6,312.46,1932578
0.0184937,-0.0157471,1.08258-1.28174,0.610352,0.427246,0.036,0.022,0.52,-0.000320435,-0.0738983,0,0,0,0,0,41.6,312.483,1932592
-0.12207,-0.123352,1.01086-0.793457,0.427246,-1.58691,-0.105,-0.086,0.54,-0.000350952,-0.0756683,0,0,0,0,0,41.6,312.499,1932607
-0.0838623,0.065918,1.06348-1.15967,0.427246,-1.46484,-0.064,0.107,0.55,-0.000427246,-0.079361,0,0,0,0,0,41.6,312.519,1932638
0.0404053,-0.0895996,0.954163-1.77002,-0.854492,-0.366211,0.056,-0.053,0.57,-0.000473022,-0.0811462,0,0,0,0,0,41.6,312.539,1932652
-0.0537109,-0.132324,1.011471.2207,0.732422,-0.427246,-0.037,-0.092,0.56,-0.00050354,-0.0830383,0,0,0,0,0,41.6,312.558,1932667
-0.000610352,-0.117554,1.016541.83105,0.305176,-0.488281,0.016,-0.078,0.57,-0.000549316,-0.0850372,0,0,0,0,0,41.6,312.579,1932682
-0.0461426,-0.107605,0.9771731.09863,-0.0610352,-0.976562,-0.03,-0.07,0.58,-0.000549316,-0.089386,0,0,0,0,0,41.6,312.599,1932712
-0.0140991,-0.10968,1.009890.915527,1.28174,0.0610352,0.002,-0.072,0.59,-0.000579834,-0.0917053,0,0,0,0,0,41.6,312.618,1932728
-0.0525513,-0.170288,1.02966-0.793457,0.915527,-1.2207,-0.036,-0.132,0.61,-0.00062561,-0.094162,0,0,0,0,0,41.6,312.638,1932743
-0.0465088,-0.146057,1.09045-0.0610352,0.915527,-3.2959,-0.028,-0.105,0.68,-0.000823975,-0.0992432,0,0,0,0,0,41.6,312.658,1932773
-0.00543213,-0.0983276,1.01721-1.46484,0.976562,-0.305176,0.011,-0.06,0.7,-0.000946045,-0.101913,0,0,0,0,0,41.6,312.681,1932788
-0.00671387,-0.154053,1.018010.183105,0.671387,0.671387,0.009,-0.115,0.72,-0.00120544,-0.107101,0,0,0,0,0,41.6,312.703,1932818
-0.0974731,-0.149841,1.052980.854492,0.610352,-0.244141,-0.079,-0.108,0.71,-0.00140381,-0.109833,0,0,0,0,0,41.6,312.72,1932833
0.019043,-0.0422974,1.04572-0.854492,-0.732422,0.671387,0.037,-0.002,0.71,-0.00161743,-0.112656,0,0,0,0,0,41.6,312.739,1932848
0.0211182,-0.0419922,1.043211.0376,0.427246,0.0610352,0.039,-0.002,0.72,-0.00198364,-0.118073,0,0,0,0,0,41.6,312.765,1932878
-0.0639038,-0.235474,1.057190.366211,0.732422,-1.09863,-0.048,-0.194,0.74,-0.00216675,-0.120895,0,0,0,0,0,41.6,312.778,1932893
-0.0667725,-0.137634,1.011841.34277,2.68555,-0.915527,-0.05,-0.098,0.76,-0.00241089,-0.123901,0,0,0,0,0,41.6,312.797,1932908
0.0231934,0.107544,1.024540.12207,0.305176,-1.64795,0.043,0.146,0.78,-0.00267029,-0.126877,0,0,0,0,0,41.6,312.818,1932923
-0.0913696,-0.019165,1.03479-1.77002,1.15967,-2.38037,-0.072,0.022,0.83,-0.00302124,-0.13266,0,0,0,0,0,41.6,312.847,1932953
0.062561,0.00610352,1.10651-3.479,0.427246,0,0.083,0.047,0.84,-0.00320435,-0.135483,0,0,0,0,0,41.6,312.859,1932968
-0.000488281,-0.15033,0.971008-1.77002,-0.488281,-0.549316,0.015,-0.111,0.92,-0.00370789,-0.143875,0,0,0,0,0,41.6,312.906,1933013
-0.0551758,-0.0904541,1.077030.244141,0.549316,-1.95312,-0.036,-0.047,0.94,-0.00387573,-0.146774,0,0,0,0,0,41.6,312.92,1933028
-0.0866089,-0.0425415,0.998535-0.366211,0.488281,-2.50244,-0.068,-0.001,0.98,-0.00430298,-0.152863,0,0,0,0,0,41.6,312.939,1933058
0.0324097,0.00506592,1.05511-2.01416,0,-1.89209,0.053,0.047,1.01,-0.00454712,-0.155914,0,0,0,0,0,41.6,312.958,1933073
-0.106262,0.0127563,1.03186-2.2583,2.13623,-1.89209,-0.086,0.056,1.03,-0.00480652,-0.158905,0,0,0,0,0,41.6,312.979,1933088
0.0268555,-0.0507202,1.04034-1.28174,1.40381,-1.52588,0.046,-0.008,1.07,-0.00509644,-0.16185,0,0,0,0,0,41.6,312.998,1933103
0.0125732,-0.175354,0.98175-2.68555,1.15967,-0.671387,0.029,-0.134,1.12,-0.00563049,-0.167725,0,0,0,0,0,41.6,313.018,1933133
-0.0778198,0.0742798,0.9863280.244141,3.41797,-2.31934,-0.055,0.116,1.14,-0.00590515,-0.1707,0,0,0,0,0,41.6,313.04,1933148
0.0653076,-0.0471191,1.04456-1.09863,0.244141,-0.427246,0.086,-0.004,1.15,-0.00614929,-0.173599,0,0,0,0,0,41.6,313.058,1933163
-0.0297852,-0.177368,1.00037-0.976562,0.244141,-0.366211,-0.011,-0.134,1.17,-0.00668335,-0.179474,0,0,0,0,0,41.6,313.079,1933193
-0.0351562,-0.0819702,1.05756-1.28174,1.09863,0.488281,-0.012,-0.036,1.16,-0.00668335,-0.182571,0,0,0,0,0,41.6,313.098,1933208
-0.0501099,0.120728,1.00037-0.427246,0.183105,0.244141,-0.025,0.164,1.16,-0.00671387,-0.185593,0,0,0,0,0,41.6,313.118,1933238
-0.083374,-0.0578003,0.9974370.12207,1.64795,-0.732422,-0.061,-0.013,1.17,-0.00660706,-0.191025,0,0,0,0,0,41.6,313.138,1933253
0.0302734,-0.0529785,1.026430.915527,0.366211,-1.46484,0.052,-0.01,1.2,-0.00654602,-0.191025,0,0,0,0,0,41.6,313.158,1933268
0.0359497,-0.0519409,0.960083-0.12207,0.732422,-2.13623,0.056,-0.012,1.24,-0.00634766,-0.191025,0,0,0,0,0,41.6,313.178,1933298
-0.0430908,-0.0211792,1.06689-0.671387,1.77002,-1.70898,-0.019,0.024,1.27,-0.00621033,-0.191025,0,0,0,0,0,41.6,313.198,1933313
0.0098877,0.00427246,0.9991460.427246,1.28174,-0.732422,0.033,0.045,1.29,-0.00605774,-0.190964,0,0,0,0,0,41.6,313.218,1933328
-0.0876465,0.0688477,0.9939581.46484,2.38037,-2.31934,-0.062,0.112,1.32,-0.00593567,-0.190811,0,0,0,0,0,41.6,313.238,1933343
0.0117798,0.0731201,1.04285-1.83105,0.183105,-0.732422,0.038,0.116,1.34,-0.00563049,-0.190094,0,0,0,0,0,41.6,313.258,1933373
-0.0856323,-0.190186,1.0080.854492,1.52588,-0.183105,-0.065,-0.146,1.35,-0.00546265,-0.189697,0,0,0,0,0,41.6,313.278,1933388
-0.0667725,-0.129944,1.04232.68555,0.305176,1.2207,-0.043,-0.085,1.34,-0.00537109,-0.189468,0,0,0,0,0,41.6,313.298,1933403
-0.000183105,-0.0380249,1.034421.2207,-0.305176,0,0.025,0.003,1.3,-0.00535583,-0.189209,0,0,0,0,0,41.6,313.318,1933433
-0.0852661,0.0673828,0.9506842.13623,-0.183105,0.366211,-0.059,0.107,1.31,-0.00537109,-0.189011,0,0,0,0,0,41.6,313.338,1933448
0.0162354,0.151733,0.9726561.40381,-1.77002,0,0.043,0.189,1.3,-0.00541687,-0.188629,0,0,0,0,0,41.6,313.358,1933463
0.0045166,-0.0853271,0.9915771.28174,-0.12207,-0.427246,0.026,-0.047,1.31,-0.00547791,-0.187469,0,0,0,0,0,41.57,313.378,1933493
-0.0253906,0.0731201,1.045650.610352,0.12207,-0.610352,0.001,0.113,1.31,-0.00549316,-0.186844,0,0,0,0,0,41.57,313.398,1933508
-0.0773926,-0.0318604,1.103520.610352,1.0376,-0.610352,-0.051,0.011,1.34,-0.00540161,-0.185165,0,0,0,0,0,41.57,313.42,1933538
-0.0759277,-0.189819,1.004151.2207,1.64795,-0.976562,-0.056,-0.151,1.35,-0.00543213,-0.184387,0,0,0,0,0,41.57,313.438,1933553
0.0513916,0.0740967,1.025570.427246,-1.0376,-0.488281,0.077,0.11,1.37,-0.00544739,-0.183624,0,0,0,0,0,41.57,313.458,1933568
-0.0473633,0.046814,1.008540.488281,-0.488281,-2.0752,-0.022,0.084,1.39,-0.00541687,-0.182724,0,0,0,0,0,41.57,313.478,1933583
0.0211182,0.0584717,0.998352-0.366211,-1.0376,-1.46484,0.046,0.094,1.43,-0.00534058,-0.180466,0,0,0,0,0,41.57,313.499,1933613
0.0153809,0.0674438,1.05298-0.549316,-0.732422,-1.2207,0.042,0.104,1.45,-0.00521851,-0.179138,0,0,0,0,0,41.57,313.52,1933628
0.0360107,-0.0793457,0.98584-2.80762,-0.671387,-0.915527,0.057,-0.044,1.47,-0.00495911,-0.176346,0,0,0,0,0,41.57,313.539,1933659
-0.0122681,0.00201416,0.965027-0.305176,-0.915527,-1.52588,0.01,0.037,1.49,-0.00476074,-0.174973,0,0,0,0,0,41.57,313.558,1933673
-0.00268555,-0.0237427,0.9224240.854492,-0.854492,-0.488281,0.018,0.009,1.5,-0.00476074,-0.173553,0,0,0,0,0,41.57,313.578,1933688
-0.0508423,0.0385132,0.9119260.671387,0.488281,-0.915527,-0.028,0.071,1.53,-0.004776,-0.173508,0,0,0,0,0,41.57,313.598,1933719
-0.0657959,-0.0172119,1.034970.915527,0.244141,-1.34277,-0.042,0.021,1.54,-0.00482178,-0.173386,0,0,0,0,0,41.57,313.624,1933733
0.00354004,-0.00640869,0.974426-1.95312,0.427246,-2.50244,0.025,0.027,1.57,-0.00489807,-0.173233,0,0,0,0,0,41.57,313.638,1933748
-0.0285645,0.0661011,1.050420.427246,0.854492,-0.610352,-0.002,0.103,1.6,-0.00495911,-0.172989,0,0,0,0,0,41.57,313.659,1933763
0.0689697,0.0481567,1.104190.427246,-0.183105,-1.15967,0.096,0.084,1.65,-0.00515747,-0.172531,0,0,0,0,0,41.57,313.679,1933793
-0.048584,-0.0390015,1.000431.0376,0.854492,-1.89209,-0.026,-0.002,1.67,-0.00520325,-0.172256,0,0,0,0,0,41.57,313.699,1933808
0.0206299,-0.0812988,1.044920.610352,0.976562,-1.15967,0.043,-0.045,1.69,-0.00523376,-0.171997,0,0,0,0,0,41.57,313.718,1933823
0.0288696,0.10321,0.9345090.244141,-0.915527,0.610352,0.054,0.134,1.71,-0.0052948,-0.171341,0,0,0,0,0,41.57,313.738,1933853
-0.111328,-0.0963135,1.01770.671387,0.12207,-1.40381,-0.089,-0.057,1.72,-0.00534058,-0.170898,0,0,0,0,0,41.57,313.759,1933868
-0.144165,0.377258,0.6560063.05176,-2.92969,-0.915527,-0.116,0.404,1.71,-0.00544739,-0.16983,0,0,0,0,0,41.57,313.779,1933899
-0.171448,-0.47998,1.174684.39453,0.793457,0.488281,-0.157,-0.434,1.67,-0.00569153,-0.169189,0,0,0,0,0,41.57,313.798,1933913
-0.179138,-0.200684,1.314211.89209,4.21143,1.40381,-0.152,-0.151,1.68,-0.00613403,-0.168945,0,0,0,0,0,41.57,313.819,1933928
0.0181274,0.0792236,0.9359740,0.12207,-0.183105,0.043,0.11,1.66,-0.00720215,-0.168579,0,0,0,0,0,41.57,313.842,1933959
-0.0671387,0.00866699,0.968201-0.671387,1.46484,-0.671387,-0.043,0.043,1.67,-0.00770569,-0.168243,0,0,0,0,0,41.57,313.86,1933973
0.00714111,0.0330811,1.04901-0.12207,-0.244141,-0.671387,0.033,0.068,1.68,-0.00822449,-0.167847,0,0,0,0,0,41.57,313.879,1933989
-0.111023,-0.0505371,0.8925171.28174,1.34277,-0.732422,-0.091,-0.017,1.68,-0.00878906,-0.167404,0,0,0,0,0,41.57,313.898,1934003
-0.0337524,-0.0626221,1.235350.488281,-0.0610352,-1.40381,-0.005,-0.021,1.73,-0.00996399,-0.166382,0,0,0,0,0,41.57,313.921,1934033
-0.0188599,-0.169556,1.02496-0.549316,-0.366211,-1.28174,0,-0.135,1.77,-0.0110626,-0.165466,0,0,0,0,0,41.57,313.947,1934064
-0.0155029,-0.00390625,0.985535-0.610352,-0.366211,0.12207,0.008,0.028,1.77,-0.0116119,-0.165146,0,0,0,0,0,41.57,313.963,1934079
-0.0391235,-0.0043335,1.05084-0.671387,-0.488281,-0.671387,-0.013,0.03,1.78,-0.0116119,-0.164764,0,0,0,0,0,41.57,313.978,1934094
-0.0546265,-0.0321045,0.9650271.40381,0.488281,-0.549316,-0.032,0,1.79,-0.0116425,-0.164383,0,0,0,0,0,41.57,313.998,1934109
0.0109863,-0.108093,1.00720.732422,-0.976562,0.549316,0.032,-0.076,1.79,-0.011673,-0.164032,0,0,0,0,0,41.57,314.018,1934124
0.0481567,0.0982056,1.010251.2207,-2.19727,1.15967,0.075,0.128,1.78,-0.0117645,-0.16333,0,0,0,0,0,41.57,314.038,1934154
-0.0748291,-0.156921,1.02197-0.12207,-0.549316,-0.0610352,-0.055,-0.123,1.77,-0.011795,-0.162933,0,0,0,0,0,41.57,314.058,1934169
0.0149536,0.0197754,1.023250,0.488281,-0.12207,0.039,0.05,1.77,-0.0118256,-0.162582,0,0,0,0,0,41.57,314.078,1934184
0.0356445,0.0176392,1.0354-0.0610352,-0.488281,-0.732422,0.059,0.048,1.79,-0.0119019,-0.161926,0,0,0,0,0,41.57,314.098,1934214
-0.026062,-0.0447998,1.07092-0.12207,-1.40381,-1.52588,-0.003,-0.011,1.82,-0.0119019,-0.161575,0,0,0,0,0,41.57,314.118,1934229
-0.0206299,-0.0155029,1.097051.15967,-0.488281,-1.64795,0.003,0.018,1.83,-0.0119019,-0.16124,0,0,0,0,0,41.57,314.138,1934244
-0.0131836,-0.0129395,0.94574-0.610352,-0.915527,-1.40381,0.007,0.016,1.88,-0.0119476,-0.160416,0,0,0,0,0,41.57,314.16,1934274
0.0379028,-0.0249023,1.08649-0.915527,-0.671387,-1.46484,0.061,0.006,1.91,-0.0119324,-0.159973,0,0,0,0,0,41.57,314.179,1934289
-0.0876465,0.0386963,0.973572-1.0376,-0.12207,-1.34277,-0.064,0.07,1.92,-0.0119171,-0.15947,0,0,0,0,0,41.57,314.199,1934304
-0.0253906,-0.0202637,1.00555-2.19727,-0.915527,-2.44141,-0.003,0.011,1.98,-0.0119019,-0.158096,0,0,0,0,0,41.57,314.219,1934334
0.0342407,-0.0373535,1.006041.09863,-0.610352,0.488281,0.054,-0.007,1.98,-0.0118561,-0.158096,0,0,0,0,0,41.57,314.238,1934349
-0.0148315,-0.0985718,1.039980.12207,-0.915527,-0.793457,0.004,-0.066,1.98,-0.0117493,-0.158142,0,0,0,0,0,41.57,314.258,1934364
0.0509033,-0.0132446,1.059330.12207,-1.2207,-0.854492,0.072,0.016,2,-0.0114594,-0.158493,0,0,0,0,0,41.57,314.278,1934394
-0.0159302,0.0556641,0.950989-0.0610352,-1.09863,-1.58691,0.005,0.084,2.02,-0.0112305,-0.158615,0,0,0,0,0,41.57,314.298,1934409
-0.0111694,-0.171936,1.05029-3.35693,1.34277,-1.40381,0.005,-0.139,2.04,-0.0110016,-0.158783,0,0,0,0,0,41.57,314.318,1934424
0.0692749,0.0935669,0.9708250,-0.549316,-1.46484,0.093,0.121,2.11,-0.0105438,-0.159302,0,0,0,0,0,41.57,314.339,1934454
-0.0742188,-0.214355,1.04749-0.915527,2.92969,-2.80762,-0.059,-0.179,2.14,-0.0102844,-0.159592,0,0,0,0,0,41.57,314.358,1934469
-0.0272217,0.0291748,1.00970,2.31934,-0.732422,-0.003,0.061,2.16,-0.0100708,-0.159943,0,0,0,0,0,41.57,314.378,1934484
-0.00311279,0.0894775,1.040892.44141,0.427246,1.0376,0.023,0.121,2.17,-0.00976562,-0.160675,0,0,0,0,0,41.57,314.398,1934514
-0.0579224,-0.0966187,1.05908-1.83105,0.854492,-0.793457,-0.037,-0.061,2.17,-0.00964355,-0.160995,0,0,0,0,0,41.57,314.418,1934529
0.0330811,0.0777588,1.0163-1.64795,-0.488281,0.915527,0.059,0.108,2.16,-0.00950623,-0.161285,0,0,0,0,0,41.57,314.438,1934544
0.0492554,0.0161743,0.925781-1.15967,-2.13623,1.0376,0.07,0.043,2.15,-0.00920105,-0.161392,0,0,0,0,0,41.57,314.458,1934574
0.0333862,-0.113037,1.05640.488281,-0.0610352,0.366211,0.053,-0.081,2.14,-0.00894165,-0.161407,0,0,0,0,0,41.57,314.478,1934589
-0.0514526,0.0824585,0.9436041.09863,-0.12207,-0.427246,-0.027,0.113,2.14,-0.00868225,-0.161392,0,0,0,0,0,41.57,314.498,1934604
-0.0326538,0.0425415,1.024110,-0.488281,-1.15967,-0.008,0.075,2.16,-0.00794983,-0.16098,0,0,0,0,0,41.57,314.518,1934634
-0.0147705,0.0402222,0.9650880.732422,1.15967,-0.366211,0.008,0.07,2.17,-0.0075531,-0.160614,0,0,0,0,0,41.57,314.542,1934649
-0.0065918,0.0267944,0.898254-1.89209,1.52588,-1.46484,0.014,0.054,2.18,-0.0075531,-0.160156,0,0,0,0,0,41.57,314.558,1934664
-0.0233765,-0.0272217,0.994568-1.52588,0.244141,-1.28174,-0.001,0.003,2.22,-0.00747681,-0.159088,0,0,0,0,0,41.57,314.585,1934694
-0.0265503,0.000976562,0.9779660,-0.244141,-1.09863,-0.004,0.031,2.23,-0.00743103,-0.158524,0,0,0,0,0,41.57,314.598,1934709
-0.0319214,-0.198853,1.03351-0.244141,0.732422,-0.244141,-0.015,-0.166,2.25,-0.00743103,-0.158035,0,0,0,0,0,41.57,314.618,1934724
0.0232544,-0.0105591,0.965637-0.915527,0.488281,-1.09863,0.045,0.017,2.26,-0.00758362,-0.157104,0,0,0,0,0,41.57,314.638,1934754
-0.0549927,-0.0317993,0.990417-0.244141,0.488281,-0.976562,-0.033,0,2.27,-0.00765991,-0.156586,0,0,0,0,0,41.57,314.658,1934769
-0.0971069,-0.0717773,1.046020.0610352,0.976562,-0.0610352,-0.075,-0.036,2.25,-0.00769043,-0.155441,0,0,0,0,0,41.57,314.679,1934799
0.0183716,0.0198975,0.965759-0.671387,-1.58691,2.31934,0.041,0.048,2.22,-0.00772095,-0.154846,0,0,0,0,0,41.57,314.699,1934814
-0.0782471,-0.148315,1.01483-1.28174,0.305176,0.488281,-0.06,-0.114,2.21,-0.00778198,-0.154297,0,0,0,0,0,41.57,314.718,1934829
-0.0968628,-0.085144,1.0462-0.549316,0.244141,1.2207,-0.076,-0.05,2.19,-0.00791931,-0.15387,0,0,0,0,0,41.57,314.738,1934844
-0.0130005,-0.00518799,1.050841.58691,-1.34277,-0.488281,0.01,0.026,2.17,-0.00805664,-0.15271,0,0,0,0,0,41.57,314.759,1934874
-0.00616455,-0.104431,1.083250.732422,-0.488281,-0.793457,0.014,-0.071,2.18,-0.0080719,-0.1521,0,0,0,0,0,41.57,314.781,1934889
-0.0690308,-0.0579224,0.994812-0.976562,-1.83105,-1.95312,-0.049,-0.025,2.2,-0.00810242,-0.151566,0,0,0,0,0,41.57,314.798,1934904
-0.140198,-0.0852661,1.093930.0610352,2.38037,-1.89209,-0.119,-0.046,2.25,-0.00819397,-0.150528,0,0,0,0,0,41.57,314.819,1934934
0.00219727,0.0824585,0.974548-0.915527,0.671387,-1.34277,0.027,0.111,2.28,-0.0083313,-0.149979,0,0,0,0,0,41.57,314.838,1934949
-0.0588379,-0.038147,0.956543-1.70898,0,-3.2959,-0.039,-0.006,2.32,-0.00846863,-0.149353,0,0,0,0,0,41.57,314.86,1934964
-0.0219116,-0.116943,0.994507-1.83105,0.610352,-2.38037,-0.004,-0.084,2.4,-0.0087738,-0.149414,0,0,0,0,0,41.57,314.879,1934994
-0.0704346,-0.00653076,0.9562990.366211,-0.732422,-0.915527,-0.049,0.027,2.42,-0.00897217,-0.149521,0,0,0,0,0,41.56,314.9,1935009
-0.00848389,-0.0947876,1.01245-0.0610352,0.915527,-1.28174,0.01,-0.061,2.44,-0.00918579,-0.149643,0,0,0,0,0,41.56,314.919,1935024
0.0125732,-0.0010376,1.0177-0.12207,-0.488281,-0.671387,0.035,0.031,2.46,-0.009552,-0.149689,0,0,0,0,0,41.56,314.939,1935054
-0.0863037,0.00915527,0.966064-0.0610352,1.2207,-0.305176,-0.063,0.044,2.47,-0.00975037,-0.149612,0,0,0,0,0,41.56,314.959,1935069
0.0259399,-0.0236206,0.997986-0.488281,0.183105,-0.854492,0.047,0.007,2.47,-0.00994873,-0.149506,0,0,0,0,0,41.56,314.979,1935084
0.00750732,-0.0969238,0.975281-1.40381,0.305176,-1.95312,0.025,-0.064,2.53,-0.0102997,-0.149536,0,0,0,0,0,41.56,314.998,1935114
-0.0166626,-0.0880127,1.02081-0.427246,1.77002,-2.31934,0.003,-0.053,2.57,-0.0104523,-0.149643,0,0,0,0,0,41.56,315.018,1935129
-0.0375366,-0.0354004,1.079960.976562,1.15967,-1.77002,-0.014,0.001,2.59,-0.0106201,-0.149796,0,0,0,0,0,41.56,315.039,1935144
-0.114929,0.0509644,1.00472.0752,1.40381,-1.09863,-0.088,0.088,2.61,-0.0108643,-0.150146,0,0,0,0,0,41.56,315.059,1935174
0.0452881,-0.11084,1.10541-0.183105,-0.305176,-0.183105,0.067,-0.076,2.62,-0.0110016,-0.150314,0,0,0,0,0,41.56,315.079,1935189
-0.185791,-0.243958,1.16541-1.2207,3.54004,-0.427246,-0.168,-0.197,2.62,-0.0112,-0.150665,0,0,0,0,0,41.56,315.099,1935204
-0.0495605,-0.0894165,1.033510.732422,0.183105,0.732422,-0.027,-0.053,2.61,-0.0120087,-0.151718,0,0,0,0,0,41.56,315.118,1935234
-0.0949707,0.000244141,0.9475710.549316,0.854492,0.427246,-0.071,0.035,2.6,-0.0125122,-0.152283,0,0,0,0,0,41.56,315.138,1935249
0.0545654,-0.0353394,0.9367680.610352,-1.15967,0.0610352,0.076,-0.007,2.6,-0.0130157,-0.152832,0,0,0,0,0,41.56,315.159,1935264
0.0328369,0.0586548,1.00611.2207,-0.244141,1.15967,0.061,0.089,2.58,-0.0139771,-0.153519,0,0,0,0,0,41.56,315.179,1935294
-0.0130005,-0.0668335,0.9190670.183105,0.732422,-0.12207,0.007,-0.037,2.58,-0.0144043,-0.153748,0,0,0,0,0,41.56,315.199,1935309
0.00488281,-0.0461426,1.111082.01416,0.427246,-0.244141,0.03,-0.011,2.58,-0.0148163,-0.154007,0,0,0,0,0,41.56,315.218,1935324
0.00402832,6.10352e-05,1.072630,1.09863,-0.610352,0.031,0.033,2.62,-0.0157166,-0.154907,0,0,0,0,0,41.56,315.239,1935354
-0.017395,-0.045105,0.9826051.34277,1.28174,-0.732422,0.006,-0.013,2.64,-0.0161438,-0.15538,0,0,0,0,0,41.56,315.261,1935369
-0.059021,-0.126587,1.10510.305176,2.13623,-0.976562,-0.035,-0.089,2.65,-0.0166016,-0.155945,0,0,0,0,0,41.56,315.278,1935384
-0.0220947,0.024231,0.9335330.366211,-0.427246,-1.2207,0.004,0.053,2.71,-0.0175476,-0.157333,0,0,0,0,0,41.56,315.298,1935415
-0.0490723,-0.0477295,1.02491.40381,0.793457,0.488281,-0.023,-0.013,2.71,-0.0180359,-0.158005,0,0,0,0,0,41.56,315.318,1935430
-0.0602417,0.0891113,1.015442.19727,0.488281,-0.427246,-0.028,0.122,2.71,-0.0185547,-0.158615,0,0,0,0,0,41.56,315.339,1935445
-0.0261841,-0.0273438,1.019780,0.244141,0.549316,0,0.004,2.69,-0.0190735,-0.159515,0,0,0,0,0,41.56,315.36,1935475
-0.0994263,0.0526123,0.9269410,-1.09863,0.732422,-0.071,0.084,2.68,-0.0191193,-0.159882,0,0,0,0,0,41.56,315.378,1935490
0.150391,0.0792236,1.10913-0.244141,-2.99072,0.12207,0.184,0.104,2.67,-0.019104,-0.160126,0,0,0,0,0,41.56,315.398,1935505
-0.0512085,-0.31665,1.17346-0.976562,0.915527,0.305176,-0.034,-0.28,2.67,-0.0188904,-0.160599,0,0,0,0,0,41.56,315.418,1935535
0.00579834,-0.015564,1.08142-1.09863,-1.0376,-1.52588,0.033,0.016,2.7,-0.0189209,-0.161819,0,0,0,0,0,41.56,315.457,1935565
-0.0394897,-0.0664062,1.03351-1.2207,0,-1.70898,-0.014,-0.033,2.72,-0.0189362,-0.16246,0,0,0,0,0,41.56,315.469,1935580
-0.0888672,-0.129211,0.991821-0.488281,1.58691,-2.92969,-0.068,-0.094,2.79,-0.0189972,-0.16362,0,0,0,0,0,41.56,315.498,1935610
0.00396729,-0.0474854,0.974121-1.46484,-0.244141,-3.17383,0.027,-0.018,2.84,-0.0190582,-0.164261,0,0,0,0,0,41.56,315.521,1935625
-0.0446777,-0.122864,1.019290.732422,1.58691,-1.95312,-0.023,-0.089,2.92,-0.0191345,-0.165741,0,0,0,0,0,41.56,315.538,1935655
-0.00671387,0.09375,0.9973140,0.854492,-1.64795,0.025,0.124,2.94,-0.0191803,-0.166519,0,0,0,0,0,41.56,315.558,1935670
-0.111938,-0.0852661,1.02521-1.15967,2.19727,-0.427246,-0.088,-0.047,2.97,-0.0193024,-0.167923,0,0,0,0,0,41.56,315.591,1935700
-0.0112305,-0.106018,1.06781-0.427246,1.40381,-0.427246,0.013,-0.071,2.97,-0.019455,-0.168716,0,0,0,0,0,41.56,315.6,1935715
-0.0349121,0.0570679,0.9838870.183105,0.488281,-1.58691,-0.004,0.09,2.98,-0.0196075,-0.169495,0,0,0,0,0,41.56,315.619,1935730
0.0142212,-0.114746,1.0257-0.12207,0.366211,-0.915527,0.037,-0.082,3,-0.0197296,-0.170273,0,0,0,0,0,41.56,315.64,1935745
-0.00378418,-0.10321,1.037840.732422,0.854492,-0.854492,0.02,-0.07,3.06,-0.0199585,-0.171814,0,0,0,0,0,41.56,315.661,1935775
-0.0998535,-0.19043,1.031370.976562,2.86865,-1.77002,-0.079,-0.152,3.08,-0.0201263,-0.172729,0,0,0,0,0,41.56,315.685,1935790
-0.0528564,-0.0978394,1.027650.305176,1.2207,-0.976562,-0.027,-0.062,3.11,-0.0204773,-0.17453,0,0,0,0,0,41.56,315.703,1935820
-0.00970459,-0.125,1.12793-1.2207,0.854492,-1.0376,0.017,-0.088,3.13,-0.0206451,-0.175522,0,0,0,0,0,41.56,315.719,1935835
-0.0419922,-0.0861206,0.954895-1.09863,-0.244141,0.12207,-0.017,-0.053,3.14,-0.0206451,-0.17659,0,0,0,0,0,41.56,315.738,1935850
-0.0256348,-0.0297852,0.97290.0610352,0.244141,0.793457,0.002,0.002,3.13,-0.0206451,-0.177704,0,0,0,0,0,41.56,315.758,1935865
0.0552368,-0.122131,0.953918-0.793457,0,-0.915527,0.077,-0.095,3.14,-0.0206604,-0.179947,0,0,0,0,0,41.56,315.778,1935895
-0.0745239,0.20282,0.9671021.34277,-0.12207,0.488281,-0.033,0.236,3.15,-0.0206299,-0.180984,0,0,0,0,0,41.56,315.799,1935910
0.00683594,-0.013855,1.048280.244141,-0.488281,0.488281,0.038,0.018,3.14,-0.0205994,-0.18187,0,0,0,0,0,41.56,315.819,1935925
-0.0401611,0.0285645,0.9555660.244141,-0.12207,0,-0.009,0.06,3.14,-0.0205536,-0.183456,0,0,0,0,0,41.56,315.838,1935955
0.03479,0.0687866,1.052-0.671387,0.0610352,-0.732422,0.071,0.099,3.14,-0.0205078,-0.184113,0,0,0,0,0,41.56,315.859,1935970
-0.0849609,-0.0834351,1.021551.2207,2.68555,-0.671387,-0.057,-0.046,3.15,-0.020462,-0.184723,0,0,0,0,0,41.56,315.878,1935985
-0.0693359,-0.0358887,1.129212.44141,2.13623,-0.305176,-0.035,0.002,3.15,-0.0203552,-0.185379,0,0,0,0,0,41.56,315.901,1936015
-0.00897217,-0.108093,1.014891.46484,1.64795,-1.34277,0.017,-0.077,3.17,-0.0203094,-0.185425,0,0,0,0,0,41.57,315.918,1936030
-0.0358276,-0.0464478,1.01526-0.0610352,-0.671387,0,-0.005,-0.014,3.18,-0.0201263,-0.18544,0,0,0,0,0,41.57,315.944,1936062
-0.0889282,-0.142944,1.039980.244141,0.915527,-0.12207,-0.062,-0.108,3.19,-0.0200806,-0.185501,0,0,0,0,0,41.57,315.959,1936075
-0.0707397,0.0325317,1.021610,-0.488281,0.183105,-0.035,0.066,3.19,-0.0201111,-0.185593,0,0,0,0,0,41.57,315.979,1936091
-0.0127563,-0.0491333,1.02295-0.366211,-1.34277,0.427246,0.017,-0.019,3.18,-0.0201416,-0.185654,0,0,0,0,0,41.57,315.998,1936105
-0.00640869,-0.0645752,1.064941.09863,-0.732422,1.40381,0.024,-0.034,3.15,-0.0202942,-0.18576,0,0,0,0,0,41.57,316.024,1936135
-0.00323486,-0.0172729,1.05469-0.427246,-1.64795,0.793457,0.028,0.012,3.14,-0.02034,-0.185837,0,0,0,0,0,41.57,316.043,1936150
-0.0588989,-0.114319,1.059510.427246,-0.732422,-0.427246,-0.032,-0.081,3.14,-0.020401,-0.185959,0,0,0,0,0,41.57,316.058,1936165
-0.0504761,0.114685,0.9779660.183105,-0.366211,-0.976562,-0.014,0.144,3.17,-0.0205231,-0.186356,0,0,0,0,0,41.57,316.079,1936195
-0.0100098,0.0136719,1.029240.0610352,0,-1.40381,0.021,0.043,3.19,-0.0205688,-0.186401,0,0,0,0,0,41.57,316.099,1936210
-0.0349121,-0.0592041,1.00653-1.2207,1.70898,-1.89209,-0.007,-0.028,3.21,-0.0205994,-0.186432,0,0,0,0,0,41.57,316.119,1936225
0.0211792,0,1.044130.12207,-0.305176,-2.2583,0.052,0.028,3.29,-0.0207672,-0.186707,0,0,0,0,0,41.57,316.138,1936255
-0.0341187,-0.0875854,1.097110.732422,0.305176,-2.13623,-0.006,-0.054,3.32,-0.0208282,-0.18689,0,0,0,0,0,41.57,316.159,1936270
-0.0366211,0.0377808,1.012330.12207,-0.793457,-0.976562,-0.003,0.068,3.36,-0.0208282,-0.187103,0,0,0,0,0,41.57,316.189,1936301
-0.0427856,-0.0396118,1.002690.915527,0.854492,-0.915527,-0.015,-0.009,3.38,-0.0208282,-0.187119,0,0,0,0,0,41.57,316.209,1936315
-0.109741,0.0168457,1.001953.60107,1.15967,-0.732422,-0.078,0.05,3.4,-0.0208893,-0.187119,0,0,0,0,0,41.57,316.219,1936330
0.00604248,-0.0461426,1.070433.54004,0.12207,-1.64795,0.035,-0.019,3.42,-0.0209808,-0.187088,0,0,0,0,0,41.57,316.239,1936345
-0.0184937,-0.102295,0.8955080.366211,0.244141,-1.83105,0.001,-0.079,3.46,-0.0212097,-0.187119,0,0,0,0,0,41.57,316.259,1936375
-0.0297852,0.03479,1.02649-0.12207,2.19727,-2.80762,0.003,0.06,3.5,-0.0213318,-0.187164,0,0,0,0,0,41.57,316.279,1936390
0.0136108,-0.123291,1.08826-2.38037,0.793457,-2.44141,0.038,-0.098,3.54,-0.0214386,-0.187256,0,0,0,0,0,41.57,316.299,1936405
-0.0452881,-0.17865,1.01007-3.11279,0.610352,-2.99072,-0.025,-0.15,3.6,-0.0215302,-0.187256,0,0,0,0,0,41.57,316.319,1936435
-0.03479,-0.0585938,1.05701-2.38037,1.15967,1.34277,-0.005,-0.03,3.61,-0.0216064,-0.187363,0,0,0,0,0,41.57,316.338,1936450
-0.132019,-0.129333,1.037410.12207,1.70898,-0.488281,-0.107,-0.095,3.6,-0.021759,-0.187561,0,0,0,0,0,41.57,316.36,1936465
-0.117249,-0.0654907,1.006532.56348,0.366211,0.244141,-0.089,-0.033,3.6,-0.022171,-0.188217,0,0,0,0,0,41.57,316.378,1936495
0.0158081,0.0637207,0.9857184.63867,-1.09863,1.28174,0.051,0.085,3.59,-0.0224304,-0.188538,0,0,0,0,0,41.57,316.399,1936510
0.0183716,-0.104187,1.051574.57764,-1.15967,0.488281,0.044,-0.083,3.58,-0.0226135,-0.188858,0,0,0,0,0,41.57,316.419,1936525
0.0444336,-0.083374,0.9705811.2207,-0.854492,-0.427246,0.068,-0.067,3.58,-0.0229492,-0.189484,0,0,0,0,0,41.61,316.438,1936555
-0.0855103,0,1.07672-0.915527,0.366211,-0.976562,-0.052,0.026,3.59,-0.0230865,-0.189819,0,0,0,0,0,41.61,316.459,1936570
0.0198975,-0.00268555,0.976013-1.89209,-0.671387,-0.244141,0.049,0.014,3.59,-0.0232391,-0.190125,0,0,0,0,0,41.61,316.477,1936585
-0.0127563,0.0203247,0.906311-3.05176,0.0610352,-0.366211,0.015,0.038,3.62,-0.023468,-0.190628,0,0,0,0,0,41.61,316.505,1936615
-0.106995,-0.17041,1.14215-1.46484,1.83105,-0.976562,-0.083,-0.14,3.63,-0.0236359,-0.190918,0,0,0,0,0,41.61,316.518,1936630
-0.072876,-0.114441,1.02551-1.0376,-0.427246,0.488281,-0.048,-0.088,3.63,-0.0240936,-0.191772,0,0,0,0,0,41.61,316.543,1936661
-0.0308838,-0.0346069,0.9824220.915527,1.0376,1.64795,-0.002,-0.012,3.62,-0.0243683,-0.192291,0,0,0,0,0,41.61,316.559,1936675
-0.0373535,0.0132446,1.031434.08936,0.12207,0.427246,-0.004,0.034,3.6,-0.0246582,-0.19281,0,0,0,0,0,41.61,316.578,1936690
-0.0893555,-0.0498047,1.060243.54004,-0.427246,0.732422,-0.06,-0.026,3.6,-0.0249939,-0.193314,0,0,0,0,0,41.61,316.597,1936705
-0.0647583,-0.0645752,1.068050.12207,-0.427246,-0.915527,-0.036,-0.043,3.6,-0.0256805,-0.194397,0,0,0,0,0,41.61,316.619,1936736
-0.0501099,0.0825195,1.01801-1.64795,-0.244141,0.183105,-0.014,0.102,3.6,-0.026062,-0.194901,0,0,0,0,0,41.61,316.64,1936750
0.0285034,0.0057373,0.957947-1.77002,-0.427246,-0.427246,0.057,0.019,3.6,-0.0263977,-0.195328,0,0,0,0,0,41.61,316.658,1936766
0.0195923,-0.0219727,0.957458-2.74658,-1.28174,0.732422,0.046,-0.007,3.62,-0.0269775,-0.195938,0,0,0,0,0,41.61,316.677,1936796
-0.0662842,-0.0119019,1.031490.793457,0.12207,-0.305176,-0.036,0.009,3.62,-0.0272369,-0.196198,0,0,0,0,0,41.61,316.698,1936811
-0.00933838,-0.0707397,0.989685-1.58691,-1.28174,0.854492,0.015,-0.053,3.61,-0.0275116,-0.196487,0,0,0,0,0,41.61,316.719,1936826
-0.0789185,-0.120056,1.084722.38037,-0.549316,0.610352,-0.054,-0.097,3.6,-0.0275574,-0.19722,0,0,0,0,0,41.61,316.738,1936856
-0.0316772,-0.0418701,0.9648440.915527,-0.610352,0.854492,-0.006,-0.024,3.59,-0.0276337,-0.197708,0,0,0,0,0,41.61,316.758,1936871
0.0157471,0.0216675,0.9825443.78418,-0.427246,0.244141,0.045,0.034,3.58,-0.0276794,-0.198181,0,0,0,0,0,41.61,316.778,1936886
-0.0429077,-0.0653076,1.024961.64795,-0.183105,0.0610352,-0.018,-0.049,3.59,-0.0278168,-0.199112,0,0,0,0,0,41.61,316.798,1936916
0.0253906,0.0908813,0.9295040.549316,-0.244141,-2.44141,0.056,0.1,3.62,-0.0278625,-0.199539,0,0,0,0,0,41.61,316.818,1936931
-0.0477905,-0.00219727,1.04358-0.793457,-0.488281,-2.19727,-0.019,0.013,3.65,-0.0278931,-0.199905,0,0,0,0,0,41.61,316.838,1936946
0.0328979,0.013855,1.02234-1.34277,-0.793457,-1.70898,0.062,0.023,3.69,-0.0280151,-0.2005,0,0,0,0,0,41.61,316.858,1936976
-0.0510254,-0.026062,0.956482-2.62451,-0.854492,-1.52588,-0.026,-0.01,3.72,-0.0280457,-0.20076,0,0,0,0,0,41.61,316.878,1936991
-0.0343018,0.114258,1.00061-2.13623,-1.64795,1.15967,0,0.129,3.72,-0.0280914,-0.200943,0,0,0,0,0,41.61,316.899,1937006
-0.0186157,-0.0862427,0.971863-0.671387,-1.09863,-0.488281,0.001,-0.071,3.71,-0.0281372,-0.201096,0,0,0,0,0,41.61,316.919,1937036
0.0308838,-0.00897217,1.02686-0.793457,-1.52588,0.305176,0.057,0.003,3.71,-0.0280914,-0.201248,0,0,0,0,0,41.57,316.938,1937051
-0.00158691,0.0186768,0.999817-0.549316,-0.915527,0.12207,0.026,0.033,3.7,-0.0279999,-0.201355,0,0,0,0,0,41.57,316.959,1937066
0.0165405,-0.0231934,1.0509-0.610352,-0.244141,-1.09863,0.042,-0.008,3.73,-0.027832,-0.201752,0,0,0,0,0,41.57,316.98,1937096
0.0127563,0.00317383,0.99231-1.34277,-0.183105,-0.854492,0.038,0.017,3.75,-0.02771,-0.201752,0,0,0,0,0,41.57,317.002,1937111
-0.0717163,-0.0509033,1.028021.09863,0.244141,-0.976562,-0.047,-0.03,3.79,-0.0274048,-0.20192,0,0,0,0,0,41.57,317.023,1937141
0.00836182,0.0709229,0.9367070.244141,-0.854492,-0.183105,0.037,0.084,3.8,-0.0272827,-0.202011,0,0,0,0,0,41.57,317.039,1937156
-0.0161133,0.0492554,1.011171.46484,-0.915527,-0.12207,0.013,0.066,3.8,-0.0271149,-0.201996,0,0,0,0,0,41.57,317.058,1937171
-0.107117,-0.148254,1.058231.2207,0.427246,-0.366211,-0.088,-0.124,3.8,-0.0269928,-0.202026,0,0,0,0,0,41.57,317.079,1937186
0.0240479,0.185364,0.9390260,-1.15967,-0.915527,0.06,0.198,3.8,-0.0267487,-0.202133,0,0,0,0,0,41.57,317.098,1937216
-0.0117798,-0.0302124,0.997070.610352,-1.46484,-1.0376,0.012,-0.013,3.82,-0.026535,-0.202011,0,0,0,0,0,41.57,317.12,1937231
-0.0281372,-0.0618286,1.07568-0.0610352,-0.12207,-1.2207,-0.004,-0.043,3.83,-0.0263214,-0.201904,0,0,0,0,0,41.57,317.138,1937246
0.0344238,0.00634766,1.0050.366211,0.183105,-1.70898,0.06,0.019,3.88,-0.0258026,-0.201767,0,0,0,0,0,41.57,317.158,1937276
-0.0643921,-0.0622559,1.0509-0.976562,0.793457,-0.854492,-0.041,-0.041,3.89,-0.0254974,-0.201691,0,0,0,0,0,41.57,317.179,1937291
0.000488281,0.0205078,0.954529-1.2207,0.610352,-0.488281,0.026,0.035,3.9,-0.0252075,-0.20163,0,0,0,0,0,41.57,317.198,1937306
-0.0605469,-0.0161743,1.092590.488281,0.854492,-0.549316,-0.032,0.005,3.93,-0.0245819,-0.201523,0,0,0,0,0,41.57,317.218,1937336
-0.0431519,-0.0863647,1.03442-0.427246,0.854492,-0.366211,-0.021,-0.065,3.93,-0.0243073,-0.201523,0,0,0,0,0,41.57,317.239,1937351
-0.0429688,-0.0458984,0.975708-0.0610352,0.366211,0.244141,-0.02,-0.026,3.93,-0.0240631,-0.201584,0,0,0,0,0,41.57,317.258,1937366
-0.0292358,-0.0625,1.057980.549316,0.305176,1.09863,-0.004,-0.043,3.92,-0.0236053,-0.201614,0,0,0,0,0,41.57,317.278,1937396
-0.0401611,-0.00494385,0.988037-0.610352,-0.427246,0.671387,-0.013,0.013,3.91,-0.0236053,-0.20163,0,0,0,0,0,41.57,317.298,1937411
-0.013855,-0.107178,1.04559-0.0610352,-0.12207,-1.15967,0.006,-0.088,3.92,-0.0236053,-0.201706,0,0,0,0,0,41.57,317.318,1937426
-0.0414429,-0.057312,0.980957-1.52588,0,0.915527,-0.019,-0.037,3.91,-0.0237122,-0.202347,0,0,0,0,0,41.57,317.342,1937456
0.0106812,0.149231,0.9667360.976562,-0.427246,0.0610352,0.046,0.165,3.91,-0.0237579,-0.202652,0,0,0,0,0,41.57,317.358,1937471
-0.0493164,-0.0136719,0.9984130.305176,0.732422,-0.854492,-0.023,0.007,3.92,-0.0237885,-0.202835,0,0,0,0,0,41.57,317.379,1937486
-0.034668,-0.00408936,0.9935910.915527,0.671387,-0.610352,-0.008,0.015,3.92,-0.0238495,-0.20314,0,0,0,0,0,41.57,317.398,1937516
-0.0682373,-0.071106,1.021060.610352,1.64795,-1.40381,-0.045,-0.048,3.94,-0.0238953,-0.203293,0,0,0,0,0,41.57,317.419,1937531
0.0337524,-0.0214844,1.03864-1.0376,0.366211,0.549316,0.06,-0.005,3.93,-0.023941,-0.203476,0,0,0,0,0,41.57,317.438,1937546
-0.0852661,0.0750732,1.002810.549316,0.549316,-0.549316,-0.052,0.098,3.94,-0.0240631,-0.203613,0,0,0,0,0,41.57,317.46,1937576
0.00756836,-0.134155,1.04559-0.427246,0.366211,0.488281,0.027,-0.115,3.94,-0.0241699,-0.203644,0,0,0,0,0,41.57,317.478,1937591
-0.0170288,0.0088501,0.9932860.854492,0,-0.305176,0.011,0.027,3.94,-0.0242462,-0.20372,0,0,0,0,0,41.57,317.498,1937606
-0.000488281,-0.0162964,1.00189-1.64795,-1.34277,-0.183105,0.026,0.001,3.96,-0.0243683,-0.203766,0,0,0,0,0,41.57,317.518,1937636
0.0146484,-0.0467529,0.996155-0.488281,-0.12207,-0.12207,0.038,-0.029,3.95,-0.0243683,-0.203781,0,0,0,0,0,41.57,317.54,1937651
-0.0239868,-0.0211792,1.021790.366211,-0.427246,-0.732422,0.002,0,3.96,-0.024353,-0.203827,0,0,0,0,0,41.57,317.558,1937666
0.0159912,-0.0584106,0.9913330.12207,0.12207,-0.549316,0.039,-0.041,3.96,-0.0242157,-0.203705,0,0,0,0,0,41.57,317.578,1937696
-0.117004,-0.240295,1.072880.671387,2.44141,-0.793457,-0.103,-0.212,3.97,-0.0241547,-0.203781,0,0,0,0,0,41.57,317.598,1937711
0.0293579,-0.0320435,1.0683-0.0610352,0.183105,-0.0610352,0.056,-0.014,3.98,-0.0241394,-0.204025,0,0,0,0,0,41.57,317.618,1937726
-0.106812,-0.0847168,1.045960.427246,1.28174,-0.793457,-0.083,-0.057,4,-0.0239105,-0.20433,0,0,0,0,0,41.57,317.641,1937756
-0.0513306,0.0558472,1.02533-0.0610352,0.244141,0,-0.018,0.078,4.01,-0.0238647,-0.204453,0,0,0,0,0,41.57,317.657,1937771
-0.00799561,0.0253296,0.9638060.0610352,0.305176,0.610352,0.021,0.043,4,-0.023819,-0.204498,0,0,0,0,0,41.57,317.678,1937786
-0.0490723,-0.0684814,1.04633-0.854492,0.12207,1.15967,-0.023,-0.045,3.98,-0.0236816,-0.204544,0,0,0,0,0,41.57,317.698,1937816
0.0256348,-0.0716553,0.997192-0.793457,-0.305176,0.488281,0.049,-0.054,3.97,-0.0235901,-0.204651,0,0,0,0,0,41.57,317.718,1937831
-0.0344238,-0.0606689,0.980225-0.0610352,-0.183105,0.366211,-0.01,-0.039,3.96,-0.0234833,-0.204834,0,0,0,0,0,41.57,317.738,1937846
0.0283813,-0.0411987,1.010310.427246,0.488281,0.183105,0.054,-0.024,3.97,-0.0233917,-0.205307,0,0,0,0,0,41.57,317.758,1937876
-0.069458,-0.0253296,1.034730.549316,0.732422,-0.488281,-0.041,-0.001,3.98,-0.0232239,-0.205917,0,0,0,0,0,41.57,317.786,1937906
-0.069458,-0.0253296,1.034730.549316,0.732422,-0.488281,-0.041,-0.001,3.98,-0.0232239,-0.205917,0,0,0,0,0,41.57,317.798,1937906
0.00408936,0,0.964355-0.305176,0.427246,-0.427246,0.031,0.017,3.98,-0.0230408,-0.206604,0,0,0,0,0,41.57,317.822,1937936
-0.135803,0.00787354,1.000240.488281,0.427246,-0.0610352,-0.106,0.036,3.98,-0.0229645,-0.206924,0,0,0,0,0,41.57,317.84,1937951
-0.0135498,-0.0691528,1.03003-1.09863,0.183105,0.244141,0.011,-0.048,3.98,-0.0229645,-0.207245,0,0,0,0,0,41.57,317.861,1937966
-0.0579834,0.0531006,0.9637451.58691,-0.671387,-0.183105,-0.026,0.074,3.97,-0.022934,-0.207794,0,0,0,0,0,41.57,317.878,1937996
-0.00750732,0.0488281,0.9771120.427246,-1.28174,0.183105,0.024,0.067,3.97,-0.0229034,-0.207932,0,0,0,0,0,41.57,317.899,1938011
0.00982666,-0.0187988,1.012450.183105,-0.183105,-0.549316,0.037,0,3.97,-0.0228577,-0.208023,0,0,0,0,0,41.57,317.921,1938026
-0.013855,-0.0352173,1.05334-1.28174,-0.732422,-0.976562,0.014,-0.014,3.99,-0.0227814,-0.20816,0,0,0,0,0,41.57,317.938,1938056
0.00457764,0.00177002,0.984131-1.46484,0.732422,-1.34277,0.033,0.019,4.01,-0.0227509,-0.208237,0,0,0,0,0,41.59,317.958,1938071
0.0177002,0.00177002,0.9647830.183105,-0.671387,-1.70898,0.045,0.018,4.03,-0.0226593,-0.208237,0,0,0,0,0,41.59,317.979,1938086
-0.0265503,-0.0565186,1.01642-0.183105,0.976562,-0.793457,-0.001,-0.034,4.08,-0.0225372,-0.208252,0,0,0,0,0,41.59,317.998,1938117
-0.0396729,-0.0393066,0.9874880.427246,0.549316,-0.915527,-0.013,-0.017,4.1,-0.0224915,-0.208298,0,0,0,0,0,41.59,318.018,1938132
-0.0627441,0.0142212,0.9869380.305176,-0.915527,-0.305176,-0.032,0.038,4.1,-0.0224915,-0.208344,0,0,0,0,0,41.59,318.039,1938147
-0.00201416,0.015625,0.947754-0.12207,-1.2207,0.305176,0.026,0.034,4.09,-0.0223541,-0.208206,0,0,0,0,0,41.59,318.058,1938177
-0.0622559,-0.0649414,1.041140.976562,-1.34277,-0.183105,-0.036,-0.039,4.09,-0.0222626,-0.208115,0,0,0,0,0,41.59,318.078,1938192
0.036377,-0.0239868,1.01129-0.854492,-0.854492,-1.34277,0.063,-0.007,4.1,-0.0221558,-0.208038,0,0,0,0,0,41.59,318.098,1938207
-0.102722,-0.055603,1.050541.77002,1.0376,-2.01416,-0.076,-0.027,4.14,-0.0217133,-0.207886,0,0,0,0,0,41.59,318.119,1938237
0.0474243,0.136597,0.9627080.915527,0.854492,-0.12207,0.084,0.151,4.18,-0.0212708,-0.207947,0,0,0,0,0,41.59,318.148,1938267
0.0474243,0.136597,0.9627080.915527,0.854492,-0.12207,0.084,0.151,4.18,-0.0212708,-0.207947,0,0,0,0,0,41.59,318.16,1938267
-0.031311,-0.0824585,1.092042.86865,1.52588,-1.52588,-0.006,-0.061,4.21,-0.0207825,-0.207748,0,0,0,0,0,41.59,318.178,1938297
-0.0233765,0.0459595,1.035583.35693,0.915527,-0.610352,0.009,0.063,4.23,-0.0207825,-0.207657,0,0,0,0,0,41.59,318.199,1938312
-0.0424805,-0.0391235,0.9945680.976562,0.305176,-0.0610352,-0.016,-0.021,4.23,-0.0207825,-0.207535,0,0,0,0,0,41.59,318.218,1938327
-0.0770874,-0.0335693,1.05444-1.2207,-0.305176,-0.244141,-0.048,-0.012,4.26,-0.0208282,-0.207169,0,0,0,0,0,41.59,318.239,1938357
-0.0181274,0.0256958,1.04773-1.70898,-0.549316,0.488281,0.014,0.042,4.25,-0.0208893,-0.206955,0,0,0,0,0,41.59,318.258,1938372
-0.0146484,0.0322876,0.974854-1.83105,-0.183105,-0.915527,0.016,0.047,4.26,-0.0209351,-0.206665,0,0,0,0,0,41.59,318.279,1938387
-0.0577393,-0.137451,1.09387-3.23486,0.427246,-0.549316,-0.036,-0.115,4.3,-0.0209656,-0.206146,0,0,0,0,0,41.59,318.298,1938417
-0.0203247,0.000671387,1.02832-3.17383,0.793457,-1.89209,0.009,0.019,4.31,-0.0210114,-0.205994,0,0,0,0,0,41.59,318.318,1938432
0.00567627,-0.0254517,0.974243-0.915527,0.976562,-1.34277,0.031,-0.009,4.35,-0.0210419,-0.205826,0,0,0,0,0,41.59,318.339,1938447
-0.0495605,-0.0359497,1.005680.915527,1.2207,-0.976562,-0.023,-0.014,4.36,-0.0210419,-0.205826,0,0,0,0,0,41.59,318.359,1938477
-0.0275269,-0.0610352,1.01520.976562,0.976562,-0.671387,-0.002,-0.041,4.38,-0.0210724,-0.205872,0,0,0,0,0,41.59,318.378,1938492
0.00640869,-0.219055,1.1192-2.0752,1.52588,0.732422,0.022,-0.199,4.37,-0.0210876,-0.20607,0,0,0,0,0,41.59,318.398,1938507
0.0202026,-0.0514526,0.9465330.610352,0,-0.183105,0.044,-0.036,4.36,-0.0210571,-0.206497,0,0,0,0,0,41.59,318.418,1938537
-0.126709,-0.117004,1.085082.0752,2.74658,-1.95312,-0.102,-0.086,4.39,-0.0210571,-0.206757,0,0,0,0,0,41.59,318.44,1938552
-0.0308838,-0.115112,1.10657-1.15967,0.549316,0,-0.005,-0.092,4.39,-0.0211487,-0.207138,0,0,0,0,0,41.59,318.461,1938567
-0.0690918,-0.0419922,1.021671.28174,0.671387,-0.427246,-0.04,-0.017,4.42,-0.0211792,-0.208084,0,0,0,0,0,41.57,318.478,1938597
0.00189209,-0.0992432,1.06812-0.915527,-0.12207,0.0610352,0.026,-0.079,4.42,-0.0212402,-0.208649,0,0,0,0,0,41.57,318.498,1938612
-0.0349731,0.00439453,1.04559-0.915527,0.549316,0.427246,-0.002,0.026,4.42,-0.0212708,-0.209229,0,0,0,0,0,41.57,318.518,1938627
-0.0303955,-0.2146,1.08783-1.46484,2.19727,-0.244141,-0.013,-0.191,4.42,-0.0214081,-0.210526,0,0,0,0,0,41.57,318.54,1938657
-0.0216064,0.0313721,1.03351-0.366211,0.854492,-0.0610352,0.012,0.052,4.43,-0.0214996,-0.211334,0,0,0,0,0,41.57,318.558,1938672
-0.0253906,-0.105225,0.981079-1.2207,0.427246,0.244141,-0.003,-0.083,4.42,-0.0214996,-0.212158,0,0,0,0,0,41.57,318.579,1938687
-0.0756226,-0.0197754,1.02972-0.854492,0.549316,0.427246,-0.044,0.006,4.42,-0.0215302,-0.213867,0,0,0,0,0,41.57,318.599,1938717
-0.0229492,-0.0230713,0.9823-0.549316,0.549316,-0.488281,0.006,-0.001,4.42,-0.0215912,-0.213867,0,0,0,0,0,41.57,318.619,1938732
-0.0187988,-0.071106,1.025270.366211,0,-0.732422,0.008,-0.048,4.44,-0.0216522,-0.213898,0,0,0,0,0,41.57,318.639,1938747
-0.0673218,0.019165,0.9827882.56348,0.854492,-1.28174,-0.034,0.043,4.44,-0.0216827,-0.213898,0,0,0,0,0,41.57,318.659,1938777
0.00183105,0.055603,1.018682.74658,-0.12207,-1.15967,0.038,0.073,4.45,-0.0217133,-0.213791,0,0,0,0,0,41.57,318.678,1938792
-0.034729,0.0449829,1.003174.02832,0,0.671387,0,0.064,4.45,-0.0217133,-0.213577,0,0,0,0,0,41.57,318.7,1938807
-0.0112305,-0.00170898,0.9838262.01416,0.305176,0.183105,0.019,0.013,4.45,-0.0217133,-0.213135,0,0,0,0,0,41.57,318.718,1938837
-0.0360718,-0.0817261,1.01251-2.0752,0.732422,2.13623,-0.01,-0.063,4.42,-0.0217133,-0.212952,0,0,0,0,0,41.57,318.739,1938852
-0.0430298,0.0630493,1.00818-3.05176,0.366211,0.427246,-0.005,0.081,4.4,-0.0217133,-0.212753,0,0,0,0,0,41.57,318.759,1938867
-0.0324707,-0.0552368,1.07666-3.2959,0.12207,1.15967,-0.001,-0.034,4.38,-0.0217133,-0.212265,0,0,0,0,0,41.57,318.778,1938897
-0.0490112,0.0465088,0.986328-1.89209,0.305176,0.854492,-0.013,0.067,4.36,-0.0217133,-0.212006,0,0,0,0,0,41.57,318.797,1938912
-0.0187988,0.0123291,0.9689940.0610352,-0.244141,0.488281,0.013,0.03,4.35,-0.0217133,-0.211685,0,0,0,0,0,41.57,318.817,1938927
-0.0245361,0.0123901,1.01349-1.52588,0.12207,-1.34277,0.009,0.032,4.38,-0.0217133,-0.211166,0,0,0,0,0,41.57,318.838,1938957
-0.0228882,0.0196533,0.9967650.244141,0.0610352,-1.2207,0.011,0.038,4.4,-0.0217133,-0.210876,0,0,0,0,0,41.57,318.858,1938972
-0.0453491,-0.0753784,1.005980.549316,0.305176,-0.549316,-0.018,-0.054,4.41,-0.0217133,-0.210602,0,0,0,0,0,41.57,318.882,1938987
-0.0549316,-0.046814,1.02429-1.58691,0.183105,1.83105,-0.024,-0.022,4.37,-0.0217438,-0.210281,0,0,0,0,0,41.57,318.898,1939017
-0.0368652,-0.0635986,1.01099-0.732422,0,0.549316,-0.008,-0.041,4.36,-0.0217896,-0.210205,0,0,0,0,0,41.57,318.918,1939032
-0.0343018,-0.0360718,1.000671.46484,-0.488281,0.244141,-0.003,-0.013,4.36,-0.0218353,-0.210159,0,0,0,0,0,41.57,318.938,1939047
-0.0218506,0.00152588,1.022091.70898,0.427246,0.12207,0.012,0.022,4.38,-0.0220795,-0.21019,0,0,0,0,0,41.59,318.979,1939092
-0.0205688,-0.0527344,1.0130.12207,-0.0610352,-0.183105,0.008,-0.032,4.38,-0.0220795,-0.210205,0,0,0,0,0,41.59,318.99,1939107
-0.0177612,-0.0431519,1.01373-1.83105,0.12207,-1.58691,0.012,-0.022,4.39,-0.0220795,-0.210266,0,0,0,0,0,41.59,319.007,1939123
-0.0144043,0.0197754,1.00995-1.09863,0,-1.09863,0.02,0.04,4.41,-0.0220642,-0.210312,0,0,0,0,0,41.59,319.03,1939137
-0.0172729,-0.0161743,0.9957280,0.183105,0.305176,0.014,0.004,4.42,-0.0220184,-0.210388,0,0,0,0,0,41.59,319.058,1939167
-0.0700073,0.000915527,1.0341.2207,0.488281,0.244141,-0.035,0.026,4.39,-0.022049,-0.210358,0,0,0,0,0,41.59,319.078,1939197
-0.00958252,-0.0361938,0.989624-0.244141,-0.244141,-0.0610352,0.02,-0.016,4.4,-0.0220795,-0.210327,0,0,0,0,0,41.59,319.099,1939212
-0.0227051,0.0113525,1.01282-0.244141,-0.488281,-0.427246,0.011,0.033,4.4,-0.0220947,-0.210266,0,0,0,0,0,41.59,319.117,1939227
-0.00476074,-0.0234985,0.99469-0.244141,-0.854492,1.15967,0.026,-0.003,4.4,-0.0220795,-0.210175,0,0,0,0,0,41.59,319.138,1939257
-0.0335083,0.185242,0.9851074.21143,-0.915527,0.854492,0.013,0.205,4.38,-0.0220337,-0.210007,0,0,0,0,0,41.59,319.158,1939272
-0.022644,0.0188599,1.011115.43213,-0.183105,0,0.012,0.037,4.38,-0.0219727,-0.209656,0,0,0,0,0,41.59,319.178,1939287
-0.0123291,-0.0641479,1.017462.13623,-0.427246,-1.0376,0.015,-0.048,4.4,-0.0219727,-0.209076,0,0,0,0,0,41.59,319.198,1939317
-0.0412598,0.0258179,0.969910.854492,-0.12207,-1.70898,-0.007,0.042,4.43,-0.0219727,-0.208832,0,0,0,0,0,41.59,319.218,1939332
-0.0420532,-0.017395,0.987671-1.09863,0.915527,-1.28174,-0.011,0,4.45,-0.0219727,-0.208557,0,0,0,0,0,41.59,319.238,1939347
-0.0322876,0.00286865,1.03748-2.74658,0.366211,-0.976562,0.002,0.02,4.47,-0.0219727,-0.207916,0,0,0,0,0,41.59,319.258,1939377
-0.0153809,0.0322266,0.972534-3.23486,0,-0.976562,0.019,0.047,4.49,-0.0219727,-0.207535,0,0,0,0,0,41.59,319.28,1939392
-0.065918,0.0963745,1.02655-1.09863,-0.0610352,0.244141,-0.024,0.117,4.49,-0.0219727,-0.207047,0,0,0,0,0,41.59,319.298,1939407
-0.0362549,-0.0178833,1.01019-0.549316,0,0.427246,-0.004,0,4.48,-0.0220032,-0.206467,0,0,0,0,0,41.59,319.318,1939423
-0.0227051,-0.0292358,1.00391-0.732422,-0.610352,0.793457,0.008,-0.012,4.46,-0.0220337,-0.205399,0,0,0,0,0,41.59,319.338,1939453
-0.0349731,-0.0221558,1.03479-2.44141,-0.488281,0.976562,-0.002,-0.003,4.45,-0.0220337,-0.204895,0,0,0,0,0,41.59,319.361,1939468
-0.0163574,0.151917,0.9907230.0610352,-0.976562,0.793457,0.028,0.168,4.43,-0.0220184,-0.204269,0,0,0,0,0,41.59,319.378,1939483
-0.0267944,-0.0725708,0.9916990.366211,-0.12207,1.46484,0,-0.054,4.39,-0.0218811,-0.202957,0,0,0,0,0,41.59,319.398,1939513
-0.013916,-0.0291748,1.019471.58691,-0.366211,0.915527,0.017,-0.011,4.37,-0.0218811,-0.202393,0,0,0,0,0,41.59,319.419,1939528
-0.0168457,-0.0535278,1.002561.89209,0.0610352,0.244141,0.011,-0.036,4.36,-0.0218811,-0.201859,0,0,0,0,0,41.59,319.438,1939543
-0.0405273,-0.0217896,1.0293-2.44141,0.671387,-1.52588,-0.008,-0.001,4.38,-0.0218811,-0.200912,0,0,0,0,0,41.59,319.458,1939573
-0.0681763,-0.00921631,1.04999-2.74658,1.34277,-1.0376,-0.034,0.015,4.4,-0.0219116,-0.200912,0,0,0,0,0,41.59,319.48,1939588
-0.0252075,0.0158691,0.966187-1.77002,0.0610352,-0.0610352,0.008,0.036,4.42,-0.022049,-0.200882,0,0,0,0,0,41.59,319.501,1939618
-0.0270386,0.00683594,1.009460.854492,-0.183105,0.793457,0.007,0.027,4.41,-0.022049,-0.200821,0,0,0,0,0,41.59,319.518,1939633
-0.0441895,-0.0497437,1.03181.52588,-0.488281,1.77002,-0.013,-0.027,4.39,-0.022049,-0.200745,0,0,0,0,0,41.59,319.538,1939648
-0.00720215,-0.0287476,1.027650.427246,-0.12207,2.13623,0.024,-0.009,4.32,-0.022049,-0.200699,0,0,0,0,0,41.59,319.559,1939678
-0.0270996,-0.0446777,1.03497-1.2207,-0.427246,1.09863,0.003,-0.022,4.3,-0.0220184,-0.200699,0,0,0,0,0,41.59,319.581,1939693
-0.0345459,-0.0146484,1.00037-1.70898,-0.488281,-0.305176,-0.002,0.007,4.3,-0.0219879,-0.200729,0,0,0,0,0,41.59,319.599,1939708
-0.0344849,0.0159912,1.001530.305176,-0.183105,-0.854492,0,0.038,4.32,-0.0219879,-0.20079,0,0,0,0,0,41.59,319.619,1939738
-0.0390625,-0.0418701,1.007391.34277,-0.244141,-0.244141,-0.009,-0.019,4.33,-0.0219879,-0.20079,0,0,0,0,0,41.59,319.639,1939753
-0.034729,-0.0255127,1.019710.671387,-0.12207,0.854492,-0.003,-0.002,4.32,-0.0219879,-0.200928,0,0,0,0,0,41.59,319.665,1939783
-0.034729,-0.0255127,1.019710.671387,-0.12207,0.854492,-0.003,-0.002,4.32,-0.0219879,-0.200928,0,0,0,0,0,41.59,319.678,1939783
-0.0182495,-0.0301514,1.0022-1.09863,-0.12207,1.40381,0.012,-0.008,4.29,-0.0219879,-0.201187,0,0,0,0,0,41.59,319.706,1939813
-0.0250854,0.0022583,1.00006-0.427246,-0.488281,0.732422,0.007,0.024,4.27,-0.0219879,-0.20134,0,0,0,0,0,41.59,319.719,1939828
-0.045105,0.0184326,1.026922.0752,0.305176,-0.854492,-0.01,0.041,4.28,-0.0219879,-0.201492,0,0,0,0,0,41.59,319.74,1939858
-0.0320435,-0.0245972,1.031491.58691,0.305176,-1.09863,0,-0.003,4.29,-0.0219879,-0.201508,0,0,0,0,0,41.59,319.758,1939873
-0.027771,-0.0126953,1.006650.549316,-0.549316,-1.09863,0.003,0.007,4.31,-0.0219879,-0.201538,0,0,0,0,0,41.59,319.779,1939888
-0.0184937,0.278381,1.03545.61523,-0.244141,0.854492,0.035,0.295,4.32,-0.0219574,-0.201187,0,0,0,0,0,41.59,319.798,1939918
-0.0286255,-0.03479,1.04518.17871,-0.488281,1.0376,0.002,-0.02,4.3,-0.0219116,-0.200699,0,0,0,0,0,41.59,319.819,1939933
-0.038269,-0.00793457,0.9946298.05664,-0.671387,1.95312,-0.007,0.005,4.29,-0.0218658,-0.200226,0,0,0,0,0,41.59,319.838,1939948
-0.0128784,-0.0282593,1.039312.44141,0.244141,1.64795,0.017,-0.018,4.23,-0.0218658,-0.199402,0,0,0,0,0,41.59,319.858,1939978
-0.0213013,0.00994873,1.03314-0.0610352,0.12207,0.915527,0.011,0.019,4.21,-0.0218658,-0.199005,0,0,0,0,0,41.59,319.881,1939993
-0.0311279,0.0272827,0.963806-1.0376,-0.244141,0.488281,0,0.037,4.2,-0.0218658,-0.198593,0,0,0,0,0,41.59,319.901,1940008
-0.024231,0.0192871,1.02643-2.13623,0.366211,-0.854492,0.008,0.029,4.21,-0.0218658,-0.197617,0,0,0,0,0,41.59,319.918,1940038
-0.0411987,0.0012207,1.02161-2.80762,0.305176,-1.09863,-0.009,0.012,4.23,-0.0218658,-0.197067,0,0,0,0,0,41.59,319.939,1940053
-0.0335693,0.00787354,0.99707-4.08936,0.183105,-1.34277,-0.001,0.019,4.24,-0.0218658,-0.196503,0,0,0,0,0,41.59,319.958,1940068
-0.0473633,0.00457764,1.03265-6.28662,0.12207,-1.15967,-0.014,0.02,4.27,-0.0218658,-0.195297,0,0,0,0,0,41.59,319.978,1940098
-0.00927734,-0.0584106,1.07312-7.38525,-0.12207,-1.0376,0.02,-0.043,4.28,-0.0218658,-0.194687,0,0,0,0,0,41.55,320.005,1940113
0.00592041,0.0440063,0.979248-5.12695,-1.34277,-0.183105,0.04,0.058,4.29,-0.0218201,-0.194077,0,0,0,0,0,41.55,320.018,1940128
-0.0684204,-0.0316772,0.970764-2.38037,-0.671387,0.244141,-0.039,-0.011,4.28,-0.0217743,-0.193436,0,0,0,0,0,41.55,320.038,1940143
-0.0247803,-0.227112,1.04419-0.0610352,0.183105,-0.427246,-0.008,-0.206,4.28,-0.0217285,-0.192505,0,0,0,0,0,41.55,320.058,1940173
-0.0101929,-0.055603,0.976624-1.46484,-0.610352,-0.0610352,0.016,-0.036,4.29,-0.0217285,-0.192322,0,0,0,0,0,41.55,320.078,1940188
-0.036499,-0.0869141,1.017332.38037,0.244141,0.12207,-0.01,-0.064,4.28,-0.0217285,-0.191971,0,0,0,0,0,41.55,320.1,1940218
-0.0281372,-0.078186,1.027772.01416,0.366211,0.976562,-0.001,-0.056,4.27,-0.0217285,-0.191895,0,0,0,0,0,41.55,320.118,1940233
-0.0343628,-0.0314331,0.9999391.09863,0.671387,0.183105,-0.004,-0.01,4.27,-0.0217285,-0.191864,0,0,0,0,0,41.55,320.138,1940248
-0.0559082,-0.00170898,1.017091.58691,0.488281,-0.244141,-0.023,0.02,4.27,-0.0217285,-0.191742,0,0,0,0,0,41.55,320.158,1940278
-0.0427856,-0.0133667,1.017820.915527,0.12207,-0.488281,-0.01,0.007,4.28,-0.021759,-0.19165,0,0,0,0,0,41.55,320.184,1940293
-0.0326538,-0.00201416,1.01746-0.183105,0,-0.366211,0,0.017,4.29,-0.0217896,-0.19165,0,0,0,0,0,41.55,320.199,1940308
-0.0352783,0.000549316,1.01276-0.976562,-0.366211,-0.366211,-0.002,0.02,4.29,-0.0217896,-0.19162,0,0,0,0,0,41.55,320.218,1940324
-0.0231934,-0.00683594,1.02454-0.671387,-0.366211,0.12207,0.009,0.012,4.29,-0.0217896,-0.191513,0,0,0,0,0,41.55,320.238,1940353
-0.0188599,-0.0303955,1.00916-0.793457,-0.671387,0.488281,0.011,-0.011,4.29,-0.0217896,-0.191513,0,0,0,0,0,41.55,320.258,1940368
-0.0303955,-0.0575562,1.00433-0.610352,-0.12207,0.366211,-0.002,-0.037,4.28,-0.0217896,-0.191544,0,0,0,0,0,41.55,320.278,1940384
-0.024353,-0.02948,1.00781-0.488281,0.12207,-0.12207,0.005,-0.008,4.28,-0.0217896,-0.191727,0,0,0,0,0,41.55,320.298,1940413
-0.0302734,-0.0462646,0.9993290.244141,0.427246,-0.305176,-0.001,-0.025,4.28,-0.0217896,-0.191849,0,0,0,0,0,41.55,320.318,1940428
-0.026123,-0.0548706,1.015990.427246,0.183105,0.12207,0.002,-0.033,4.29,-0.0217896,-0.192017,0,0,0,0,0,41.55,320.338,1940444
-0.0464478,-0.00860596,1.013980.732422,0.244141,0.244141,-0.014,0.014,4.28,-0.0217896,-0.192444,0,0,0,0,0,41.55,320.358,1940473
-0.0430908,-0.00500488,1.006710.793457,0.0610352,0.0610352,-0.01,0.017,4.28,-0.0217896,-0.192642,0,0,0,0,0,41.55,320.378,1940489
-0.038147,-0.0487671,1.01074-0.427246,-0.244141,1.0376,-0.008,-0.026,4.26,-0.0217896,-0.193085,0,0,0,0,0,41.55,320.409,1940518
-0.0309448,0.0155029,0.9975590.12207,-0.305176,2.38037,0.002,0.036,4.23,-0.0217896,-0.193329,0,0,0,0,0,41.55,320.418,1940533
-0.041748,-0.0105591,1.017880.915527,0.12207,3.2959,-0.009,0.011,4.18,-0.0217896,-0.193527,0,0,0,0,0,41.55,320.438,1940548
-0.0157471,-0.00872803,1.01746-0.976562,-0.12207,2.92969,0.016,0.011,4.08,-0.0217896,-0.193741,0,0,0,0,0,41.55,320.458,1940578
-0.0463867,-0.0109253,1.0191-0.671387,0,2.38037,-0.014,0.011,4.05,-0.0217896,-0.193741,0,0,0,0,0,41.55,320.48,1940593
-0.022522,-0.0303345,0.998962-0.366211,-0.244141,3.23486,0.007,-0.01,4,-0.0217896,-0.193741,0,0,0,0,0,41.55,320.498,1940608
-0.0158081,-0.0422974,1.02051-0.244141,-0.0610352,3.05176,0.014,-0.021,3.95,-0.0217896,-0.193756,0,0,0,0,0,41.59,320.518,1940624
-0.0352173,-0.0194092,1.00671-0.183105,-0.0610352,2.56348,-0.003,0.002,3.87,-0.0217896,-0.193863,0,0,0,0,0,41.59,320.538,1940653
-0.027771,-0.0297852,1.007450,-0.183105,1.46484,0.002,-0.008,3.84,-0.0217896,-0.193863,0,0,0,0,0,41.59,320.558,1940668
-0.020874,-0.0370483,1.019470.671387,0.183105,2.01416,0.009,-0.015,3.8,-0.0217896,-0.193924,0,0,0,0,0,41.59,320.581,1940698
-0.0275879,-0.0444946,1.016660.183105,0.12207,2.13623,0.002,-0.022,3.77,-0.0217896,-0.194,0,0,0,0,0,41.59,320.606,1940713
-0.0408936,-0.0831909,1.0083-0.305176,-0.366211,6.65283,-0.013,-0.06,3.7,-0.0217896,-0.194122,0,0,0,0,0,41.59,320.62,1940728
-0.0294189,-0.0385132,1.010190.732422,0,13.1836,0,-0.016,3.34,-0.0217896,-0.194305,0,0,0,0,0,41.59,320.638,1940758
-0.0526733,-0.0470581,1.007390.305176,-0.366211,16.2354,-0.022,-0.023,3.11,-0.0218048,-0.194321,0,0,0,0,0,41.59,320.658,1940773
-0.0393066,-0.0296021,1.00806-0.0610352,-0.854492,20.1416,-0.008,-0.007,2.83,-0.0218353,-0.194366,0,0,0,0,0,41.59,320.678,1940788
-0.0454712,-0.0367432,1.01404-0.793457,-0.976562,23.1323,-0.014,-0.013,2.18,-0.0218811,-0.194443,0,0,0,0,0,41.59,320.701,1940819
-0.0280762,-0.0149536,1.00409-0.915527,-1.2207,24.1699,0.003,0.007,1.82,-0.0218811,-0.194443,0,0,0,0,0,41.59,320.721,1940834
-0.0373535,-0.057251,1.0155-0.732422,-1.2207,26.7334,-0.006,-0.034,1.43,-0.0218811,-0.194458,0,0,0,0,0,41.59,320.742,1940849
-0.0142822,-0.0299072,1.011780.671387,-0.976562,29.48,0.016,-0.007,0.56,-0.0218811,-0.194534,0,0,0,0,0,41.59,320.758,1940879
-0.0390015,-0.059082,1.01910.366211,-0.915527,31.3721,-0.008,-0.036,0.11,-0.0218811,-0.194595,0,0,0,0,0,41.59,320.783,1940894
-0.00994873,-0.036499,1.01147-0.366211,-1.2207,33.5693,0.02,-0.014,-0.38,-0.0218658,-0.194702,0,0,0,0,0,41.59,320.798,1940909
-0.0253296,0.010376,1.008610,-0.854492,34.1797,0.004,0.032,-0.89,-0.0218506,-0.194778,0,0,0,0,0,41.59,320.819,1940924
-0.0470581,-0.0390015,1.001040.244141,-0.427246,37.2314,-0.016,-0.018,-1.97,-0.0218201,-0.194946,0,0,0,0,0,41.59,320.839,1940954
-0.0394897,-0.0348511,1.02539-0.366211,-0.671387,36.8042,-0.007,-0.013,-2.53,-0.0218201,-0.194946,0,0,0,0,0,41.59,320.858,1940969
-0.0480957,-0.0283203,1.00598-1.34277,-1.09863,35.5835,-0.017,-0.008,-3.07,-0.0218201,-0.194946,0,0,0,0,0,41.59,320.878,1940984
-0.0305786,-0.0197754,1.008180.549316,-1.40381,33.9355,0,0,-4.11,-0.0218201,-0.194916,0,0,0,0,0,41.59,320.898,1941014
-0.0442505,-0.0338135,1.009460.976562,-1.52588,33.5693,-0.012,-0.014,-4.61,-0.0218201,-0.194901,0,0,0,0,0,41.59,320.919,1941029
-0.0313721,-0.0203857,1.019411.28174,-1.15967,33.6304,-0.001,-0.001,-5.62,-0.0218048,-0.194901,0,0,0,0,0,41.59,320.938,1941059
-0.0205078,-0.0254517,1.02740.732422,-1.46484,34.668,0.01,-0.005,-6.14,-0.0217743,-0.194901,0,0,0,0,0,41.59,320.959,1941074
-0.0436401,-0.0336914,1.02185-0.0610352,-0.854492,35.3394,-0.012,-0.016,-6.67,-0.0217743,-0.194901,0,0,0,0,0,41.59,320.98,1941089
-0.0134888,-0.0413818,1.00946-1.46484,-0.854492,36.0718,0.018,-0.02,-7.21,-0.0217743,-0.194931,0,0,0,0,0,41.59,320.999,1941104
-0.0452881,-0.00915527,1.00116-0.12207,-0.793457,34.668,-0.017,0.006,-8.26,-0.0217743,-0.194931,0,0,0,0,0,41.58,321.021,1941134
-0.0240479,-0.0494385,1.003420.427246,-0.671387,34.3628,0.009,-0.03,-8.78,-0.0217743,-0.194946,0,0,0,0,0,41.58,321.039,1941149
-0.0437622,-0.0198975,1.00941.2207,-1.40381,33.9355,-0.013,-0.005,-9.79,-0.0217743,-0.194977,0,0,0,0,0,41.58,321.058,1941179
-0.0397339,-0.0280762,1.010130.305176,-1.40381,34.1187,-0.008,-0.013,-10.31,-0.0217743,-0.194977,0,0,0,0,0,41.58,321.078,1941194
-0.0484619,-0.0327759,1.03717-0.244141,-1.70898,33.2031,-0.015,-0.019,-10.81,-0.0217743,-0.194977,0,0,0,0,0,41.58,321.098,1941209
-0.0444336,-0.0372925,1.02765-1.40381,-1.89209,33.5693,-0.01,-0.023,-11.31,-0.0217743,-0.195007,0,0,0,0,0,41.58,321.118,1941224
-0.0352173,-0.00219727,0.999573-0.366211,-1.15967,34.2407,-0.009,0.012,-12.33,-0.0217743,-0.195068,0,0,0,0,0,41.58,321.139,1941254
-0.0108643,-0.0020752,1.014280.732422,-1.46484,34.1187,0.013,0.017,-12.84,-0.0217743,-0.195068,0,0,0,0,0,41.58,321.158,1941269
-0.0198364,-0.00506592,1.009220.976562,-0.854492,35.3394,0.005,0.011,-13.89,-0.0217743,-0.195068,0,0,0,0,0,41.58,321.179,1941299
-0.0175171,-0.0168457,1.030580.671387,-0.976562,36.2549,0.01,0,-14.43,-0.0217743,-0.195068,0,0,0,0,0,41.58,321.2,1941314
-0.0377197,-0.026062,1.01398-0.549316,-0.610352,36.8652,-0.006,-0.014,-14.98,-0.0217743,-0.195068,0,0,0,0,0,41.58,321.219,1941329
-0.0405273,0.000488281,0.996582-0.915527,-0.610352,36.5601,-0.016,0.01,-15.53,-0.0217743,-0.195068,0,0,0,0,0,41.58,321.238,1941344
-0.0429077,0.00170898,1.00183-1.52588,-0.488281,35.5835,-0.019,0.011,-16.61,-0.0217743,-0.195068,0,0,0,0,0,41.58,321.259,1941374
-0.0198975,-0.00744629,1.004880.610352,-0.793457,33.9355,0.005,0.008,-17.13,-0.0217743,-0.195068,0,0,0,0,0,41.58,321.278,1941389
-0.0350342,-0.00494385,1.003851.70898,-1.2207,34.4849,-0.009,0.005,-18.17,-0.0217743,-0.195114,0,0,0,0,0,41.58,321.302,1941419
-0.0292358,-0.0246582,1.015561.40381,-1.09863,34.9731,0.002,-0.011,-18.69,-0.0217743,-0.195145,0,0,0,0,0,41.58,321.318,1941434
-0.0437622,-0.024353,1.0130.671387,-1.64795,35.8887,-0.011,-0.016,-19.22,-0.0217743,-0.195145,0,0,0,0,0,41.58,321.338,1941449
-0.0200195,-0.0204468,1.01068-0.427246,-1.28174,35.7056,0.009,-0.005,-19.76,-0.0217743,-0.195145,0,0,0,0,0,41.58,321.358,1941464
-0.0282593,-0.0124512,1.00427-1.2207,-1.34277,36.6211,-0.001,0,-20.84,-0.0217743,-0.195206,0,0,0,0,0,41.58,321.378,1941494
-0.0133667,0.00701904,1.008360.0610352,-1.15967,35.5835,0.005,0.022,-21.39,-0.0217743,-0.195236,0,0,0,0,0,41.58,321.399,1941509
-0.0111694,-0.0227661,1.025391.0376,-0.732422,36.8652,0.019,-0.004,-22.47,-0.0218048,-0.195251,0,0,0,0,0,41.58,321.419,1941539
-0.0166016,-0.0171509,1.021730.793457,-0.915527,37.1094,0.011,-0.002,-23.03,-0.0217896,-0.195251,0,0,0,0,0,41.58,321.438,1941554
-0.0461426,0.00256348,1.00122-0.12207,-1.2207,37.7808,-0.023,0.003,-23.59,-0.0217896,-0.195251,0,0,0,0,0,41.58,321.459,1941569
-0.0358276,-0.0231934,1.01697-0.366211,-1.09863,37.5977,-0.002,-0.015,-24.15,-0.0218048,-0.195251,0,0,0,0,0,41.58,321.478,1941584
-0.0405273,-0.0244141,0.993958-1.34277,-1.40381,36.3159,-0.007,-0.019,-25.24,-0.0218353,-0.195251,0,0,0,0,0,41.58,321.498,1941614
-0.0355225,0.00994873,1.00122-0.244141,-1.0376,35.5225,-0.017,0.013,-25.79,-0.0218353,-0.195251,0,0,0,0,0,41.58,321.521,1941629
-0.0615234,-0.0161743,1.005131.0376,-1.28174,35.7056,-0.028,-0.022,-26.84,-0.0218353,-0.195206,0,0,0,0,0,41.56,321.539,1941659
-0.0210571,-0.00610352,1.003051.15967,-1.09863,36.0718,0.002,0.004,-27.39,-0.0218658,-0.19519,0,0,0,0,0,41.56,321.558,1941674
-0.00598145,-0.0327759,1.041750.854492,-1.40381,36.438,0.029,-0.012,-27.93,-0.0218658,-0.19519,0,0,0,0,0,41.56,321.578,1941689
-0.0480957,-0.00231934,1.00354-1.52588,-0.976562,37.1094,-0.023,-0.006,-29.04,-0.0218964,-0.19519,0,0,0,0,0,41.56,321.6,1941719
-0.0186768,-0.00476074,1.01929-1.0376,-0.793457,36.438,0.003,0.006,-29.59,-0.0219421,-0.19519,0,0,0,0,0,41.56,321.624,1941734
-0.0155029,0.0287476,1.01831-0.183105,-0.976562,36.7432,-0.01,0.036,-30.13,-0.0219727,-0.19516,0,0,0,0,0,41.56,321.642,1941749
-0.027832,-0.00579834,1.008241.34277,-0.549316,37.5977,-0.003,0,-31.25,-0.0219727,-0.195099,0,0,0,0,0,41.56,321.659,1941779
-0.0103149,-0.00115967,1.029540.915527,-1.15967,38.0859,0.009,0.012,-31.82,-0.0219727,-0.195099,0,0,0,0,0,41.56,321.679,1941794
-0.0473022,-0.0251465,1.01422-0.183105,-1.40381,37.9028,-0.009,-0.028,-32.38,-0.0219727,-0.195114,0,0,0,0,0,41.56,321.698,1941809
-0.0101929,-0.0147705,1.03259-1.2207,-1.28174,36.6211,0.016,0.001,-33.5,-0.0219727,-0.19519,0,0,0,0,0,41.56,321.718,1941839
-0.0412598,0.00170898,1.01019-1.52588,-1.09863,35.8887,-0.018,-0.002,-34.04,-0.0219727,-0.19519,0,0,0,0,0,41.56,321.739,1941854
-0.0365601,0.00622559,0.988098-0.305176,-1.2207,36.0107,-0.017,0.002,-34.59,-0.0219727,-0.19519,0,0,0,0,0,41.56,321.758,1941869
-0.00744629,-0.00787354,1.012940.854492,-0.366211,35.8276,0.014,0.007,-35.12,-0.0219727,-0.19519,0,0,0,0,0,41.56,321.779,1941885
-0.022583,0.000488281,0.9931640.488281,-0.793457,37.8418,-0.002,0.004,-36.23,-0.0220032,-0.19519,0,0,0,0,0,41.56,321.798,1941914
-0.0301514,-0.0157471,1.001160.0610352,-0.610352,38.0249,0.001,-0.012,-36.8,-0.0220337,-0.19519,0,0,0,0,0,41.56,321.819,1941929
-0.0380859,-0.00109863,1.03979-1.89209,-1.09863,36.6211,-0.013,-0.005,-37.93,-0.0220337,-0.19519,0,0,0,0,0,41.56,321.84,1941959
-0.0550537,-0.0010376,1.0296-0.488281,-0.915527,35.5225,-0.027,-0.016,-38.47,-0.0220642,-0.19519,0,0,0,0,0,41.56,321.859,1941974
-0.0175781,-0.0201416,1.016420.12207,-1.15967,35.7666,0.014,-0.008,-39,-0.0220947,-0.19519,0,0,0,0,0,41.56,321.879,1941989
-0.0321655,0.00494385,0.9946290.610352,-0.854492,36.7432,-0.012,0,-40.08,-0.0221252,-0.19519,0,0,0,0,0,41.56,321.899,1942019
-0.0090332,0.00524902,1.041441.09863,-1.0376,37.1704,0.005,0.016,-40.63,-0.0221252,-0.19519,0,0,0,0,0,41.56,321.92,1942034
-0.0496826,-0.00427246,1.01147-0.854492,-1.09863,37.1704,-0.019,-0.018,-41.19,-0.0221252,-0.19519,0,0,0,0,0,41.56,321.939,1942049
-0.0305176,-0.0179443,1.00403-1.46484,-1.34277,37.5977,0.003,-0.016,-41.76,-0.0221252,-0.19519,0,0,0,0,0,41.56,321.959,1942065
-0.0601196,0.0161133,1.01373-0.610352,-1.0376,36.0718,-0.041,-0.011,-42.85,-0.0221558,-0.19519,0,0,0,0,0,41.56,321.979,1942094
-0.00183105,0.000488281,1.006840.427246,-1.28174,36.377,0.012,0.016,-43.39,-0.0222015,-0.19519,0,0,0,0,0,41.56,321.997,1942109
-0.0482178,0.00653076,0.9992680.366211,-0.610352,37.7808,-0.025,-0.012,-44.5,-0.0222931,-0.19519,0,0,0,0,0,41.56,322.024,1942139
-0.00354004,-0.0118408,1.031620.488281,-0.793457,38.5742,0.019,0.006,-45.08,-0.0223389,-0.19519,0,0,0,0,0,41.57,322.04,1942155
-0.0354614,-0.00561523,1.01508-0.183105,-0.854492,38.3301,-0.007,-0.012,-45.65,-0.0223846,-0.19519,0,0,0,0,0,41.57,322.058,1942170
-0.0388794,-0.000854492,1.00067-0.671387,-1.40381,38.0249,-0.013,-0.011,-46.22,-0.0223846,-0.19519,0,0,0,0,0,41.57,322.078,1942185
-0.0300903,-0.00280762,1.018070.427246,-0.915527,35.8276,-0.005,-0.007,-47.32,-0.0224457,-0.19519,0,0,0,0,0,41.57,322.098,1942215
-0.0344849,-0.0234375,0.9957280.549316,-0.732422,36.2549,0.007,-0.024,-47.86,-0.0224915,-0.195206,0,0,0,0,0,41.57,322.118,1942230
-0.00646973,-0.0331421,1.029970.427246,-0.549316,36.9873,0.033,-0.009,-48.42,-0.0225067,-0.195251,0,0,0,0,0,41.57,322.137,1942245
-0.0332642,-0.00335693,1.014220.488281,-1.0376,39.4287,-0.005,-0.011,-49.56,-0.0225525,-0.195312,0,0,0,0,0,41.57,322.158,1942275
-0.0158081,-0.00994873,1.02332-0.488281,-0.976562,39.1235,0.01,-0.002,-50.14,-0.0225525,-0.195312,0,0,0,0,0,41.57,322.177,1942290
-0.0431519,0.00396729,1.02344-1.09863,-0.976562,38.8184,-0.017,-0.014,-50.73,-0.0225525,-0.195312,0,0,0,0,0,41.57,322.198,1942305
-0.027832,0.0140991,1.007320.244141,-0.671387,37.4146,-0.015,0.002,-51.88,-0.0226288,-0.195312,0,0,0,0,0,41.57,322.221,1942335
-0.0394897,-0.0432129,1.019710.0610352,-0.732422,37.5977,0.022,-0.041,-52.43,-0.0226898,-0.195343,0,0,0,0,0,41.57,322.239,1942350
-0.0317993,0.00799561,1.009890.610352,-0.549316,38.8184,-0.012,-0.005,-53.59,-0.0227509,-0.19545,0,0,0,0,0,41.57,322.266,1942380
-0.0504761,0.00646973,1.014650.671387,-1.0376,39.1846,-0.022,-0.021,-54.17,-0.0228119,-0.195511,0,0,0,0,0,41.57,322.278,1942395
-0.0227051,-0.00732422,1.00854-0.12207,-1.2207,38.9404,0.005,-0.007,-54.75,-0.0228882,-0.195618,0,0,0,0,0,41.57,322.298,1942410
-0.0305786,0.0209961,1.01709-0.549316,-1.15967,37.6587,-0.022,0.001,-55.33,-0.0229797,-0.195709,0,0,0,0,0,41.57,322.32,1942425
-0.0322266,-0.00317383,1.006960,-1.0376,36.6821,-0.002,-0.014,-56.44,-0.0232391,-0.195709,0,0,0,0,0,41.57,322.338,1942455
-0.00177002,-0.00494385,0.999451-0.0610352,-1.15967,36.9873,0.014,0.01,-56.99,-0.0232391,-0.195709,0,0,0,0,0,41.57,322.359,1942470
-0.0305176,0.0336304,1.02356-0.0610352,-0.854492,38.208,-0.032,0.006,-57.56,-0.0232391,-0.195709,0,0,0,0,0,41.57,322.378,1942485
-0.00439453,-0.010376,1.01367-0.12207,-1.15967,40.1611,0.018,0.004,-58.75,-0.0232849,-0.195709,0,0,0,0,0,41.57,322.398,1942515
-0.036377,-0.00292969,0.998596-1.28174,-1.15967,40.7715,-0.004,-0.019,-59.35,-0.0232849,-0.195709,0,0,0,0,0,41.57,322.418,1942530
-0.0292969,6.10352e-05,1.05695-0.854492,-1.15967,40.1001,-0.003,-0.01,-59.96,-0.0232849,-0.195709,0,0,0,0,0,41.57,322.438,1942545
-0.0219116,-0.0386963,1.00891-0.549316,-0.854492,39.7949,0.034,-0.024,-61.14,-0.0232544,-0.195724,0,0,0,0,0,41.57,322.458,1942575
-0.00592041,0.0285645,1.01245-0.0610352,-0.610352,38.6963,-0.017,0.021,-61.73,-0.0232086,-0.195755,0,0,0,0,0,41.57,322.478,1942590
-0.0482178,0.0345459,1.00690.549316,-0.244141,38.6353,-0.042,-0.013,-62.3,-0.0232086,-0.19577,0,0,0,0,0,41.57,322.499,1942605
-0.0315552,-0.0245972,1.0116-0.976562,-1.0376,38.8794,0.018,-0.026,-63.48,-0.0232239,-0.195786,0,0,0,0,0,41.57,322.518,1942635
-0.0443726,0.0385742,1.005-1.0376,-0.976562,38.9404,-0.043,-0.009,-64.07,-0.0232391,-0.195831,0,0,0,0,0,41.57,322.538,1942650
-0.0186157,0.0377197,1.01508-0.488281,-1.2207,39.0015,-0.031,0.012,-64.65,-0.0233154,-0.195877,0,0,0,0,0,41.58,322.558,1942665
-0.00311279,-0.00915527,1.03497-0.0610352,-1.15967,39.3677,0.017,0.006,-65.81,-0.023407,-0.195999,0,0,0,0,0,41.58,322.58,1942695
-0.0338135,0.0362549,1.01697-0.549316,-0.366211,39.1846,-0.036,-0.003,-66.4,-0.0234222,-0.19606,0,0,0,0,0,41.58,322.598,1942710
-0.0296631,0.0166626,0.9953610.488281,-0.976562,39.978,-0.016,-0.008,-66.99,-0.023468,-0.19606,0,0,0,0,0,41.58,322.619,1942725
-0.0285034,0.00238037,1.00946-1.64795,-0.549316,40.4053,-0.002,-0.013,-68.21,-0.0235138,-0.19606,0,0,0,0,0,41.58,322.64,1942755
-0.0261841,0.0247192,1.01385-1.40381,-0.976562,41.0156,-0.022,-0.003,-68.82,-0.0235291,-0.19606,0,0,0,0,0,41.58,322.659,1942770
-0.0379028,-0.0216064,1.00244-1.09863,-0.671387,39.978,0.016,-0.03,-70.03,-0.0236206,-0.196075,0,0,0,0,0,41.58,322.681,1942800
-0.019165,0.0106812,0.99884-0.0610352,-0.915527,39.6118,-0.007,-0.002,-70.62,-0.0236206,-0.196121,0,0,0,0,0,41.58,322.698,1942815
-0.0338745,0.0182495,1.017090.915527,-0.610352,39.0625,-0.018,-0.014,-71.21,-0.0236206,-0.196167,0,0,0,0,0,41.58,322.718,1942830
-0.0281372,-0.00653076,1.018980.854492,-1.28174,39.3677,0.007,-0.016,-71.8,-0.0236206,-0.196167,0,0,0,0,0,41.58,322.738,1942845
-0.0229492,-0.000305176,1.01917-0.671387,-1.46484,39.0015,0.002,-0.01,-72.99,-0.0235596,-0.196167,0,0,0,0,0,41.58,322.758,1942875
-0.0322266,0.0385132,1.03052-0.488281,-1.64795,38.8794,-0.037,-0.008,-73.57,-0.0235443,-0.196167,0,0,0,0,0,41.58,322.778,1942890
-0.0397949,-0.00109863,0.987793-0.549316,-1.0376,38.8794,-0.001,-0.027,-74.15,-0.0235596,-0.196182,0,0,0,0,0,41.58,322.798,1942905
-0.0211182,0.0200806,1.04248-0.0610352,-0.732422,39.6729,-0.015,-0.004,-75.33,-0.0235596,-0.196213,0,0,0,0,0,41.58,322.818,1942935
-0.0267944,-0.00317383,1.012940.488281,-1.2207,40.1611,0.005,-0.016,-75.93,-0.0235596,-0.196213,0,0,0,0,0,41.58,322.84,1942950
0.00817871,0.0100708,1.010990.183105,-1.28174,40.8325,0.001,0.02,-76.54,-0.0235596,-0.196213,0,0,0,0,0,41.58,322.858,1942965
-0.0322876,0.0338745,1.03815-0.244141,-0.915527,40.5884,-0.03,-0.014,-77.76,-0.0235901,-0.196198,0,0,0,0,0,41.58,322.878,1942995
-0.0187378,-0.00805664,1.00922-1.15967,-0.244141,40.4053,0.013,-0.01,-78.36,-0.0236359,-0.196198,0,0,0,0,0,41.58,322.898,1943010
-0.015564,-0.00457764,1.0011-1.70898,-0.732422,40.3442,0.009,-0.006,-78.97,-0.0236664,-0.196198,0,0,0,0,0,41.58,322.919,1943027
-0.027771,0.0256348,1.0155-0.671387,-1.15967,39.0625,-0.021,-0.013,-80.17,-0.0238495,-0.196198,0,0,0,0,0,41.58,322.939,1943055
-0.0387573,0.000915527,1.01343-0.366211,-0.976562,35.1562,0.001,-0.028,-80.71,-0.0239868,-0.196228,0,0,0,0,0,41.58,322.96,1943070
-0.00921631,0.00146484,1.00366-1.09863,-1.40381,32.4707,0.005,0,-81.22,-0.0239868,-0.196274,0,0,0,0,0,41.58,322.978,1943086
-0.0366211,0.0441284,0.9973750.0610352,-0.854492,27.5269,-0.04,-0.021,-82.09,-0.0241089,-0.196381,0,0,0,0,0,41.58,322.998,1943115
-0.00714111,0.0180054,1.013430.793457,-0.671387,25.0244,-0.009,0.003,-82.47,-0.0242157,-0.196457,0,0,0,0,0,41.58,323.018,1943130
-0.0194702,-0.0401611,1.02301-0.610352,-0.671387,23.6206,0.046,-0.015,-82.84,-0.0243225,-0.196533,0,0,0,0,0,41.58,323.041,1943146
-0.00665283,0.0493164,1.006590.488281,0,21.1792,-0.041,0.007,-83.5,-0.0245361,-0.196533,0,0,0,0,0,41.6,323.058,1943175
-0.0288086,-0.0157471,1.026311.0376,-0.427246,21.4844,0.021,-0.021,-83.82,-0.0246887,-0.196548,0,0,0,0,0,41.6,323.078,1943190
-0.00927734,-0.024292,1.013490,-0.427246,23.0713,0.032,-0.003,-84.16,-0.0247955,-0.196564,0,0,0,0,0,41.6,323.099,1943206
-0.0233765,0.0177612,1.02020.12207,-0.366211,25.1465,-0.01,-0.013,-84.88,-0.0250092,-0.196594,0,0,0,0,0,41.6,323.118,1943235
-0.0177612,0.00512695,1.02429-0.12207,-0.549316,26.3672,0.002,-0.008,-85.27,-0.0250092,-0.196594,0,0,0,0,0,41.6,323.138,1943250
-0.010437,0.0289307,1.00311-0.0610352,-0.793457,26.062,-0.02,0,-85.66,-0.0250244,-0.196594,0,0,0,0,0,41.6,323.158,1943266
-0.0180664,0.0131226,1.03308-0.427246,-1.0376,27.0996,-0.005,-0.008,-86.46,-0.0250854,-0.196671,0,0,0,0,0,41.6,323.178,1943295
-0.0194092,0.0101318,1.00977-0.976562,-0.915527,27.0996,-0.002,-0.01,-86.87,-0.0250854,-0.196747,0,0,0,0,0,41.6,323.199,1943310
-0.0217285,0.0160522,0.990112-0.610352,-1.0376,26.9165,-0.008,-0.012,-87.27,-0.0250854,-0.196747,0,0,0,0,0,41.6,323.218,1943326
-0.00482178,0.00341797,1.019780.0610352,-0.976562,25.3296,0.005,0.003,-88.05,-0.0250854,-0.196747,0,0,0,0,0,41.6,323.238,1943355
-0.00177002,0.00506592,1.00208-0.183105,-0.854492,24.9634,0.003,0.005,-88.43,-0.0250854,-0.196747,0,0,0,0,0,41.6,323.258,1943370
-0.00628662,0.0301514,1.00793-0.12207,-0.671387,24.8413,-0.021,0.001,-88.8,-0.0250854,-0.196747,0,0,0,0,0,41.6,323.28,1943386
-0.00939941,-0.00402832,1.025450.610352,-0.183105,25.3296,0.013,-0.002,-89.55,-0.0251465,-0.196747,0,0,0,0,0,41.6,323.3,1943415
-0.0078125,0.0203247,1.012150.549316,-0.244141,25.8179,-0.011,0,-89.94,-0.0251465,-0.196747,0,0,0,0,0,41.6,323.319,1943430
-0.0254517,0.00372314,1.01880.244141,-0.366211,26.9165,0.005,-0.018,-90.34,-0.0251465,-0.196747,0,0,0,0,0,41.6,323.338,1943446
-0.0267944,0.0236206,1.00275-0.12207,-0.610352,27.4658,-0.013,-0.02,-91.15,-0.0251465,-0.196838,0,0,0,0,0,41.6,323.359,1943475
-0.0369873,0.00769043,1.0155-0.549316,-0.793457,27.4048,0.002,-0.029,-91.56,-0.0251465,-0.19693,0,0,0,0,0,41.6,323.379,1943491
-0.0296021,0.0247803,1.01154-0.427246,-0.732422,26.9775,-0.014,-0.023,-91.97,-0.0251465,-0.197067,0,0,0,0,0,41.6,323.4,1943506
-0.000244141,0.0454712,1.01453-0.549316,-1.34277,25.3296,-0.036,0.004,-92.77,-0.0251617,-0.19722,0,0,0,0,0,41.6,323.419,1943536
-0.0129395,0.0546265,1.02496-1.46484,-0.854492,16.9678,-0.045,-0.009,-93.37,-0.025238,-0.19722,0,0,0,0,0,41.6,323.446,1943566
-0.0129395,0.0546265,1.02496-1.46484,-0.854492,16.9678,-0.045,-0.009,-93.37,-0.025238,-0.19722,0,0,0,0,0,41.6,323.46,1943566
0.0113525,0.0359497,0.9969480.732422,-0.488281,11.7798,-0.027,0.014,-93.79,-0.0254822,-0.19722,0,0,0,0,0,41.6,323.486,1943596
0.000732422,0.0090332,1.018860.976562,0.366211,9.15527,0,0.006,-93.94,-0.02565,-0.19722,0,0,0,0,0,41.6,323.498,1943611
-0.0131226,0.0188599,1.001160,0.0610352,8.05664,-0.008,-0.008,-94.19,-0.0258179,-0.19722,0,0,0,0,0,41.6,323.525,1943641
-0.0144653,0.0266113,1.017270.549316,0.366211,7.08008,-0.015,-0.01,-94.3,-0.0258179,-0.19722,0,0,0,0,0,41.6,323.544,1943656
-0.0231934,0.00732422,1.011960.0610352,0,9.15527,0.004,-0.016,-94.55,-0.0258179,-0.197296,0,0,0,0,0,41.58,323.569,1943686
-0.0231934,0.00732422,1.011960.0610352,0,9.15527,0.004,-0.016,-94.55,-0.0258179,-0.197296,0,0,0,0,0,41.58,323.58,1943686
0.0174561,0.0256958,1.05426-0.12207,-1.46484,11.6577,-0.016,0.022,-95.17,-0.0258179,-0.197754,0,0,0,0,0,41.58,323.626,1943746
0.0174561,0.0256958,1.05426-0.12207,-1.46484,11.6577,-0.016,0.022,-95.17,-0.0258179,-0.197754,0,0,0,0,0,41.58,323.638,1943746
-0.00482178,-0.0164795,1.019530,-1.09863,13.0615,0.026,0.003,-95.55,-0.0257874,-0.197952,0,0,0,0,0,41.58,323.658,1943776
-0.00476074,0.0234985,1.00732-0.610352,-0.732422,12.8784,-0.013,0,-95.75,-0.0257568,-0.197952,0,0,0,0,0,41.58,323.678,1943791
-0.00921631,0.0245972,1.01074-0.12207,-0.732422,12.8784,-0.013,-0.005,-95.93,-0.0257416,-0.197952,0,0,0,0,0,41.58,323.698,1943806
-0.00421143,0.0210571,1.011350.610352,-0.183105,11.2915,-0.01,0,-96.29,-0.0257416,-0.197952,0,0,0,0,0,41.58,323.719,1943836
-0.012146,0.00830078,0.9997560.305176,-0.183105,11.0474,0.003,-0.006,-96.46,-0.0257416,-0.197952,0,0,0,0,0,41.58,323.739,1943851
-0.0124512,0.0265503,1.015320.488281,-0.0610352,10.376,-0.014,-0.009,-96.62,-0.0257416,-0.197952,0,0,0,0,0,41.58,323.76,1943866
-0.0200195,0.0187378,1.016240.549316,-0.366211,9.94873,-0.005,-0.015,-96.92,-0.0257416,-0.197952,0,0,0,0,0,41.58,323.779,1943896
-0.0180664,0.0166626,1.008610.366211,-0.427246,9.46045,-0.003,-0.013,-97.07,-0.0257416,-0.197952,0,0,0,0,0,41.58,323.799,1943911
-0.0176392,0.000244141,1.017150.183105,-0.793457,11.0474,0.013,-0.01,-97.38,-0.0257416,-0.197952,0,0,0,0,0,41.58,323.828,1943941
-0.0146484,0.00628662,1.01202-0.12207,-0.549316,11.4136,0.006,-0.008,-97.54,-0.0257416,-0.197952,0,0,0,0,0,41.58,323.838,1943956
-0.00286865,0.00158691,1.01874-0.366211,-0.854492,11.1084,0.01,0.003,-97.71,-0.0257416,-0.197952,0,0,0,0,0,41.58,323.86,1943971
-0.0109863,0.0263672,1.01404-0.915527,-0.732422,9.64355,-0.013,-0.008,-97.86,-0.0257416,-0.197952,0,0,0,0,0,41.58,323.878,1943986
-0.0123291,0.0436401,1.024661.52588,-0.183105,2.0752,-0.029,-0.011,-98.04,-0.0259399,-0.198013,0,0,0,0,0,41.58,323.898,1944016
0.000549316,-0.000305176,1.019711.64795,-0.549316,-0.366211,0.013,0.007,-98.04,-0.0260773,-0.198059,0,0,0,0,0,41.58,323.918,1944031
0.00854492,0.0257568,0.9926760.915527,-0.12207,-2.99072,-0.013,0.011,-98.01,-0.0260773,-0.198059,0,0,0,0,0,41.58,323.938,1944046
-0.000427246,0.00134277,1.036381.52588,0.244141,-2.74658,0.013,0.006,-97.9,-0.0260773,-0.198059,0,0,0,0,0,41.58,323.959,1944076
-0.0116577,0.0171509,1.006161.28174,0.610352,-2.50244,-0.001,-0.007,-97.87,-0.0260773,-0.198059,0,0,0,0,0,41.58,323.978,1944091
-0.0235596,0.0188599,0.9975591.52588,0.488281,-1.95312,0,-0.019,-97.84,-0.0260773,-0.198059,0,0,0,0,0,41.58,323.999,1944106
-0.0212402,0.0163574,1.025091.89209,0.305176,-0.732422,0.002,-0.015,-97.81,-0.0260773,-0.198059,0,0,0,0,0,41.58,324.019,1944136
-0.0197754,0.0145264,0.996461.70898,-0.0610352,0.183105,0.004,-0.013,-97.81,-0.0260773,-0.198059,0,0,0,0,0,41.58,324.038,1944151
-0.0216675,0.0128174,1.003852.13623,-0.183105,0.610352,0.006,-0.015,-97.82,-0.0260773,-0.198059,0,0,0,0,0,41.58,324.058,1944167
-0.0125732,0.0170288,1.016111.58691,-0.549316,0.976562,0.002,-0.006,-97.84,-0.0260773,-0.198059,0,0,0,0,0,41.59,324.08,1944196
-0.0122681,0.0298462,1.003421.83105,-0.610352,1.2207,-0.01,-0.007,-97.86,-0.0260773,-0.198059,0,0,0,0,0,41.59,324.1,1944211
-0.00323486,0.022522,1.012942.31934,-0.244141,0.976562,-0.003,0.002,-97.87,-0.0260773,-0.198059,0,0,0,0,0,41.59,324.12,1944226
0.000671387,0.0194702,1.006472.31934,0,-0.183105,0,0.006,-97.89,-0.0260773,-0.198059,0,0,0,0,0,41.59,324.138,1944256
-0.00506592,0.0321045,1.007752.68555,0.12207,-0.854492,-0.01,-0.001,-97.88,-0.0260773,-0.198059,0,0,0,0,0,41.59,324.159,1944271
-0.00921631,0.0189209,1.015563.05176,0.366211,-0.793457,0.004,-0.002,-97.86,-0.0260773,-0.198059,0,0,0,0,0,41.59,324.187,1944301
-0.0145264,0.0195312,1.002933.35693,0.366211,-0.427246,0.005,-0.008,-97.85,-0.0260773,-0.198059,0,0,0,0,0,41.59,324.198,1944316
-0.0164795,0.0252075,1.018073.479,0.244141,-0.244141,0.001,-0.01,-97.84,-0.0260773,-0.198059,0,0,0,0,0,41.59,324.219,1944331
-0.0168457,0.0229492,1.019593.479,-0.0610352,0,0.004,-0.01,-97.84,-0.0260773,-0.198059,0,0,0,0,0,41.59,324.238,1944347
-0.0180054,0.0310059,1.011053.90625,-0.183105,0.427246,-0.001,-0.012,-97.85,-0.0260773,-0.198059,0,0,0,0,0,41.59,324.258,1944376
-0.0216675,0.0539551,1.027833.66211,-0.305176,0.366211,-0.022,-0.018,-97.85,-0.0260925,-0.198059,0,0,0,0,0,41.59,324.278,1944391
-0.0114136,0.0248413,0.9908452.31934,-0.183105,0.183105,0.004,-0.004,-97.85,-0.026123,-0.198059,0,0,0,0,0,41.59,324.299,1944407
0.00317383,0.0549927,1.02241.34277,-0.244141,0,-0.024,0.006,-97.86,-0.0262909,-0.198059,0,0,0,0,0,41.59,324.318,1944436
-0.010498,0.012146,0.997192-0.732422,-0.12207,-0.244141,0.019,-0.001,-97.86,-0.0263977,-0.198059,0,0,0,0,0,41.59,324.34,1944451
0.00219727,0.0117798,1.00061-3.41797,0,-0.427246,0.016,0.01,-97.85,-0.0263977,-0.198059,0,0,0,0,0,41.59,324.358,1944467
0.00244141,0.0718384,1.06744-4.45557,0.610352,-1.52588,-0.043,0.003,-97.83,-0.0264282,-0.198059,0,0,0,0,0,41.59,324.378,1944496
-0.0150757,0.0286255,1.03656-2.38037,0.244141,-0.854492,0,-0.008,-97.81,-0.0264893,-0.198059,0,0,0,0,0,41.59,324.399,1944511
-0.0179443,-0.0101318,0.974548-2.92969,0.427246,-2.19727,0.036,-0.006,-97.79,-0.026535,-0.198059,0,0,0,0,0,41.59,324.418,1944527
-0.00994873,0.015625,1.05981-4.94385,0.0610352,-3.05176,0.009,0,-97.7,-0.0265198,-0.198059,0,0,0,0,0,41.59,324.438,1944556
-0.0188599,0.0402832,1.01947-5.24902,0.305176,-3.66211,-0.015,-0.013,-97.64,-0.0265198,-0.198059,0,0,0,0,0,41.59,324.458,1944571
-0.0100708,0.0413818,0.983765-3.78418,0,-3.11279,-0.019,-0.005,-97.6,-0.0265198,-0.198059,0,0,0,0,0,41.59,324.478,1944587
-0.0149536,0.0230713,1.03705-3.60107,0.0610352,-3.54004,-0.002,-0.007,-97.51,-0.0265198,-0.198059,0,0,0,0,0,41.59,324.498,1944616
-0.012085,-0.000854492,0.996826-4.21143,-0.244141,-3.54004,0.019,-0.001,-97.44,-0.0265198,-0.198059,0,0,0,0,0,41.59,324.519,1944631
-0.0264893,-0.0900269,0.997131-6.46973,0,-3.2959,0.108,-0.004,-97.39,-0.0264282,-0.198059,0,0,0,0,0,41.59,324.538,1944647
-0.0369873,0.126953,0.973145-6.7749,0.488281,-0.0610352,-0.111,-0.043,-97.36,-0.0261993,-0.19809,0,0,0,0,0,41.59,324.558,1944676
0.0770264,-0.0090332,0.976501-3.66211,-0.854492,1.0376,0.008,0.086,-97.38,-0.0261993,-0.19809,0,0,0,0,0,41.59,324.58,1944691
-0.0531616,-0.112122,0.99762-1.28174,-0.488281,2.62451,0.126,-0.029,-97.41,-0.0260925,-0.198044,0,0,0,0,0,41.59,324.598,1944707
0.00939941,-0.00354004,1.005621.83105,-0.12207,0.793457,0.009,0.018,-97.47,-0.0256042,-0.197983,0,0,0,0,0,41.59,324.619,1944736
-0.0388184,-0.0703735,1.001282.92969,0.0610352,-0.244141,0.082,-0.02,-97.47,-0.0252686,-0.197952,0,0,0,0,0,41.59,324.638,1944751
-0.00708008,-0.0614014,1.026251.95312,0.12207,-1.95312,0.069,0.01,-97.45,-0.024826,-0.197922,0,0,0,0,0,41.59,324.658,1944767
-0.0258789,0.00286865,1.001280.610352,-0.0610352,-2.86865,0.007,-0.016,-97.37,-0.024353,-0.197891,0,0,0,0,0,41.59,324.678,1944796
0.00531006,-0.0204468,1.008361.52588,-0.244141,-3.2959,0.027,0.017,-97.33,-0.0243378,-0.197891,0,0,0,0,0,41.59,324.698,1944811
-0.0257568,-0.0517578,0.991211-1.40381,-0.183105,-2.68555,0.061,-0.009,-97.27,-0.0242462,-0.197891,0,0,0,0,0,41.59,324.718,1944827
-0.034668,-0.00878906,1.019230.0610352,0.305176,-1.77002,0.019,-0.023,-97.22,-0.0241852,-0.197906,0,0,0,0,0,41.59,324.738,1944857
0.0088501,-0.0188599,1.033811.52588,0.0610352,-1.52588,0.024,0.02,-97.19,-0.0241394,-0.197937,0,0,0,0,0,41.59,324.759,1944872
-0.00134277,-0.0380249,0.9969480.0610352,-0.732422,-0.244141,0.044,0.012,-97.18,-0.0240631,-0.197937,0,0,0,0,0,41.59,324.778,1944887
0.00604248,0.0560913,0.966248-0.0610352,0,-2.01416,-0.05,0.008,-97.13,-0.0240173,-0.197968,0,0,0,0,0,41.59,324.799,1944917
-0.0088501,-0.0687256,1.04481.2207,-0.732422,-1.83105,0.075,0.009,-97.1,-0.0240173,-0.197968,0,0,0,0,0,41.59,324.818,1944932
0.00177002,-0.130371,1.04272-2.0752,0.366211,-1.40381,0.133,0.027,-97.08,-0.02388,-0.197952,0,0,0,0,0,41.59,324.841,1944947
-0.0413818,0.0269775,0.979126-0.12207,-0.0610352,-0.0610352,-0.018,-0.035,-97.06,-0.0236511,-0.197861,0,0,0,0,0,41.59,324.858,1944977
0.00219727,-0.0546875,1.010012.62451,-0.12207,-1.09863,0.057,0.018,-97.05,-0.0236206,-0.19783,0,0,0,0,0,41.59,324.879,1944992
-0.0199585,-0.0990601,1.085750.610352,-0.12207,-0.915527,0.104,0.002,-97.03,-0.0234833,-0.197784,0,0,0,0,0,41.59,324.899,1945007
-0.0288086,0.00158691,0.994324-0.183105,0.610352,-3.05176,0.004,-0.019,-96.98,-0.0231934,-0.197784,0,0,0,0,0,41.59,324.919,1945037
0.0227051,0.0455933,0.9852910.793457,0.549316,-3.41797,-0.044,0.026,-96.93,-0.0230865,-0.197769,0,0,0,0,0,41.59,324.938,1945052
-0.0262451,0.0403442,0.989563-0.854492,1.28174,-3.84521,-0.033,-0.021,-96.87,-0.0230255,-0.197769,0,0,0,0,0,41.59,324.958,1945067
0.0128174,0.0327148,0.939331-0.12207,0.305176,-6.04248,-0.03,0.018,-96.71,-0.0230255,-0.197861,0,0,0,0,0,41.59,324.978,1945097
0.00598145,-0.019165,0.9956050.305176,0.305176,-5.7373,0.022,0.018,-96.62,-0.0230255,-0.197891,0,0,0,0,0,41.59,324.998,1945112
-0.00402832,0.0115967,0.997192-5.31006,0.183105,-4.69971,-0.01,0.005,-96.47,-0.0226135,-0.197983,0,0,0,0,0,41.59,325.021,1945142
0.00457764,0.00213623,0.934204-1.64795,0,-4.15039,-0.002,0.014,-96.4,-0.0223541,-0.198029,0,0,0,0,0,41.59,325.038,1945157
-0.0587158,-0.0144653,1.048032.38037,-0.0610352,-2.68555,0.021,-0.045,-96.35,-0.0220642,-0.19809,0,0,0,0,0,41.59,325.058,1945172
0.0130005,-0.0980225,1.02393-0.671387,-0.549316,-0.671387,0.095,0.034,-96.33,-0.0217133,-0.198151,0,0,0,0,0,41.59,325.078,1945187
-0.0441895,0.052124,0.9440312.0752,-0.12207,0.549316,-0.046,-0.039,-96.32,-0.0207672,-0.198257,0,0,0,0,0,41.59,325.099,1945217
-0.0317993,-0.0585938,1.097665.00488,-0.549316,-1.52588,0.062,-0.013,-96.3,-0.0202942,-0.198364,0,0,0,0,0,41.59,325.118,1945232
-0.0130615,-0.0864868,1.0166-1.09863,0.244141,-1.95312,0.088,0.007,-96.27,-0.0196991,-0.198456,0,0,0,0,0,41.59,325.14,1945247
-0.0914307,-0.0640259,1.01862-5.61523,1.0376,-2.01416,0.071,-0.073,-96.2,-0.0183105,-0.198578,0,0,0,0,0,41.59,325.158,1945277
-0.0300903,0.0429077,1.05457-0.549316,-0.793457,-1.34277,-0.041,-0.024,-96.18,-0.0175629,-0.1987,0,0,0,0,0,41.59,325.178,1945292
-0.00964355,-0.0582275,1.117982.74658,-0.732422,-1.40381,0.056,0.007,-96.15,-0.0168152,-0.198822,0,0,0,0,0,41.59,325.2,1945307
-0.0494995,-0.00238037,0.995605-0.488281,-0.244141,-1.15967,0.005,-0.039,-96.13,-0.0160065,-0.199142,0,0,0,0,0,41.59,325.219,1945337
-0.0626831,0.0675049,1.07172-1.58691,0.610352,-1.34277,-0.063,-0.058,-96.11,-0.0160522,-0.199371,0,0,0,0,0,41.59,325.238,1945352
-0.0148315,-0.0435791,0.969177-1.52588,-0.854492,-1.89209,0.042,0,-96.09,-0.016098,-0.199646,0,0,0,0,0,41.59,325.258,1945367
0.0164185,0.0678101,1.02417-4.21143,0.549316,-0.671387,-0.072,0.019,-96.03,-0.0160522,-0.199646,0,0,0,0,0,41.59,325.278,1945397
-0.0670776,-0.0670166,1.014891.2207,-0.366211,-3.84521,0.069,-0.05,-95.99,-0.016037,-0.199677,0,0,0,0,0,41.59,325.298,1945412
0.0533447,-0.0170288,0.961853-1.15967,-0.549316,-2.01416,0.007,0.064,-95.92,-0.0161133,-0.199829,0,0,0,0,0,41.59,325.322,1945442
0.0328979,0.0378418,0.9750980.244141,-1.2207,-4.21143,-0.045,0.038,-95.86,-0.0162201,-0.199814,0,0,0,0,0,41.59,325.338,1945457
-0.0375366,-0.0258179,1.03485-1.15967,-0.366211,-0.793457,0.024,-0.024,-95.84,-0.0163269,-0.199814,0,0,0,0,0,41.59,325.359,1945472
0.0543823,-0.0131226,1.02173-0.976562,-0.976562,-1.58691,0.002,0.065,-95.83,-0.0164185,-0.199768,0,0,0,0,0,41.59,325.378,1945487
-0.0661011,0.0368652,1.0481-1.09863,-0.732422,-2.38037,-0.035,-0.059,-95.79,-0.0165405,-0.199738,0,0,0,0,0,41.59,325.398,1945502
0.0128174,0.0551147,1.02625-0.244141,-2.2583,-2.74658,-0.062,0.016,-95.76,-0.0165863,-0.199707,0,0,0,0,0,41.59,325.418,1945532
0.0825195,0.150818,1.03546-2.86865,-1.95312,-0.0610352,-0.165,0.076,-95.74,-0.0167542,-0.199615,0,0,0,0,0,41.59,325.438,1945547
-0.0643311,-0.0333862,1.11877-2.01416,-0.305176,-1.28174,0.031,-0.05,-95.71,-0.017334,-0.199356,0,0,0,0,0,41.59,325.465,1945577
0.0870361,0.0819702,0.911072-2.86865,-1.58691,0.549316,-0.097,0.086,-95.72,-0.0176544,-0.199203,0,0,0,0,0,41.59,325.478,1945592
-0.0787354,-0.0198364,0.983093-1.2207,1.34277,-2.2583,0.019,-0.068,-95.69,-0.0180511,-0.199051,0,0,0,0,0,41.59,325.5,1945607
-0.0200806,0.13501,0.9961552.92969,0.732422,-1.46484,-0.14,-0.024,-95.67,-0.0186768,-0.198853,0,0,0,0,0,41.59,325.521,1945637
-0.0380859,-0.00256348,0.977417-1.0376,0.183105,-1.52588,0,-0.029,-95.65,-0.019104,-0.198792,0,0,0,0,0,41.59,325.538,1945652
0.00610352,0.00689697,0.978211.09863,0.244141,-0.305176,-0.014,0.013,-95.64,-0.019104,-0.198746,0,0,0,0,0,41.59,325.558,1945667
0.00164795,0.020752,1.06189-1.89209,-1.09863,0.366211,-0.029,0.008,-95.61,-0.0190887,-0.198746,0,0,0,0,0,41.59,325.578,1945697
0.00408936,0.0112915,0.930908-2.38037,-0.0610352,-0.793457,-0.018,0.01,-95.61,-0.019104,-0.198746,0,0,0,0,0,41.59,325.604,1945712
-0.0779419,-0.0130615,1.04944-2.86865,-0.549316,-1.70898,0.011,-0.067,-95.58,-0.019104,-0.198776,0,0,0,0,0,41.59,325.618,1945728
-0.00543213,-0.00799561,1.10309-3.72314,-0.488281,-2.86865,-0.002,0.004,-95.55,-0.019165,-0.198929,0,0,0,0,0,41.59,325.638,1945757
-0.0892334,0.00488281,0.971436-4.15039,0.610352,-0.732422,-0.006,-0.081,-95.52,-0.0192261,-0.199036,0,0,0,0,0,41.59,325.658,1945772
0.0420532,-0.00177002,1.00946-2.13623,-0.488281,-1.09863,-0.014,0.05,-95.51,-0.0192261,-0.199173,0,0,0,0,0,41.59,325.678,1945788
0.0288086,0.0166626,0.961304-1.28174,-0.244141,0.732422,-0.031,0.034,-95.49,-0.019455,-0.199478,0,0,0,0,0,41.59,325.698,1945817
-0.0475464,-0.0831299,1.132510,0.854492,-2.0752,0.073,-0.03,-95.47,-0.0195923,-0.199631,0,0,0,0,0,41.59,325.718,1945832
-0.00775146,-0.156311,1.0127-2.13623,-0.793457,1.15967,0.143,0.014,-95.46,-0.019577,-0.199783,0,0,0,0,0,41.59,325.738,1945848
-0.0866699,-0.0895996,1.08075-0.244141,-0.488281,-0.366211,0.083,-0.07,-95.47,-0.0192108,-0.200089,0,0,0,0,0,41.59,325.758,1945877
0.05896,0.0559082,0.996338-1.83105,-1.2207,1.64795,-0.074,0.06,-95.48,-0.0189972,-0.200272,0,0,0,0,0,41.59,325.778,1945892
0.000305176,0.101746,0.979858-0.854492,-2.56348,-1.52588,-0.114,-0.002,-95.47,-0.0189056,-0.200394,0,0,0,0,0,41.59,325.798,1945908
0.0495605,-0.00683594,1.0437-1.83105,-1.09863,-1.52588,-0.012,0.056,-95.44,-0.019104,-0.200668,0,0,0,0,0,41.59,325.821,1945937
-0.0394897,-0.113953,1.16284-0.427246,-0.366211,-3.60107,0.101,-0.021,-95.39,-0.0191803,-0.200775,0,0,0,0,0,41.59,325.84,1945952
0.0428467,-0.190918,1.03809-0.732422,0.183105,0.366211,0.172,0.066,-95.38,-0.0190887,-0.200836,0,0,0,0,0,41.59,325.858,1945968
0.0185547,0.09198,1.01837-0.854492,-1.46484,-1.58691,-0.107,0.015,-95.31,-0.0187225,-0.200943,0,0,0,0,0,41.59,325.878,1945997
-0.0462646,0.0681152,0.978333-0.671387,0.915527,-1.64795,-0.077,-0.047,-95.29,-0.018692,-0.201019,0,0,0,0,0,41.59,325.898,1946012
-0.0291748,0.0322876,1.00806-1.15967,-0.366211,-3.479,-0.043,-0.026,-95.25,-0.0187531,-0.201141,0,0,0,0,0,41.59,325.919,1946028
-0.0155029,0.0181274,0.920959-2.38037,-0.366211,-2.68555,-0.029,-0.012,-95.19,-0.0188904,-0.201309,0,0,0,0,0,41.59,325.938,1946057
0.00231934,-0.0253296,0.991333-1.2207,-1.58691,-2.2583,0.01,0.01,-95.14,-0.0189819,-0.20137,0,0,0,0,0,41.59,325.959,1946072
-0.0375366,-0.0291748,1.0177-0.244141,1.83105,-1.64795,0.017,-0.029,-95.12,-0.019043,-0.201462,0,0,0,0,0,41.59,325.979,1946088
0.0935059,0.0460815,0.931519-1.70898,-1.0376,0,-0.068,0.094,-95.07,-0.0192566,-0.201675,0,0,0,0,0,41.59,325.998,1946117
-0.0477295,-0.0716553,0.957214-1.2207,-0.244141,-1.77002,0.06,-0.036,-95.06,-0.0194092,-0.201736,0,0,0,0,0,41.59,326.019,1946132
-0.0197144,-0.0845947,1.03619-0.244141,-0.488281,-0.854492,0.069,-0.006,-95.03,-0.0194702,-0.201813,0,0,0,0,0,41.59,326.038,1946148
-0.0222778,-0.130554,1.04968-1.2207,0.427246,-2.01416,0.114,-0.005,-95,-0.0194244,-0.202072,0,0,0,0,0,41.59,326.059,1946177
0.0578003,-0.151978,1.08643-1.15967,0.976562,0,0.128,0.076,-94.98,-0.0191956,-0.202179,0,0,0,0,0,41.59,326.079,1946193
-0.00360107,-0.100037,0.920349-3.90625,-0.671387,-0.549316,0.083,0.009,-94.97,-0.0188293,-0.202209,0,0,0,0,0,41.59,326.098,1946208
-0.00305176,0.0979004,1.040591.40381,1.09863,-0.366211,-0.116,-0.005,-94.96,-0.0179749,-0.20224,0,0,0,0,0,41.59,326.122,1946238
-0.0614014,-0.145203,1.06793-0.305176,-0.12207,-1.89209,0.13,-0.042,-94.94,-0.0175629,-0.202271,0,0,0,0,0,41.59,326.141,1946253
0.0403442,-0.083374,0.93219-2.44141,0.732422,0.183105,0.061,0.052,-94.93,-0.0170135,-0.202301,0,0,0,0,0,41.59,326.158,1946268
-0.00524902,-0.0852661,1.10992-0.732422,2.44141,-0.244141,0.062,0.009,-94.89,-0.0159454,-0.202316,0,0,0,0,0,41.59,326.178,1946298
-0.100403,-0.103088,0.9967651.0376,2.19727,-2.80762,0.091,-0.084,-94.87,-0.0153046,-0.202393,0,0,0,0,0,41.59,326.198,1946313
0.0836792,-0.0343628,1.051761.64795,0.915527,-0.976562,0.006,0.093,-94.84,-0.0145874,-0.202454,0,0,0,0,0,41.59,326.219,1946328
0.010376,-0.0488281,1.032291.09863,0.427246,-0.610352,0.028,0.022,-94.8,-0.0128632,-0.202591,0,0,0,0,0,41.59,326.238,1946358
0.017395,0.133972,0.9628910.427246,-0.793457,-1.09863,-0.153,0.013,-94.79,-0.0120392,-0.202652,0,0,0,0,0,41.59,326.258,1946373
-0.0527344,-0.00805664,1.0058-0.183105,0.0610352,-2.01416,-0.006,-0.044,-94.76,-0.011322,-0.202728,0,0,0,0,0,41.59,326.278,1946388
0.00610352,0.0269165,0.968141.46484,-0.183105,-1.64795,-0.045,0.011,-94.72,-0.0101624,-0.203018,0,0,0,0,0,41.59,326.299,1946418
0.0641479,0.0706787,0.976013-0.488281,-1.34277,-0.915527,-0.093,0.066,-94.7,-0.00973511,-0.203125,0,0,0,0,0,41.59,326.32,1946433
-0.0585938,-0.0547485,0.9830931.34277,-0.305176,-0.244141,0.041,-0.045,-94.69,-0.00935364,-0.203217,0,0,0,0,0,41.59,326.339,1946448
0.0168457,-0.0609131,1.007080.366211,0.244141,-1.15967,0.041,0.03,-94.68,-0.00848389,-0.203415,0,0,0,0,0,41.59,326.358,1946478
0.0241699,-0.0736084,1.087590.0610352,1.70898,-0.488281,0.052,0.039,-94.68,-0.00796509,-0.203445,0,0,0,0,0,41.59,326.379,1946493
0.022644,0.0888672,0.9556881.34277,-0.305176,-1.09863,-0.106,0.023,-94.65,-0.00749207,-0.20343,0,0,0,0,0,41.59,326.399,1946508
0.0020752,0.000305176,1.019290.12207,0.549316,-1.46484,-0.016,0.011,-94.63,-0.00660706,-0.203354,0,0,0,0,0,41.59,326.421,1946538
0.0421143,0.34436,0.890808-0.0610352,-1.0376,0.854492,-0.361,0.022,-94.63,-0.00640869,-0.203293,0,0,0,0,0,41.59,326.44,1946553
0.0509644,0.125,1.06134-0.305176,-1.58691,-2.2583,-0.145,0.05,-94.62,-0.00656128,-0.203171,0,0,0,0,0,41.59,326.459,1946568
-0.00439453,0.0570068,0.972290.549316,-0.976562,0.488281,-0.07,0,-94.62,-0.0070343,-0.202942,0,0,0,0,0,41.59,326.481,1946598
-0.0454102,-0.146912,0.9938962.01416,-0.12207,0.183105,0.136,-0.023,-94.62,-0.00724792,-0.20285,0,0,0,0,0,41.59,326.498,1946613
-0.078064,-0.0552368,0.965211.40381,0.976562,-0.549316,0.048,-0.063,-94.61,-0.00732422,-0.20282,0,0,0,0,0,41.59,326.526,1946643
-0.0126953,0.0664673,1.003422.13623,-1.2207,-2.68555,-0.078,-0.007,-94.58,-0.00733948,-0.202896,0,0,0,0,0,41.59,326.545,1946658
0.0205688,-0.13678,1.0116-0.305176,-1.40381,-1.77002,0.122,0.041,-94.55,-0.00732422,-0.202942,0,0,0,0,0,41.59,326.56,1946673
-0.0725708,0.11145,1.033141.09863,-0.305176,-1.28174,-0.118,-0.071,-94.53,-0.00730896,-0.203018,0,0,0,0,0,41.59,326.58,1946688
0.0525513,0.138367,1.048030,-1.89209,-1.09863,-0.154,0.052,-94.51,-0.00747681,-0.203094,0,0,0,0,0,41.59,326.597,1946703
-0.0253906,-0.125793,0.976868-1.83105,-1.34277,-2.44141,0.115,-0.006,-94.46,-0.00802612,-0.203186,0,0,0,0,0,41.59,326.618,1946733
0.0218506,-0.0303955,0.991211-3.05176,-1.40381,-2.68555,0.015,0.033,-94.42,-0.00819397,-0.203201,0,0,0,0,0,41.55,326.64,1946748
-0.0155029,-0.125916,1.04071-0.366211,-0.0610352,-2.44141,0.111,0.003,-94.38,-0.00827026,-0.203201,0,0,0,0,0,41.55,326.658,1946778
0.0183105,0.098877,0.9820563.72314,-0.183105,-1.09863,-0.114,0.019,-94.35,-0.0080719,-0.203293,0,0,0,0,0,41.55,326.678,1946793
-0.0414429,-0.0454102,1.024172.86865,0.0610352,-0.854492,0.034,-0.028,-94.35,-0.00802612,-0.203354,0,0,0,0,0,41.55,326.698,1946808
0.024353,0.0374146,1.04022-0.427246,-0.610352,-1.2207,-0.052,0.031,-94.3,-0.00790405,-0.203552,0,0,0,0,0,41.55,326.718,1946838
-0.0311279,-0.0109863,1.02618-0.732422,0.610352,-2.01416,0,-0.02,-94.27,-0.00790405,-0.203659,0,0,0,0,0,41.55,326.742,1946853
-0.0234985,-0.0708618,0.993286-1.58691,0.549316,-3.11279,0.058,-0.008,-94.23,-0.00787354,-0.203766,0,0,0,0,0,41.55,326.758,1946868
-0.0591431,-0.149536,1.06581.46484,1.28174,-2.50244,0.139,-0.037,-94.16,-0.00764465,-0.203918,0,0,0,0,0,41.55,326.779,1946898
0.0334473,0.179199,1.017152.56348,-0.244141,-1.34277,-0.193,0.03,-94.12,-0.00752258,-0.203979,0,0,0,0,0,41.55,326.798,1946913
-0.0378418,0.0532837,1.016782.56348,0.183105,-1.15967,-0.062,-0.031,-94.1,-0.00756836,-0.204041,0,0,0,0,0,41.55,326.818,1946928
0.0286865,-0.0376587,1.03387-0.915527,0.244141,-1.89209,0.024,0.041,-94.06,-0.00787354,-0.204269,0,0,0,0,0,41.55,326.838,1946958
-0.0324097,0.114868,0.987854-0.915527,1.0376,-3.41797,-0.123,-0.029,-94.01,-0.00808716,-0.204376,0,0,0,0,0,41.55,326.858,1946973
0.00726318,-0.105591,1.02228-3.05176,0.671387,-3.479,0.093,0.025,-93.96,-0.0083313,-0.204468,0,0,0,0,0,41.55,326.881,1946988
-0.0136108,0.0172729,0.894958-2.86865,0.366211,-2.80762,-0.026,-0.005,-93.91,-0.00852966,-0.204559,0,0,0,0,0,41.55,326.898,1947003
0.00695801,0.0908813,0.931274-1.2207,0.488281,-2.19727,-0.102,0.011,-93.84,-0.00927734,-0.204681,0,0,0,0,0,41.55,326.918,1947033
-0.00958252,-0.000305176,0.9968261.09863,0.12207,-1.58691,-0.011,0.002,-93.81,-0.00979614,-0.204712,0,0,0,0,0,41.55,326.938,1947049
-0.130249,-0.174988,1.096681.64795,2.44141,-1.09863,0.17,-0.104,-93.79,-0.00968933,-0.204773,0,0,0,0,0,41.55,326.96,1947078
0.0413208,0.0799561,1.03815-0.12207,0.366211,0.793457,-0.094,0.049,-93.79,-0.00952148,-0.204865,0,0,0,0,0,41.55,326.979,1947093
-0.0465698,0.107544,0.9512940.427246,0.366211,-0.488281,-0.115,-0.041,-93.79,-0.00950623,-0.204956,0,0,0,0,0,41.55,326.998,1947109
-0.0320435,-0.00378418,0.952209-0.549316,-0.610352,-1.34277,-0.005,-0.019,-93.76,-0.00953674,-0.2052,0,0,0,0,0,41.55,327.018,1947138
0.0197144,-0.0778809,1.02368-0.854492,-0.549316,-1.64795,0.064,0.037,-93.74,-0.00950623,-0.205322,0,0,0,0,0,41.55,327.038,1947153
0.00177002,0.00744629,1.06757-0.244141,0.488281,-0.732422,-0.019,0.014,-93.72,-0.00944519,-0.205399,0,0,0,0,0,41.55,327.058,1947169
0.0421753,-0.306763,1.05365-1.2207,0.732422,-0.732422,0.291,0.075,-93.67,-0.00900269,-0.205536,0,0,0,0,0,41.55,327.079,1947198
-0.0874023,-0.088562,1.03186-0.732422,1.70898,-0.854492,0.08,-0.068,-93.66,-0.00839233,-0.205582,0,0,0,0,0,41.55,327.101,1947213
-0.0213623,0.0827637,0.975342-0.305176,-0.305176,1.09863,-0.094,-0.014,-93.66,-0.00779724,-0.205688,0,0,0,0,0,41.55,327.118,1947229
-0.103577,-0.189819,1.10512.0752,0.915527,1.46484,0.181,-0.076,-93.7,-0.00668335,-0.205917,0,0,0,0,0,41.55,327.139,1947258
-0.00720215,-0.109985,1.021362.68555,0.610352,1.40381,0.096,0.013,-93.71,-0.00587463,-0.206085,0,0,0,0,0,41.55,327.159,1947273
0.00512695,-0.0178223,1.079220.976562,-1.09863,0.610352,0.002,0.02,-93.73,-0.00500488,-0.206238,0,0,0,0,0,41.55,327.178,1947289
0.0558472,0.182922,1.021611.58691,-1.83105,-0.549316,-0.199,0.056,-93.73,-0.0035553,-0.206711,0,0,0,0,0,41.55,327.199,1947318
0.00109863,0.038147,0.952271-0.488281,-3.479,-1.52588,-0.05,0.01,-93.71,-0.00308228,-0.206924,0,0,0,0,0,41.55,327.219,1947333
-0.0169678,0.00994873,0.9659420.305176,-2.01416,-2.56348,-0.02,-0.006,-93.69,-0.00267029,-0.207138,0,0,0,0,0,41.55,327.238,1947349
0.0217896,0.0999146,0.95636-0.0610352,-1.58691,-2.31934,-0.112,0.026,-93.65,-0.00234985,-0.207321,0,0,0,0,0,41.55,327.258,1947363
0.000671387,0.0906982,0.930908-1.0376,-1.52588,-3.66211,-0.101,0.005,-93.57,-0.00228882,-0.207581,0,0,0,0,0,41.55,327.279,1947393
0.0267944,-0.0656128,1.00781-0.427246,-1.09863,-3.60107,0.052,0.042,-93.5,-0.00239563,-0.207657,0,0,0,0,0,41.55,327.298,1947409
-0.0272827,-0.110596,1.06927-0.976562,0.671387,-3.66211,0.1,-0.009,-93.46,-0.00238037,-0.207718,0,0,0,0,0,41.55,327.318,1947423
-0.00994873,0.0807495,1.00806-0.671387,-1.15967,-3.11279,-0.091,-0.004,-93.37,-0.00248718,-0.207794,0,0,0,0,0,41.55,327.338,1947453
-0.0136719,-0.141052,1.06689-0.12207,0.915527,-2.86865,0.129,0.006,-93.34,-0.00256348,-0.207825,0,0,0,0,0,41.55,327.358,1947469
0.0325928,-0.256531,1.08081-0.976562,1.34277,-2.80762,0.241,0.059,-93.27,-0.00245667,-0.207779,0,0,0,0,0,41.55,327.38,1947498
-0.0803223,0.0286255,0.9862670.976562,0.854492,-1.09863,-0.035,-0.07,-93.23,-0.00219727,-0.207748,0,0,0,0,0,41.55,327.398,1947513
-0.0508423,0.0447998,0.9851681.40381,1.2207,-1.46484,-0.053,-0.041,-93.21,-0.00198364,-0.207794,0,0,0,0,0,41.55,327.418,1947529
-0.0540161,0.0358887,0.962341-0.976562,0.427246,-1.2207,-0.043,-0.044,-93.16,-0.00143433,-0.20784,0,0,0,0,0,41.55,327.438,1947559
-0.0318604,-0.0396729,1.09229-0.366211,0.732422,-2.68555,0.029,-0.016,-93.12,-0.00114441,-0.207901,0,0,0,0,0,41.55,327.459,1947574
-0.0268555,0.0354004,0.9229740.0610352,1.09863,-3.05176,-0.043,-0.017,-93.08,-0.000854492,-0.207993,0,0,0,0,0,41.55,327.479,1947589
-0.115417,-0.216003,1.10217-0.305176,3.41797,-2.31934,0.21,-0.089,-92.99,-0.00012207,-0.208191,0,0,0,0,0,41.55,327.499,1947619
0.0477905,0.159668,0.969421-0.0610352,0.793457,-1.83105,-0.172,0.052,-92.97,0.000335693,-0.208328,0,0,0,0,0,41.55,327.519,1947634
-0.0308838,0.123779,1.036191.89209,1.34277,-3.2959,-0.133,-0.022,-92.91,0.000610352,-0.20845,0,0,0,0,0,41.55,327.538,1947649
-0.0332031,-0.155701,1.069820.488281,1.89209,-0.183105,0.146,-0.01,-92.92,0.00088501,-0.208603,0,0,0,0,0,41.55,327.558,1947664
-0.0568848,0.0292358,0.978516-1.15967,-0.366211,-1.15967,-0.036,-0.043,-92.89,0.00144958,-0.208862,0,0,0,0,0,41.55,327.581,1947694
-0.0241699,0.00537109,0.9942020.488281,0.12207,0,-0.014,-0.009,-92.9,0.00164795,-0.20903,0,0,0,0,0,41.55,327.599,1947709
-0.0563354,-0.0703735,0.9937740.427246,1.34277,-0.427246,0.062,-0.037,-92.89,0.00189209,-0.209213,0,0,0,0,0,41.55,327.618,1947724
0.0256958,0.227722,0.905762-0.305176,-0.915527,-0.427246,-0.239,0.028,-92.86,0.00230408,-0.209564,0,0,0,0,0,41.55,327.64,1947754
0.0580444,0.0726929,1.100160.305176,-1.64795,-1.2207,-0.087,0.071,-92.85,0.00221252,-0.209641,0,0,0,0,0,41.56,327.658,1947769
0.0368042,0.0758667,1.02240.854492,0.366211,-0.671387,-0.087,0.048,-92.82,0.00210571,-0.209656,0,0,0,0,0,41.56,327.679,1947799
-0.0189819,-0.0757446,1.01489-2.62451,0.183105,-0.793457,0.066,0,-92.8,0.00205994,-0.20961,0,0,0,0,0,41.56,327.7,1947814
0.00860596,0.0529785,1.01355-2.86865,-0.976562,-1.2207,-0.063,0.021,-92.79,0.00201416,-0.209549,0,0,0,0,0,41.56,327.718,1947829
-0.043457,-0.174927,0.985291-2.92969,1.2207,-0.793457,0.165,-0.019,-92.77,0.00183105,-0.209473,0,0,0,0,0,41.56,327.737,1947859
0.0979004,0.121521,1.06531-4.57764,-1.58691,1.2207,-0.139,0.108,-92.78,0.00180054,-0.209396,0,0,0,0,0,41.56,327.757,1947874
-0.0258179,0.0842896,0.970947-1.70898,-0.976562,0.183105,-0.095,-0.014,-92.77,0.00160217,-0.209259,0,0,0,0,0,41.56,327.778,1947889
-0.0117188,-0.124695,1.06427-1.70898,-0.976562,0.427246,0.111,0.01,-92.77,0.00128174,-0.209106,0,0,0,0,0,41.56,327.797,1947919
-0.0566406,-0.106445,1.03467-2.01416,-0.976562,-0.854492,0.095,-0.035,-92.76,0.00131226,-0.209061,0,0,0,0,0,41.56,327.818,1947934
-0.0645142,-0.0511475,0.9599-1.95312,-1.0376,-2.01416,0.041,-0.047,-92.74,0.00144958,-0.209076,0,0,0,0,0,41.56,327.838,1947949
0.0575562,-0.0610962,1.11835-1.64795,-0.610352,-0.671387,0.042,0.076,-92.73,0.00163269,-0.209061,0,0,0,0,0,41.56,327.858,1947964
-0.0272217,0.114075,0.91095-0.244141,-1.34277,-2.0752,-0.125,-0.02,-92.64,0.00242615,-0.209076,0,0,0,0,0,41.56,327.878,1947994
-0.00787354,-0.0299072,0.954102-0.12207,0,-3.11279,0.015,0.006,-92.6,0.00279236,-0.209122,0,0,0,0,0,41.56,327.897,1948009
-0.0264893,-0.0360718,1.093990.427246,0.671387,-2.0752,0.02,-0.01,-92.57,0.00317383,-0.209167,0,0,0,0,0,41.56,327.918,1948024
-0.107056,-0.0305176,0.988831-0.854492,1.34277,-2.86865,0.02,-0.092,-92.5,0.00386047,-0.209167,0,0,0,0,0,41.56,327.938,1948054
0.00421143,-0.0127563,1.0379-1.77002,0.976562,-1.52588,-0.004,0.018,-92.49,0.00419617,-0.209213,0,0,0,0,0,41.56,327.957,1948069
-0.0495605,0.0120239,0.9666750.244141,0.671387,-1.2207,-0.025,-0.037,-92.44,0.00502014,-0.209412,0,0,0,0,0,41.56,327.978,1948099
0.039978,0.102173,0.934326-0.732422,-0.976562,-0.549316,-0.119,0.048,-92.43,0.00534058,-0.209534,0,0,0,0,0,41.56,328,1948114
-0.024353,-0.0415039,1.023740.427246,-0.366211,-0.854492,0.025,-0.008,-92.41,0.00559998,-0.209625,0,0,0,0,0,41.56,328.018,1948129
-0.053833,-0.00164795,0.994995-0.244141,-0.427246,-2.0752,-0.012,-0.04,-92.4,0.00587463,-0.209747,0,0,0,0,0,41.56,328.038,1948144
-0.0238647,-0.0350952,0.952087-0.427246,0.427246,-2.0752,0.021,-0.009,-92.34,0.00634766,-0.210098,0,0,0,0,0,41.56,328.058,1948174
0.055542,-0.0412598,1.10297-3.35693,-1.58691,-2.74658,0.02,0.072,-92.3,0.00660706,-0.210236,0,0,0,0,0,41.56,328.08,1948189
0.00396729,0.0358276,0.979065-2.38037,1.28174,-1.46484,-0.052,0.015,-92.27,0.0068512,-0.210312,0,0,0,0,0,41.56,328.098,1948204
0.120117,-0.0172729,1.12067-0.244141,-0.488281,-0.366211,-0.006,0.136,-92.23,0.00704956,-0.210526,0,0,0,0,0,41.56,328.118,1948234
-0.0137939,-0.220764,1.10498-0.183105,1.64795,-0.671387,0.202,0.01,-92.21,0.00723267,-0.21051,0,0,0,0,0,41.56,328.141,1948249
0.0171509,-0.0221558,1.145451.34277,0.915527,1.58691,0.001,0.034,-92.23,0.00782776,-0.210663,0,0,0,0,0,41.52,328.166,1948279
-0.152649,-0.0465698,1.001892.50244,2.2583,0.671387,0.035,-0.135,-92.23,0.00814819,-0.210831,0,0,0,0,0,41.52,328.178,1948294
0.0283203,0.162476,0.9888310.12207,-1.2207,-0.305176,-0.18,0.037,-92.23,0.00836182,-0.21106,0,0,0,0,0,41.52,328.198,1948309
-0.00518799,-0.059082,1.008730.427246,0.0610352,-1.46484,0.041,0.012,-92.22,0.00848389,-0.211273,0,0,0,0,0,41.52,328.219,1948324
-0.0577393,-0.0153809,0.9689941.34277,-0.366211,-1.70898,0.001,-0.042,-92.19,0.00894165,-0.211304,0,0,0,0,0,41.52,328.238,1948354
0.00787354,0.0196533,1.002750.305176,0.244141,-0.854492,-0.035,0.022,-92.17,0.00918579,-0.211365,0,0,0,0,0,41.52,328.259,1948370
-0.0926514,0.0874634,1.049870.244141,-0.0610352,-0.671387,-0.1,-0.08,-92.13,0.00967407,-0.211304,0,0,0,0,0,41.52,328.278,1948399
-0.0127563,-0.0592651,0.991150.0610352,0.427246,-1.0376,0.044,0.004,-92.11,0.00987244,-0.211334,0,0,0,0,0,41.52,328.299,1948414
-0.0343628,-0.0957642,0.9683840.793457,0.244141,-0.183105,0.081,-0.016,-92.1,0.0101471,-0.211334,0,0,0,0,0,41.52,328.318,1948430
-0.0585938,-0.0834961,0.975769-0.366211,0.610352,0.793457,0.07,-0.041,-92.11,0.0108032,-0.211517,0,0,0,0,0,41.52,328.338,1948459
-0.013855,0.0283813,0.890931.0376,-2.74658,0.183105,-0.041,-0.002,-92.12,0.0111694,-0.211685,0,0,0,0,0,41.52,328.358,1948474
0.00933838,0.128113,1.012270.0610352,-3.05176,-0.0610352,-0.144,0.019,-92.11,0.0113983,-0.211685,0,0,0,0,0,41.52,328.382,1948490
-0.100098,-0.174866,1.073491.34277,-0.366211,-1.46484,0.162,-0.079,-92.09,0.0119324,-0.211746,0,0,0,0,0,41.52,328.4,1948519
0.0221558,-0.00915527,0.9984741.95312,-1.28174,-1.0376,-0.006,0.035,-92.06,0.0123901,-0.211853,0,0,0,0,0,41.52,328.419,1948534
-0.0111694,0.088623,0.9074712.99072,-0.854492,-3.05176,-0.1,-0.002,-92.03,0.0127716,-0.211929,0,0,0,0,0,41.52,328.438,1948550
0.0394287,-0.0237427,1.147950.244141,0.427246,-3.78418,0.006,0.053,-91.94,0.0132294,-0.21199,0,0,0,0,0,41.52,328.461,1948579
0.0157471,-0.0150757,1.03802-0.610352,-0.183105,-2.92969,0,0.028,-91.89,0.0132294,-0.211945,0,0,0,0,0,41.52,328.478,1948594
0.0158691,-0.000854492,1.008360.732422,0.854492,-3.90625,-0.013,0.027,-91.83,0.0132294,-0.211853,0,0,0,0,0,41.52,328.498,1948610
-0.0988159,-0.0331421,0.9776610.0610352,2.38037,-2.99072,0.023,-0.086,-91.78,0.0132294,-0.211807,0,0,0,0,0,41.52,328.519,1948624
-0.0307617,0.0147705,1.016722.31934,2.38037,-2.19727,-0.027,-0.018,-91.7,0.013031,-0.211853,0,0,0,0,0,41.52,328.538,1948654
-0.0415039,-0.0872192,0.9991460.976562,0.915527,0.183105,0.075,-0.026,-91.69,0.0129242,-0.211914,0,0,0,0,0,41.52,328.558,1948670
-0.0435791,0.145813,0.9588010.244141,-0.366211,-1.58691,-0.157,-0.035,-91.68,0.0127563,-0.212021,0,0,0,0,0,41.52,328.578,1948684
-0.0303955,-0.00531006,0.908936-1.09863,1.15967,-1.34277,-0.005,-0.018,-91.65,0.0124054,-0.212173,0,0,0,0,0,41.52,328.598,1948714
-0.0147095,0.0680542,0.911194-1.09863,-1.2207,-2.13623,-0.08,-0.004,-91.62,0.0121918,-0.212173,0,0,0,0,0,41.52,328.622,1948730
-0.03302,0.0964966,1.08093-0.915527,0.671387,-2.74658,-0.11,-0.021,-91.58,0.0118561,-0.212189,0,0,0,0,0,41.52,328.638,1948744
-0.0328369,-0.123474,1.05615-0.305176,2.19727,-1.64795,0.109,-0.016,-91.51,0.0113678,-0.212189,0,0,0,0,0,41.52,328.668,1948774
-0.0372925,-0.122131,0.987427-0.488281,1.2207,-1.95312,0.11,-0.021,-91.48,0.0113525,-0.212219,0,0,0,0,0,41.52,328.679,1948790
-0.0925903,0.00976562,1.02545-0.183105,1.34277,-1.64795,-0.021,-0.078,-91.43,0.0113678,-0.212296,0,0,0,0,0,41.52,328.702,1948819
0.0216675,-0.0377197,1.07593-1.09863,1.34277,-0.183105,0.021,0.037,-91.42,0.0113678,-0.212372,0,0,0,0,0,41.52,328.718,1948834
-0.0307007,0.0129395,0.934509-0.854492,0,0.244141,-0.025,-0.017,-91.42,0.0113525,-0.212448,0,0,0,0,0,41.52,328.738,1948850
0.00585938,-0.0701904,0.9750370.12207,0.610352,-0.793457,0.055,0.022,-91.43,0.011322,-0.212463,0,0,0,0,0,41.52,328.759,1948879
-0.0275269,-0.0585938,1.01038-0.366211,-1.28174,-0.549316,0.043,-0.011,-91.41,0.0113983,-0.212433,0,0,0,0,0,41.52,328.78,1948895
-0.0918579,-0.093811,1.106751.70898,1.0376,0.183105,0.08,-0.073,-91.41,0.0115509,-0.212463,0,0,0,0,0,41.52,328.799,1948910
-0.0632324,-0.105164,1.00208-0.244141,-0.671387,-1.34277,0.092,-0.046,-91.38,0.0123291,-0.212601,0,0,0,0,0,41.52,328.821,1948940
-0.0714111,-0.150513,1.11151-1.34277,2.0752,0.427246,0.136,-0.052,-91.38,0.0129547,-0.212738,0,0,0,0,0,41.52,328.84,1948955
0.0244751,0.0635376,0.882202-1.58691,-0.915527,-0.915527,-0.076,0.035,-91.37,0.0136108,-0.212891,0,0,0,0,0,41.52,328.858,1948970
-0.0535278,0.131287,1.037350.305176,1.89209,-1.2207,-0.145,-0.041,-91.33,0.0146637,-0.21315,0,0,0,0,0,41.52,328.88,1949000
0.0182495,0.0355835,0.998596-1.0376,-0.732422,-1.40381,-0.051,0.031,-91.31,0.0149841,-0.213303,0,0,0,0,0,41.52,328.899,1949015
-0.0335083,0.0272827,1.07886-0.0610352,-0.12207,-0.976562,-0.042,-0.018,-91.29,0.0152435,-0.21344,0,0,0,0,0,41.52,328.917,1949030
-0.0270386,-0.162537,1.00519-0.732422,0,-0.0610352,0.149,-0.009,-91.29,0.015564,-0.21344,0,0,0,0,0,41.52,328.938,1949045
-0.0914307,-0.105408,1.09601-1.83105,-0.915527,-0.976562,0.091,-0.073,-91.28,0.0167542,-0.213486,0,0,0,0,0,41.52,328.96,1949075
0.0274048,-0.160645,1.08252-1.70898,-1.28174,0.12207,0.143,0.046,-91.27,0.0175781,-0.213547,0,0,0,0,0,41.52,328.979,1949090
-0.0480957,-0.0227661,1.092160.0610352,-0.610352,-2.44141,0.006,-0.032,-91.22,0.019516,-0.213684,0,0,0,0,0,41.52,329.003,1949120
0.0346069,-0.0043335,0.91449-0.732422,-1.70898,-2.68555,-0.01,0.046,-91.19,0.019516,-0.213776,0,0,0,0,0,41.52,329.027,1949135
-0.0293579,0.0783691,1.034671.89209,0.366211,-2.92969,-0.094,-0.018,-91.15,0.0194397,-0.213837,0,0,0,0,0,41.52,329.041,1949150
-0.0784302,-0.138977,1.09681.28174,2.99072,-2.56348,0.123,-0.062,-91.11,0.0193939,-0.213959,0,0,0,0,0,41.52,329.058,1949165
-0.00933838,-0.00689697,1.03857-1.77002,1.0376,-3.17383,-0.009,0.003,-91.01,0.0194244,-0.214081,0,0,0,0,0,41.52,329.079,1949195
-0.0670166,-0.0628662,1.05389-1.52588,1.46484,-3.05176,0.047,-0.052,-90.97,0.019455,-0.214142,0,0,0,0,0,41.52,329.1,1949210
-0.0665283,-0.126343,1.04333-1.28174,0.488281,-1.15967,0.109,-0.05,-90.92,0.0193329,-0.214294,0,0,0,0,0,41.52,329.121,1949240
-0.0297241,0.00860596,0.966858-0.915527,-1.70898,0.427246,-0.024,-0.017,-90.92,0.0193024,-0.214417,0,0,0,0,0,41.52,329.147,1949255
-0.0174561,0.0805664,1.045960,-0.732422,0.12207,-0.098,-0.004,-90.92,0.0191956,-0.214554,0,0,0,0,0,41.52,329.158,1949270
-0.0317383,-0.148376,1.104610.12207,0.610352,-0.305176,0.13,-0.014,-90.92,0.0191193,-0.214554,0,0,0,0,0,41.52,329.178,1949285
-0.1026,-0.00500488,0.9878541.0376,1.46484,-2.74658,-0.01,-0.089,-90.88,0.0193939,-0.214523,0,0,0,0,0,41.54,329.202,1949315
0.0333862,-0.101929,1.05243-0.793457,1.0376,-2.01416,0.083,0.048,-90.85,0.0196228,-0.214554,0,0,0,0,0,41.54,329.224,1949330
