raw_accel_x,raw_accel_y,raw_accel_zworld_accel_x,world_accel_yyaw,fused_headingx,y,z,left_encoder_rate,right_encoder_rate,left_input,right_input,fpga time,navx time
0.0300903,0.0231323,0.950012,0.001,0.002,-0.54,359.45,0.00898743,0.0198669,0,0,0,0,0.0078125,57.1325,86201
0.0300903,0.0231323,0.950012,0.001,0.002,-0.54,359.45,0.00898743,0.0198669,0,0,0,0,0.0078125,57.1411,86201
0.0315552,0.0202637,0.948059,0.003,0,0,0,0,0,0,0,0,0,0.0078125,57.1669,86231
0.0245972,0.0205688,0.944397,-0.003,0,0,0,0,0,0,0,0,0,0.0078125,57.1823,86246
0.0310669,0.0184937,0.955872,0.002,-0.002,0,0,0,0,0,0,0,0,0.0078125,57.2002,86261
0.0301514,0.0181885,0.952026,0.001,-0.002,0,0,0,0,0,0,0,0,0.0078125,57.2202,86291
0.0256348,0.0186157,0.940247,-0.002,-0.001,0,0,0,0,0,0,0,0,0.0078125,57.2402,86306
0.02771,0.0211182,0.951965,0,0,0,0,0,0,0,0,0,0,0.0078125,57.2607,86321
0.0249023,0.0227051,0.947388,-0.003,0.002,0,0,0,0,0,0,0,0,0.0078125,57.2908,86351
0.0307617,0.0194092,0.948242,0.002,-0.001,0,0,0,0,0,0,0,0,0.0078125,57.301,86366
0.0280762,0.0222168,0.954224,0,0.001,0,0,0,0,0,0,0,0,0.0078125,57.3211,86381
0.0287476,0.0198364,0.950745,0,0,0,0,0,0,0,0,0,0,0.0078125,57.3408,86411
0.0281982,0.0180664,0.946228,0,-0.002,0,0,0,0,0,0,0,0,0.0078125,57.3608,86426
0.0261841,0.0189819,0.942627,-0.002,-0.001,0,0,0,0,0,0,0,0,0.0078125,57.3801,86441
0.0306396,0.0215454,0.948425,0.002,0,0,0,0,0,0,0,0,0,0.0078125,57.4006,86471
0.0285645,0.0198975,0.94812,0,0,0,0,0,0,0,0,0,0,0.0078125,57.4282,86486
0.0319214,0.0220337,0.957275,0.003,0.001,0,359.99,0,0,0,0,0,0,0.0078125,57.4404,86501
0.0250244,0.0200806,0.946899,-0.003,0,0,359.99,0,0,0,0,0,0,0.0078125,57.4605,86531
0.0280151,0.0181274,0.951233,0,-0.002,0,359.99,0,0,0,0,0,0,0.0078125,57.4814,86546
0.0258789,0.0203857,0.952759,-0.002,0,0,359.99,0,0,0,0,0,0,0.0078125,57.5005,86561
0.026062,0.0205078,0.946899,-0.002,0,0,0,0,0,0,0,0,0,0.0078125,57.5212,86591
0.0273438,0.0194092,0.949829,0,-0.001,0,0,0,0,0,0,0,0,0.0078125,57.5412,86606
0.02771,0.0202637,0.949951,0,0,0,0,0,0,0,0,0,0,0.0078125,57.5611,86621
0.0287476,0.0203857,0.948975,0,0,0,0,0,0,0,0,0,0,0.0078125,57.5806,86651
0.0297852,0.0181885,0.946289,0.001,-0.002,0,0,0,0,0,0,0,0,0.0078125,57.6003,86666
0.0282593,0.0204468,0.949951,0,0,0,0,0,0,0,0,0,0,0.0078125,57.6202,86681
0.0297241,0.0175171,0.944885,0.001,-0.002,0,359.99,0,0,0,0,0,0,0.0078125,57.6403,86711
0.0264893,0.0206299,0.948364,-0.001,0,0,0,0,0,0,0,0,0,0.0078125,57.6605,86726
0.0265503,0.0197144,0.944092,-0.001,0,0,359.99,0,0,0,0,0,0,0.0078125,57.6806,86741
0.0292358,0.0180054,0.949951,0,-0.002,0,359.99,0,0,0,0,0,0,0.0078125,57.7006,86771
0.0304565,0.0195312,0.942078,0.002,0,0,359.99,0,0,0,0,0,0,0.0078125,57.7207,86786
0.0307617,0.0205078,0.949463,0.002,0,0,359.99,0,0,0,0,0,0,0.0078125,57.7401,86801
0.027771,0.0213013,0.952332,0,0,0,359.99,0,0,0,0,0,0,0.0078125,57.7602,86831
0.0291138,0.0165405,0.945251,0,-0.003,0,359.99,0,0,0,0,0,0,0.0078125,57.7803,86846
0.0284424,0.0199585,0.950317,0,0,0,359.99,0,0,0,0,0,0,0.0078125,57.8005,86860
0.0304565,0.0202637,0.947937,0.002,0,0,0,0,0,0,0,0,0,0.0078125,57.8219,86890
0.0290527,0.0178223,0.944885,0,-0.002,0,0,0,0,0,0,0,0,0.0078125,57.8404,86906
0.0292969,0.0189819,0.949097,0.001,-0.001,0,0,0,0,0,0,0,0,0.0078125,57.8603,86920
0.0305176,0.0198975,0.947998,0.002,0,0,0,0,0,0,0,0,0,0.0078125,57.8806,86950
0.0289307,0.0200806,0.947876,0,0,0,0,0,0,0,0,0,0,0.0078125,57.9004,86966
0.0239258,0.0204468,0.956177,-0.004,0,0,0,0,0,0,0,0,0,0.0078125,57.9207,86980
0.0301514,0.0176392,0.952271,0.001,-0.003,0,0,0,0,0,0,0,0,0.0078125,57.9408,87010
0.0330811,0.0168457,0.947327,0.004,-0.003,0,0,0,0,0,0,0,0,0.0078125,57.9603,87026
0.0300293,0.0211792,0.957458,0.001,0,0,0,0,0,0,0,0,0,0.0078125,57.9805,87040
0.0280762,0.0195312,0.948059,0,-0.001,0,0,0,0,0,0,0,0,0.0078125,58.0011,87070
0.0289307,0.0196533,0.942383,0,0,0,359.99,0,0,0,0,0,0,0.0078125,58.0269,87086
0.02771,0.0219727,0.954773,0,0.001,0,359.99,0,0,0,0,0,0,0.0078125,58.0406,87100
0.0289307,0.0200806,0.948364,0,0,0,0,0,0,0,0,0,0,0.0078125,58.0608,87130
0.0264282,0.015625,0.948547,-0.001,-0.004,0,0,0,0,0,0,0,0,0.0078125,58.0805,87146
0.0283203,0.0217285,0.951111,0,0.001,0,0,0,0,0,0,0,0,0.0078125,58.0998,87160
0.0284424,0.0194092,0.946655,0,-0.001,0,0,0,0,0,0,0,0,0.0078125,58.1203,87190
0.0286255,0.0192871,0.951172,0,-0.001,0,0,0,0,0,0,0,0,0.0078125,58.1399,87206
0.0275269,0.0199585,0.944397,0,0,0,359.99,0,0,0,0,0,0,0.0078125,58.1601,87220
0.0287476,0.0224609,0.948853,0,0.001,0,359.99,0,0,0,0,0,0,0.0078125,58.1799,87250
0.0252686,0.0179443,0.949707,-0.002,-0.002,0,0,0,0,0,0,0,0,0.0078125,58.2003,87266
0.0290527,0.0187378,0.947632,0,-0.001,0,0,0,0,0,0,0,0,0.0078125,58.2209,87280
0.027771,0.020813,0.953613,0,0,0,0,0,0,0,0,0,0,0.0078125,58.2408,87310
0.0240479,0.0188599,0.950012,-0.004,-0.001,0,0,0,0,0,0,0,0,0.0078125,58.2615,87326
0.0254517,0.0209961,0.948364,-0.002,0,0,0,0,0,0,0,0,0,0.0078125,58.2804,87340
0.0274658,0.0214233,0.955444,0,0,0,0,0,0,0,0,0,0,0.0078125,58.3007,87370
0.0269775,0.0214233,0.944946,0,0,0,0,0,0,0,0,0,0,0.0078125,58.3212,87386
0.0279541,0.0221558,0.952759,0,0.001,0,0,0,0,0,0,0,0,0.0078125,58.3409,87400
0.0289917,0.0211182,0.954224,0,0,0,359.99,0,0,0,0,0,0,0.0078125,58.3608,87430
0.0263062,0.0159912,0.93927,-0.001,-0.004,0,359.99,0,0,0,0,0,0,0.0078125,58.3803,87446
0.0291748,0.0197144,0.946716,0.001,0,0,359.99,0,0,0,0,0,0,0.0078125,58.4,87460
0.0276489,0.0220337,0.950439,0,0.001,0,359.99,0,0,0,0,0,0,0.0078125,58.4202,87490
0.0267334,0.0159912,0.946838,-0.001,-0.004,0,359.99,0,0,0,0,0,0,0.0078125,58.4405,87506
0.0269165,0.0201416,0.946899,-0.001,0,0,0,0,0,0,0,0,0,0.0078125,58.4606,87520
0.0289307,0.0236206,0.953857,0,0.002,0,359.99,0,0,0,0,0,0,0.0078125,58.4805,87550
0.0296631,0.0184326,0.947754,0.001,-0.002,0,359.99,0,0,0,0,0,0,0.0078125,58.5042,87565
0.02948,0.0180664,0.945984,0.001,-0.002,0,0,0,0,0,0,0,0,0.0078125,58.5233,87580
0.0270386,0.0233154,0.953491,-0.001,0.002,0,359.99,0,0,0,0,0,0,0.0078125,58.5411,87610
0.0270386,0.0241089,0.952637,-0.001,0.003,0,359.99,0,0,0,0,0,0,0.0078125,58.6065,87670
0.0267334,0.0214233,0.949402,-0.001,0,0,359.99,0,0,0,0,0,0,0.0078125,58.621,87685
0.0285645,0.0195312,0.953064,0,-0.001,0,359.99,0,0,0,0,0,0,0.0078125,58.6411,87700
0.0274048,0.0233765,0.948242,0,0.002,0,359.99,0,0,0,0,0,0,0.0078125,58.6615,87730
0.0280762,0.0233765,0.951416,0,0.002,0,359.99,0,0,0,0,0,0,0.0078125,58.6806,87745
0.0258789,0.0196533,0.940674,-0.001,0,0,359.99,0,0,0,0,0,0,0.0078125,58.7004,87760
0.0253906,0.0236206,0.94928,-0.002,0.002,0,359.99,0,0,0,0,0,0,0.0078125,58.7206,87790
0.0283203,0.0178223,0.950989,0,-0.002,0,359.99,0,0,0,0,0,0,0.0078125,58.7406,87805
0.0244751,0.0200195,0.947876,-0.003,0,0,359.99,0,0,0,0,0,0,0.0078125,58.76,87820
0.0256958,0.0219116,0.951599,-0.002,0.001,0,359.99,0,0,0,0,0,0,0.0078125,58.7805,87850
0.0274658,0.0217285,0.950317,0,0,0,359.99,0,0,0,0,0,0,0.0078125,58.8024,87865
0.0263672,0.019104,0.948303,-0.001,-0.001,0,359.99,0,0,0,0,0,0,0.0078125,58.8205,87880
0.0297241,0.0213623,0.957825,0.001,0,0,359.99,0,0,0,0,0,0,0.0078125,58.841,87910
0.0272217,0.0205688,0.951843,0,0,0,359.99,0,0,0,0,0,0,0.0078125,58.8604,87925
0.0266113,0.0175781,0.950134,-0.001,-0.003,0,359.99,0,0,0,0,0,0,0.0078125,58.8801,87940
0.0258789,0.0217896,0.952332,-0.002,0,0,359.99,0,0,0,0,0,0,0.0078125,58.9004,87970
0.0292969,0.0216064,0.945923,0.001,0,0,359.99,0,0,0,0,0,0,0.0078125,58.9206,87985
0.0278931,0.019043,0.947632,0,-0.001,0,359.99,0,0,0,0,0,0,0.0078125,58.9411,88000
0.0245361,0.0222778,0.950684,-0.003,0.001,0,359.99,0,0,0,0,0,0,0.0078125,58.9609,88030
0.0261841,0.0202026,0.954651,-0.002,0,0,359.99,0,0,0,0,0,0,0.0078125,58.9801,88045
0.0298462,0.0217896,0.94342,0.001,0.001,0,359.99,0,0,0,0,0,0,0.0078125,59.0002,88060
0.031311,0.0222778,0.942993,0.003,0.001,0,359.99,0,0,0,0,0,0,0.0078125,59.0203,88090
0.0257568,0.020813,0.957092,-0.002,0,0,359.99,0,0,0,0,0,0,0.0078125,59.0414,88105
0.0265503,0.0170898,0.949097,-0.001,-0.003,0,359.99,0,0,0,0,0,0,0.0078125,59.0603,88120
0.02771,0.0213623,0.945312,0,0,0,359.99,0,0,0,0,0,0,0.0078125,59.0808,88150
0.0282593,0.0192871,0.950317,0,-0.001,0,359.99,0,0,0,0,0,0,0.0078125,59.1006,88165
0.0285645,0.0188599,0.945435,0,-0.001,0,359.99,0,0,0,0,0,0,0.0078125,59.1217,88180
0.0285034,0.0214844,0.948853,0,0,0,359.99,0,0,0,0,0,0,0.0078125,59.1411,88210
0.0271606,0.0205688,0.952759,-0.001,0,0,359.99,0,0,0,0,0,0,0.0078125,59.1608,88225
0.0307617,0.0203857,0.943237,0.002,0,0,359.99,0,0,0,0,0,0,0.0078125,59.1805,88240
0.0308228,0.0204468,0.94519,0.002,0,0,359.99,0,0,0,0,0,0,0.0078125,59.201,88270
0.0265503,0.020752,0.956421,-0.001,0,0,359.99,0,0,0,0,0,0,0.0078125,59.2211,88285
0.0276489,0.0186157,0.95105,0,-0.002,-0.01,359.98,0,0,0,0,0,0,0.0078125,59.2404,88300
0.0258179,0.022522,0.952026,-0.002,0.001,0,359.99,0,0,0,0,0,0,0.0078125,59.2601,88330
0.0281982,0.0219727,0.953003,0,0.001,-0.01,359.98,0,0,0,0,0,0,0.0078125,59.281,88345
0.029541,0.0194702,0.947815,0.001,-0.001,-0.01,359.98,0,0,0,0,0,0,0.0078125,59.3012,88360
0.0282593,0.0203247,0.944275,0,0,-0.01,359.98,0,0,0,0,0,0,0.0078125,59.3204,88390
0.0269775,0.0200195,0.945862,0,0,-0.01,359.98,0,0,0,0,0,0,0.0078125,59.3409,88405
0.0301514,0.0184937,0.952881,0.001,-0.002,-0.01,359.98,0,0,0,0,0,0,0.0078125,59.36,88420
0.0272827,0.0202637,0.951294,0,0,-0.01,359.98,0,0,0,0,0,0,0.0078125,59.3843,88450
0.0275879,0.0231934,0.952393,0,0.002,-0.01,359.98,0,0,0,0,0,0,0.0078125,59.4022,88465
0.0253296,0.0194702,0.945984,-0.002,0,-0.01,359.98,0,0,0,0,0,0,0.0078125,59.4207,88480
0.0283203,0.0197754,0.944702,0,0,-0.01,359.98,0,0,0,0,0,0,0.0078125,59.4409,88510
0.0288696,0.0209351,0.957336,0,0,-0.01,359.98,0,0,0,0,0,0,0.0078125,59.4602,88525
0.0289917,0.0222778,0.94812,0,0.001,-0.01,359.98,0,0,0,0,0,0,0.0078125,59.4804,88540
0.0286865,0.0222168,0.947632,0,0.001,-0.01,359.98,0,0,0,0,0,0,0.0078125,59.5003,88570
0.0259399,0.0214844,0.949707,-0.002,0,-0.01,359.98,0,0,0,0,0,0,0.0078125,59.5203,88585
0.0255127,0.0174561,0.950867,-0.002,-0.003,-0.01,359.98,0,0,0,0,0,0,0.0078125,59.5408,88599
0.0286255,0.020752,0.943787,0,0,-0.01,359.98,0,0,0,0,0,0,0.0078125,59.5611,88629
0.0288086,0.0205688,0.947083,0,0,-0.01,359.98,0,0,0,0,0,0,0.0078125,59.5804,88645
0.027771,0.0233765,0.953247,0,0.002,-0.01,359.98,0,0,0,0,0,0,0.0078125,59.6011,88659
0.0264282,0.0209351,0.95343,-0.001,0,-0.01,359.98,0,0,0,0,0,0,0.0078125,59.6215,88689
0.0289307,0.0210571,0.952087,0,0,-0.01,359.98,0,0,0,0,0,0,0.0078125,59.6405,88705
0.0285645,0.0211792,0.961731,0,0,-0.01,359.98,0,0,0,0,0,0,0.0078125,59.6611,88719
0.0286865,0.0176392,0.950378,0,-0.002,-0.01,359.98,0,0,0,0,0,0,0.0078125,59.6806,88749
0.02948,0.0219116,0.942749,0.001,0.001,-0.01,359.98,0,0,0,0,0,0,0.0078125,59.7004,88765
0.0265503,0.0212402,0.955566,-0.001,0,-0.01,359.98,0,0,0,0,0,0,0.0078125,59.7214,88779
0.0280151,0.0192871,0.952148,0,-0.001,-0.01,359.98,0,0,0,0,0,0,0.0078125,59.7412,88809
0.0273438,0.0202026,0.948792,0,0,-0.01,359.98,0,0,0,0,0,0,0.0078125,59.7609,88825
0.0288696,0.0186768,0.946472,0,-0.001,-0.01,359.98,0,0,0,0,0,0,0.0078125,59.7874,88854
0.029541,0.0189819,0.948242,0.001,-0.001,-0.01,359.98,0,0,0,0,0,0,0.0078125,59.8016,88869
0.0291138,0.0209351,0.951965,0,0,-0.01,359.98,0,0,0,0,0,0,0.0078125,59.8202,88885
0.0285034,0.0248413,0.953857,0,0.004,-0.01,359.98,0,0,0,0,0,0,0.0078125,59.8403,88899
0.0266113,0.0181885,0.945007,-0.001,-0.002,-0.01,359.98,0,0,0,0,0,0,0.0078125,59.8607,88929
0.0261841,0.0229492,0.949829,-0.002,0.002,-0.01,359.98,0,0,0,0,0,0,0.0078125,59.8804,88945
0.0247803,0.0215454,0.952332,-0.003,0,-0.01,359.98,0,0,0,0,0,0,0.0078125,59.9007,88959
0.0310059,0.0227051,0.956604,0.002,0.001,-0.01,359.98,0,0,0,0,0,0,0.0078125,59.9392,89005
0.0310059,0.0227051,0.956604,0.002,0.001,-0.01,359.98,0,0,0,0,0,0,0.0078125,59.9446,89005
0.0258179,0.0240479,0.950989,-0.002,0.003,-0.01,359.98,0,0,0,0,0,0,0.0078125,59.9618,89019
0.0348511,0.0169678,0.945129,0.006,-0.003,-0.01,359.98,0,0,0,0,0,0,0.0078125,59.9814,89049
0.0297241,0.0214233,0.955322,0.001,0,-0.01,359.98,0,0,0,0,0,0,0.0078125,60.0035,89065
0.0269165,0.019043,0.951111,-0.001,-0.001,-0.02,359.97,0,0,0,0,0,0,0.0078125,60.0207,89079
0.0298462,0.0200806,0.946167,0.001,0,-0.01,359.98,0,0,0,0,0,0,0.0078125,60.0404,89109
0.0306396,0.0204468,0.954529,0.002,0,-0.02,359.97,0,0,0,0,0,0,0.0078125,60.0609,89125
0.0266724,0.0203247,0.952209,-0.001,0,-0.02,359.97,0,0,0,0,0,0,0.0078125,60.0814,89139
0.02948,0.0238647,0.94812,0.001,0.003,-0.02,359.97,0,0,0,0,0,0,0.0078125,60.1001,89169
0.0319824,0.0197754,0.953064,0.003,0,-0.02,359.97,0,0,0,0,0,0,0.0078125,60.1203,89185
0.0266113,0.0187378,0.954468,-0.001,-0.001,-0.02,359.97,0,0,0,0,0,0,0.0078125,60.1406,89199
0.0299072,0.0215454,0.952576,0.001,0,-0.02,359.97,0,0,0,0,0,0,0.0078125,60.1601,89229
0.0291138,0.017395,0.952698,0,-0.003,-0.02,359.97,0,0,0,0,0,0,0.0078125,60.1803,89245
0.0274658,0.0194702,0.952209,0,-0.001,-0.02,359.97,0,0,0,0,0,0,0.0078125,60.2002,89259
0.0268555,0.0187378,0.949768,-0.001,-0.001,-0.02,359.97,0,0,0,0,0,0,0.0078125,60.2201,89289
0.0275269,0.0193481,0.943665,0,-0.001,-0.02,359.97,0,0,0,0,0,0,0.0078125,60.2411,89304
0.0251465,0.0227661,0.962036,-0.003,0.001,-0.02,359.97,0,0,0,0,0,0,0.0078125,60.2606,89319
0.0298462,0.0223999,0.951233,0.001,0.001,-0.02,359.97,0,0,0,0,0,0,0.0078125,60.2806,89349
0.0293579,0.019165,0.952026,0.001,-0.001,-0.02,359.97,0,0,0,0,0,0,0.0078125,60.3002,89364
0.0285645,0.0222778,0.956055,0,0.001,-0.02,359.97,0,0,0,0,0,0,0.0078125,60.3206,89379
0.02948,0.0177002,0.939026,0.001,-0.002,-0.02,359.97,0,0,0,0,0,0,0.0078125,60.3401,89409
0.0287476,0.022583,0.950562,0,0.001,-0.02,359.97,0,0,0,0,0,0,0.0078125,60.3607,89424
0.0300903,0.0195312,0.951599,0.001,-0.001,-0.02,359.97,0,0,0,0,0,0,0.0078125,60.382,89439
0.0280151,0.0206909,0.949524,0,0,-0.02,359.97,0,0,0,0,0,0,0.0078125,60.4003,89469
0.0299072,0.0198364,0.951355,0.001,0,-0.02,359.97,0,0,0,0,0,0,0.0078125,60.4487,89514
0.0272827,0.0180054,0.947327,0,-0.002,-0.02,359.97,0,0,0,0,0,0,0.0078125,60.4609,89529
0.0284424,0.0219727,0.94519,0,0.001,-0.02,359.97,0,0,0,0,0,0,0.0078125,60.4806,89544
0.0291748,0.0201416,0.952637,0.001,0,-0.02,359.97,0,0,0,0,0,0,0.0078125,60.5007,89559
0.0302734,0.0169067,0.940613,0.002,-0.003,-0.02,359.97,0,0,0,0,0,0,0.0078125,60.5205,89589
0.0254517,0.0198975,0.94989,-0.002,0,-0.02,359.97,0,0,0,0,0,0,0.0078125,60.5404,89604
0.0289307,0.0214844,0.9505,0,0,-0.02,359.97,0,0,0,0,0,0,0.0078125,60.5604,89619
0.0264893,0.0212402,0.940369,-0.001,0,-0.02,359.97,0,0,0,0,0,0,0.0078125,60.581,89649
0.0285034,0.0232544,0.952515,0,0.002,-0.02,359.97,0,0,0,0,0,0,0.0078125,60.5999,89664
0.0280151,0.0220947,0.947571,0,0.001,-0.02,359.97,0,0,0,0,0,0,0.0078125,60.6202,89679
0.0296631,0.0189819,0.946716,0.001,-0.001,-0.02,359.97,0,0,0,0,0,0,0.0078125,60.6403,89709
0.0282593,0.0203247,0.946655,0,0,-0.02,359.97,0,0,0,0,0,0,0.0078125,60.6602,89724
0.0286865,0.0193481,0.950378,0,-0.001,-0.02,359.97,0,0,0,0,0,0,0.0078125,60.6801,89739
0.0255737,0.0178833,0.94751,-0.002,-0.002,-0.02,359.97,0,0,0,0,0,0,0.0078125,60.7004,89769
0.0263062,0.0241699,0.950867,-0.001,0.003,-0.02,359.97,0,0,0,0,0,0,0.0078125,60.7206,89784
0.0297852,0.0228882,0.960449,0.001,0.002,-0.02,359.97,0,0,0,0,0,0,0.0078125,60.7408,89799
0.0275879,0.0169067,0.953247,0,-0.003,-0.02,359.97,0,0,0,0,0,0,0.0078125,60.7605,89829
0.0280762,0.0205078,0.951172,0,0,-0.02,359.97,0,0,0,0,0,0,0.0078125,60.7805,89844
0.0259399,0.0223389,0.9552,-0.002,0.001,-0.02,359.97,0,0,0,0,0,0,0.0078125,60.8007,89859
0.0275269,0.0171509,0.94635,0,-0.003,-0.02,359.97,0,0,0,0,0,0,0.0078125,60.8223,89889
0.0270996,0.0175781,0.947571,0,-0.002,-0.02,359.97,0,0,0,0,0,0,0.0078125,60.8411,89904
0.02771,0.0227661,0.955811,0,0.002,-0.02,359.97,0,0,0,0,0,0,0.0078125,60.8633,89934
0.0252075,0.0234375,0.95697,-0.003,0.002,-0.02,359.97,0,0,0,0,0,0,0.0078125,60.8957,89964
0.0252075,0.0234375,0.95697,-0.003,0.002,-0.02,359.97,0,0,0,0,0,0,0.0078125,60.9014,89964
0.027771,0.0195312,0.946228,0,0,-0.02,359.97,0,0,0,0,0,0,0.0078125,60.9206,89979
0.0257568,0.0176392,0.941223,-0.002,-0.002,-0.02,359.97,0,0,0,0,0,0,0.0078125,60.9404,90009
0.0271606,0.0227661,0.949951,0,0.002,-0.02,359.97,0,0,0,0,0,0,0.0078125,60.9604,90024
0.0299072,0.0211792,0.961792,0.001,0,-0.02,359.97,0,0,0,0,0,0,0.0078125,60.9827,90054
0.0259399,0.0186768,0.941467,-0.001,-0.001,-0.02,359.97,0,0,0,0,0,0,0.0078125,61.0003,90069
0.0275879,0.0217285,0.951111,0,0.001,-0.02,359.97,0,0,0,0,0,0,0.0078125,61.0208,90084
0.0294189,0.0194092,0.94873,0.001,-0.001,-0.02,359.97,0,0,0,0,0,0,0.0078125,61.0407,90099
0.0274048,0.0167236,0.9505,0,-0.003,-0.02,359.97,0,0,0,0,0,0,0.0078125,61.0607,90129
0.0293579,0.0195923,0.947327,0.001,0,-0.02,359.97,0,0,0,0,0,0,0.0078125,61.0808,90144
0.02771,0.0216675,0.954895,0,0.001,-0.02,359.97,0,0,0,0,0,0,0.0078125,61.101,90159
0.0302124,0.0214233,0.948669,0.002,0,-0.02,359.97,0,0,0,0,0,0,0.0078125,61.1208,90189
0.0291748,0.0216064,0.946228,0.001,0.001,-0.02,359.97,0,0,0,0,0,0,0.0078125,61.1407,90204
0.0285034,0.0209961,0.953735,0,0,-0.02,359.97,0,0,0,0,0,0,0.0078125,61.1607,90219
0.02948,0.0195923,0.947998,0.001,0,-0.02,359.97,0,0,0,0,0,0,0.0078125,61.1802,90249
0.0276489,0.0183105,0.94342,0,-0.002,-0.02,359.97,0,0,0,0,0,0,0.0078125,61.2016,90264
0.0303955,0.0203247,0.951599,0.002,0,-0.02,359.97,0,0,0,0,0,0,0.0078125,61.221,90294
0.0297852,0.022583,0.953064,0.001,0.002,-0.02,359.97,0,0,0,0,0,0,0.0078125,61.2409,90309
0.031189,0.0172729,0.944336,0.003,-0.003,-0.02,359.97,0,0,0,0,0,0,0.0078125,61.2614,90324
0.0308228,0.0186768,0.955933,0.002,-0.001,-0.02,359.97,0,0,0,0,0,0,0.0078125,61.2806,90338
0.0285034,0.0209961,0.951538,0,0,-0.02,359.97,0,0,0,0,0,0,0.0078125,61.3005,90368
0.0262451,0.0186157,0.941528,-0.001,-0.001,-0.02,359.97,0,0,0,0,0,0,0.0078125,61.321,90384
0.0286865,0.0228882,0.955322,0,0.002,-0.02,359.97,0,0,0,0,0,0,0.0078125,61.3408,90398
0.0272827,0.0218506,0.95343,-0.001,0.001,-0.02,359.97,0,0,0,0,0,0,0.0078125,61.3606,90428
0.0273438,0.0200195,0.94342,0,0,-0.02,359.97,0,0,0,0,0,0,0.0078125,61.3806,90444
0.0288086,0.0222168,0.955811,0,0.001,-0.02,359.97,0,0,0,0,0,0,0.0078125,61.4008,90458
0.0297852,0.0206299,0.948547,0.001,0,-0.02,359.97,0,0,0,0,0,0,0.0078125,61.4212,90488
0.0316162,0.0205078,0.944397,0.003,0,-0.02,359.97,0,0,0,0,0,0,0.0078125,61.4412,90504
0.0246582,0.0202637,0.955322,-0.003,0,-0.02,359.97,0,0,0,0,0,-0.0625,0.0078125,61.4607,90518
0.02948,0.019104,0.946472,0.001,-0.001,-0.02,359.97,0,0,0,0,0,-0.0703125,0.0078125,61.4812,90548
0.0235596,0.0222778,0.948425,-0.004,0.001,-0.02,359.97,0,0,0,0,0,-0.0703125,0.0078125,61.5008,90564
0.0247192,0.0215454,0.952209,-0.003,0.001,-0.02,359.97,0,0,0,0,0,-0.0703125,0.0078125,61.5204,90578
0.03302,0.0161743,0.943237,0.005,-0.004,-0.02,359.97,0,0,0,0,0,-0.0703125,0.0078125,61.541,90608
0.0527344,0.00964355,0.953674,0.024,-0.01,-0.02,359.97,1.52588e-05,0,0,25.1065,0,-0.0703125,0.101562,61.5612,90624
0.0222778,0.0180054,0.966064,-0.006,-0.002,-0.02,359.97,0.000137329,0,0,28.8704,0,-0.0703125,0.101562,61.5815,90653
-0.00299072,-0.012207,0.955017,-0.031,-0.032,-0.02,359.97,0.000183105,-1.52588e-05,0,24.0271,-56.9152,-0.0703125,0.101562,61.6005,90668
0.0742188,-0.0957031,0.943665,0.046,-0.115,-0.01,359.98,0.000244141,-0.000137329,0,18.8387,-59.1952,-0.0703125,0.101562,61.6214,90684
0.0283813,-0.0802612,0.945374,0,-0.098,-0.03,359.96,0.000335693,-0.000411987,0,18.2242,-44.4779,-0.0703125,0.101562,61.6408,90698
0.0154419,0.0135498,0.9104,-0.011,-0.002,-0.03,359.96,0.000335693,-0.00123596,0,19.7227,-32.9185,-0.0703125,0.101562,61.6615,90728
0.0933228,-0.020874,0.969727,0.064,-0.038,-0.02,359.97,0.000366211,-0.00170898,0,26.3197,-37.0004,-0.078125,0.109375,61.6809,90744
-0.0268555,-0.0166016,0.946167,-0.055,-0.032,-0.03,359.96,0.000411987,-0.00222778,0,39.8981,-59.0394,-0.078125,0.164062,61.7008,90758
0.0894775,-0.00994873,0.914124,0.062,-0.025,-0.03,359.96,0.000411987,-0.00325012,0,51.6466,-59.042,-0.078125,0.226562,61.7208,90788
0.00604248,-0.0757446,0.913025,-0.021,-0.09,-0.05,359.94,0.000549316,-0.00445557,0,63.0243,-106.714,-0.0859375,0.320312,61.7546,90818
0.00604248,-0.0757446,0.913025,-0.021,-0.09,-0.05,359.94,0.000549316,-0.00445557,0,65.6573,-111.259,-0.0859375,0.320312,61.7609,90818
0.0639648,-0.113342,0.968872,0.034,-0.126,-0.09,359.9,0.000762939,-0.00617981,0,99.1798,-157.443,-0.109375,0.359375,61.7861,90848
0.083252,-0.157166,0.977295,0.053,-0.168,-0.13,359.86,0.000946045,-0.00732422,0,138.996,-142.892,-0.210938,0.382812,61.8015,90864
0.00817871,-0.123657,0.951233,-0.02,-0.133,-0.17,359.82,0.00115967,-0.00868225,0,148.16,-173.806,-0.226562,0.382812,61.8207,90878
-0.0211792,-0.19519,0.933899,-0.048,-0.201,-0.23,359.76,0.00154114,-0.0120544,0,197.793,-228.587,-0.234375,0.382812,61.8406,90908
-0.0618286,-0.128296,0.963257,-0.09,-0.132,-0.27,359.72,0.00161743,-0.0140991,0,213.956,-266.475,-0.242188,0.382812,61.8605,90924
0.015564,-0.11554,0.968872,-0.012,-0.118,-0.3,359.69,0.00163269,-0.0163269,0,284.864,-263.619,-0.242188,0.382812,61.8808,90938
-0.038208,-0.231812,0.982971,-0.065,-0.231,-0.32,359.67,0.00146484,-0.0214691,0,318.436,-331.104,-0.242188,0.382812,61.9018,90968
0.0134888,-0.126221,0.88623,-0.011,-0.123,-0.33,359.66,0.00128174,-0.0244293,0,326.728,-375.03,-0.265625,0.390625,61.921,90984
-0.0117188,-0.12915,1.0304,-0.04,-0.124,-0.34,359.65,0.00106812,-0.0275574,0,361.441,-397.836,-0.328125,0.40625,61.9408,90998
0.0900269,-0.183411,0.92041,0.065,-0.175,-0.38,359.61,0.000640869,-0.0343323,0,360.393,-385.951,-0.335938,0.421875,61.9606,91028
0.0107422,-0.106812,0.971008,-0.015,-0.097,-0.4,359.59,0.000488281,-0.0380096,0,352.262,-401.671,-0.351562,0.429688,61.9807,91043
0.0680542,-0.162842,0.896423,0.044,-0.152,-0.42,359.57,0.000350952,-0.0418396,0,449.277,-455.405,-0.359375,0.429688,62.0006,91058
0.088562,-0.130859,0.831726,0.066,-0.117,-0.45,359.54,0.000259399,-0.0502014,0,454.483,-474.777,-0.359375,0.429688,62.0205,91088
0.00799561,-0.113098,0.957703,-0.016,-0.098,-0.48,359.51,0.000289917,-0.0546265,0,510.895,-555.942,-0.359375,0.445312,62.0404,91103
-0.244629,-0.0349731,1.09296,-0.271,-0.02,-0.52,359.47,0.00012207,-0.0591431,0,468.735,-557.32,-0.359375,0.46875,62.0605,91118
-0.0118408,-0.00262451,0.739136,-0.032,0.01,-0.55,359.44,1.52588e-05,-0.068573,0,533.163,-489.189,-0.367188,0.5,62.0819,91148
-0.0467529,0.0331421,0.950867,-0.074,0.051,-0.58,359.41,0,-0.0733185,0,522.071,-583.584,-0.367188,0.507812,62.1009,91163
-0.0421753,-0.211304,1.84412,-0.095,-0.174,-0.62,359.37,-0.000228882,-0.0830383,0,578.285,-590.092,-0.367188,0.515625,62.1215,91193
0.149292,-0.137024,0.839844,0.126,-0.116,-0.66,359.33,-0.000366211,-0.0881958,0,497.117,-626.802,-0.367188,0.515625,62.1406,91208
0.13739,0.0328979,0.48645,0.121,0.046,-0.71,359.28,-0.000320435,-0.093399,0,586.029,-710.101,-0.367188,0.515625,62.1614,91223
-0.0802612,-0.107239,1.22137,-0.114,-0.08,-0.76,359.23,-0.000274658,-0.0986176,0,548.231,-687.451,-0.367188,0.523438,62.1817,91238
0.0140991,-0.0067749,1.00726,-0.013,0.019,-0.84,359.15,-0.000610352,-0.109421,0,619.559,-671.93,-0.367188,0.523438,62.2008,91268
0.105896,-0.161194,0.943298,0.08,-0.134,-0.88,359.11,-0.000839233,-0.120392,0,668.941,-754.831,-0.367188,0.523438,62.2337,91298
0.0483398,-0.0599365,0.912964,0.023,-0.034,-0.92,359.07,-0.000823975,-0.131561,0,674.514,-683.55,-0.367188,0.523438,62.2576,91328
0.0483398,-0.0599365,0.912964,0.023,-0.034,-0.92,359.07,-0.000823975,-0.131561,0,579.525,-742.308,-0.367188,0.523438,62.2608,91328
0.00878906,-0.0689087,0.90271,-0.016,-0.045,-1,358.99,-0.000396729,-0.153885,0,638.529,-580.434,-0.367188,0.523438,62.3202,91388
0.114075,-0.00213623,1.1261,0.082,0.028,-1.02,358.97,-0.000198364,-0.159485,0,585.909,-633.854,-0.367188,0.523438,62.3406,91403
0.128662,-0.0736694,0.697998,0.109,-0.053,-1.07,358.92,0.000350952,-0.170654,0,692.377,-702.889,-0.367188,0.523438,62.374,91433
-0.046875,-0.0648804,0.828186,-0.069,-0.045,-1.13,358.86,0.000488281,-0.181732,0,666.511,-781.555,-0.367188,0.523438,62.4071,91463
0.0137939,0.0443726,1.06732,-0.018,0.069,-1.17,358.82,0.000366211,-0.187241,0,692.089,-617.799,-0.367188,0.523438,62.4124,91478
0.0782471,0.00549316,1.19226,0.042,0.035,-1.2,358.79,0.000274658,-0.192673,0,758.639,-738.607,-0.367188,0.523438,62.4221,91493
-0.183594,-0.0456543,0.719727,-0.204,-0.032,-1.24,358.75,6.10352e-05,-0.19809,0,655.437,-747.692,-0.367188,0.523438,62.441,91508
0.0994873,-0.0905151,0.903259,0.073,-0.066,-1.28,358.71,-0.000228882,-0.203598,0,731.716,-653.552,-0.367188,0.523438,62.4611,91523
0.0751953,-0.036499,0.899231,0.049,-0.013,-1.32,358.67,-0.000442505,-0.209137,0,705.492,-702.864,-0.367188,0.523438,62.4801,91538
0.152039,-0.000915527,1.10608,0.118,0.028,-1.4,358.59,-0.000793457,-0.209106,0,756.945,-648.466,-0.367188,0.523438,62.5003,91568
0.0751343,0.0588379,0.768433,0.049,0.079,-1.43,358.56,-0.000839233,-0.209,0,704.821,-766.665,-0.367188,0.523438,62.5205,91583
0.126587,0.000305176,1.24091,0.087,0.032,-1.48,358.51,-0.000793457,-0.208817,0,721.631,-874.546,-0.367188,0.523438,62.5405,91598
0.143616,-0.0870972,0.960022,0.114,-0.06,-1.55,358.44,-0.000335693,-0.20845,0,714.618,-778.877,-0.367188,0.523438,62.5605,91628
-0.0282593,-0.00177002,1.03973,-0.062,0.02,-1.6,358.39,-1.52588e-05,-0.208313,0,694.613,-759.1,-0.367188,0.523438,62.5806,91643
0.157104,-0.00610352,0.879395,0.128,0.018,-1.64,358.35,0.000335693,-0.208145,0,679.163,-758.668,-0.367188,0.523438,62.6005,91658
0.158386,0.0491333,0.905945,0.126,0.074,-1.73,358.26,0.000839233,-0.207596,0,711.111,-755.772,-0.367188,0.523438,62.6212,91688
0.19928,-0.106445,0.953735,0.17,-0.079,-1.77,358.22,0.00125122,-0.207291,0,697.642,-701.041,-0.367188,0.523438,62.6407,91703
-0.0272827,0.0350952,0.820618,-0.056,0.052,-1.82,358.17,0.0017395,-0.206985,0,737.273,-730.167,-0.367188,0.523438,62.6606,91718
-0.0200806,0.119141,1.10303,-0.06,0.141,-1.91,358.08,0.00283813,-0.206299,0,798.531,-655.845,-0.367188,0.53125,62.6801,91748
0.0544434,-0.104492,0.984863,0.025,-0.081,-1.95,358.04,0.00338745,-0.205872,0,733.487,-775.104,-0.367188,0.53125,62.7001,91763
0.00250244,0.0512695,1.00751,-0.032,0.071,-1.99,358,0.00392151,-0.20546,0,628.674,-813.14,-0.367188,0.53125,62.721,91778
-0.0170898,-0.048584,1.00439,-0.048,-0.029,-2.09,357.9,0.00456238,-0.204483,0,715.999,-802.826,-0.367188,0.53125,62.7408,91808
0.0149536,0.0563354,0.821655,-0.014,0.072,-2.15,357.84,0.00476074,-0.203964,0,781.586,-814.73,-0.367188,0.53125,62.7601,91823
0.131348,0.0566406,1.12555,0.091,0.081,-2.23,357.76,0.00511169,-0.202713,0,691.946,-847.027,-0.367188,0.53125,62.79,91853
-0.0893555,0.0267334,0.765625,-0.115,0.036,-2.27,357.72,0.00527954,-0.201965,0,770.446,-849.87,-0.367188,0.53125,62.8014,91868
0.294983,-0.00268555,0.792603,0.267,0.023,-2.31,357.68,0.0055542,-0.201187,0,708.767,-799.329,-0.367188,0.53125,62.8207,91883
-0.0192871,0.0419922,0.916016,-0.051,0.056,-2.36,357.63,0.00596619,-0.200348,0,666.533,-788.612,-0.367188,0.53125,62.8399,91898
-0.114624,-0.00439453,0.568054,-0.133,0,-2.45,357.54,0.00657654,-0.198654,0,638.835,-725.189,-0.367188,0.53125,62.8599,91928
-0.152222,0.0126343,1.32214,-0.196,0.025,-2.47,357.52,0.00660706,-0.197784,0,686.271,-756.773,-0.367188,0.53125,62.8803,91943
0.0758057,0.027771,0.809021,0.047,0.043,-2.53,357.46,0.00656128,-0.195938,0,753.04,-473.227,-0.367188,0.53125,62.9003,91973
0.0705566,-0.0540161,1.00476,0.04,-0.036,-2.56,357.43,0.00662231,-0.194977,0,763.65,-780.001,-0.367188,0.53125,62.9293,91988
0.195374,-0.0804443,1.33173,0.153,-0.052,-2.61,357.38,0.00741577,-0.19313,0,721.97,-882.496,-0.367188,0.53125,62.9473,92018
-0.146057,0.0456543,0.673706,-0.169,0.047,-2.65,357.34,0.00791931,-0.19223,0,684.463,-715.538,-0.367188,0.53125,62.9712,92033
0.167542,0.299072,1.14246,0.117,0.32,-2.7,357.29,0.0085144,-0.190063,0,710.985,-756.458,-0.367188,0.53125,62.9977,92063
0.167542,0.299072,1.14246,0.117,0.32,-2.7,357.29,0.0085144,-0.190063,0,723.118,-751.654,-0.367188,0.53125,63.001,92063
0.106445,-0.0509644,0.52417,0.092,-0.039,-2.73,357.26,0.00961304,-0.187531,0,747.608,-860.289,-0.367188,0.53125,63.0211,92092
-0.0841064,0.115906,0.778809,-0.115,0.121,-2.77,357.22,0.0102234,-0.186249,0,768.61,-794.344,-0.367188,0.53125,63.0413,92107
-0.0709839,-0.0759888,1.37207,-0.111,-0.063,-2.83,357.16,0.0106659,-0.184952,0,834.968,-620.02,-0.367188,0.53125,63.0602,92123
-0.0421753,0.0586548,0.934631,-0.075,0.067,-2.89,357.1,0.0110016,-0.18364,0,774.204,-619.291,-0.367188,0.53125,63.0801,92137
0.052124,0.00238037,0.950806,0.019,0.015,-3.01,356.98,0.0112762,-0.180862,0,711.946,-1014.87,-0.367188,0.53125,63.1009,92167
0.135315,-0.053772,0.882812,0.107,-0.036,-3.07,356.92,0.0113678,-0.179489,0,755.401,-916.632,-0.367188,0.53125,63.1203,92183
0.0267944,-0.0505371,0.795349,0.001,-0.04,-3.18,356.81,0.0118103,-0.176666,0,741.152,-924.513,-0.367188,0.539062,63.1411,92212
-0.0603027,0.0223999,1.07935,-0.098,0.03,-3.24,356.75,0.0119934,-0.175247,0,680.318,-889.324,-0.367188,0.546875,63.161,92227
0.125122,0.0742188,0.66803,0.097,0.088,-3.29,356.7,0.0121765,-0.173752,0,719.062,-839.877,-0.367188,0.546875,63.1817,92243
0.0950317,-0.0728149,1.07312,0.061,-0.057,-3.34,356.65,0.0124664,-0.172241,0,748.363,-795.482,-0.367188,0.554688,63.2007,92257
0.170105,-0.117859,0.77478,0.149,-0.1,-3.54,356.45,0.0135193,-0.167648,0,775.194,-763.592,-0.367188,0.554688,63.2394,92303
0.170105,-0.117859,0.77478,0.149,-0.1,-3.54,356.45,0.0135193,-0.167648,0,724.585,-898.917,-0.367188,0.554688,63.2424,92303
-0.0516357,0.0709229,0.943298,-0.089,0.075,-3.67,356.32,0.014389,-0.164429,0,794.502,-872.753,-0.367188,0.554688,63.2678,92332
0.230896,-0.116516,0.851685,0.206,-0.094,-3.73,356.26,0.0148315,-0.162781,0,773.156,-746.018,-0.367188,0.554688,63.2806,92347
0.0802002,-0.0128174,1.13519,0.039,0,-3.79,356.2,0.0154572,-0.161194,0,768.256,-761.789,-0.367188,0.5625,63.301,92363
0.357544,0.0510864,0.473938,0.335,0.078,-3.91,356.08,0.0167999,-0.157745,0,671.75,-792.236,-0.367188,0.5625,63.322,92392
-0.269836,0.173584,1.1828,-0.324,0.161,-3.96,356.03,0.0175629,-0.155777,0,732.064,-805.218,-0.367188,0.5625,63.3408,92407
0.0292358,-0.065918,0.498413,0.015,-0.06,-4.01,355.98,0.0181274,-0.153763,0,695.193,-840.583,-0.367188,0.5625,63.3623,92423
-0.0983887,0.16156,1.28125,-0.156,0.16,-4.05,355.94,0.0185852,-0.151657,0,767.695,-642.158,-0.367188,0.5625,63.3804,92437
0.124207,0.0855713,0.807129,0.088,0.097,-4.14,355.85,0.0194092,-0.147247,0,697.326,-598.337,-0.367188,0.5625,63.4008,92467
-0.024231,0.107056,1.02081,-0.068,0.108,-4.19,355.8,0.0198822,-0.144882,0,625.117,-936.768,-0.367188,0.5625,63.4208,92483
0.16925,-0.124268,0.816711,0.149,-0.109,-4.24,355.75,0.020401,-0.142517,0,666.267,-920.26,-0.367188,0.5625,63.4405,92497
0.0789185,-0.0300293,0.968079,0.046,-0.021,-4.34,355.65,0.0212708,-0.137863,0,647.417,-931.663,-0.367188,0.5625,63.4603,92527
-0.104797,-0.0245972,0.845947,-0.132,-0.031,-4.4,355.59,0.0215912,-0.135574,0,646.642,-873.973,-0.367188,0.5625,63.4801,92543
0.0739746,0.0812378,1.4538,0.016,0.089,-4.47,355.52,0.0218353,-0.13324,0,746.38,-831.705,-0.367188,0.5625,63.5007,92557
-0.160339,0.0728149,1.3609,-0.213,0.06,-4.58,355.41,0.0224915,-0.128342,0,774.833,-919.329,-0.367188,0.5625,63.5215,92587
-0.0973511,-0.10791,0.682068,-0.111,-0.115,-4.64,355.35,0.022583,-0.125885,0,735.375,-737.11,-0.367188,0.5625,63.5407,92603
-0.0288086,0.0108643,1.20947,-0.07,0.008,-4.76,355.23,0.0225677,-0.121078,0,710.177,-918.442,-0.367188,0.5625,63.5627,92632
-0.0795898,0.153503,1.12457,-0.13,0.146,-4.9,355.09,0.0226898,-0.116104,0,788.892,-764.701,-0.367188,0.5625,63.5945,92663
-0.0795898,0.153503,1.12457,-0.13,0.146,-4.9,355.09,0.0226898,-0.116104,0,749.681,-859.697,-0.367188,0.570312,63.602,92663
0.113281,0.00524902,1.02838,0.075,0.014,-5.06,354.93,0.0227966,-0.108231,0,698.105,-908.224,-0.367188,0.570312,63.6436,92707
0.113281,0.00524902,1.02838,0.075,0.014,-5.06,354.93,0.0227966,-0.108231,0,815.328,-819.807,-0.367188,0.570312,63.6454,92707
0.0933838,-0.027832,0.986694,0.059,-0.02,-5.12,354.87,0.0229187,-0.105591,0,790.326,-891.504,-0.367188,0.570312,63.6606,92722
0.0905762,0.0293579,0.686951,0.062,0.036,-5.18,354.81,0.0231171,-0.102951,0,913.993,-866.213,-0.367188,0.570312,63.6819,92737
-0.00701904,-0.121887,0.829895,-0.026,-0.123,-5.28,354.71,0.0233612,-0.0974579,0,747.105,-845.094,-0.367188,0.570312,63.7008,92767
0.0458984,0.0328369,0.976929,0.006,0.035,-5.34,354.65,0.023407,-0.0947876,0,764.292,-880.437,-0.367188,0.570312,63.7222,92782
0.0367432,-0.0319824,1.12201,0,-0.029,-5.4,354.59,0.023407,-0.0921021,0,688.776,-877.925,-0.367188,0.570312,63.7407,92797
0.0586548,0.00866699,0.799316,0.029,0.013,-5.53,354.46,0.0229492,-0.0894318,0,725.979,-915.206,-0.367188,0.570312,63.7624,92827
-0.0518799,0.11792,1.33917,-0.111,0.108,-5.65,354.34,0.0223846,-0.0892792,0,794.818,-727.934,-0.367188,0.570312,63.7928,92857
-0.0518799,0.11792,1.33917,-0.111,0.108,-5.65,354.34,0.0223846,-0.0892792,0,756.458,-874.814,-0.367188,0.570312,63.8013,92857
-0.0217896,0.0333252,1.08209,-0.063,0.026,-5.76,354.23,0.0213623,-0.089035,0,786.287,-837.135,-0.367188,0.570312,63.8217,92887
-0.0913696,0.00805664,0.981812,-0.127,-0.005,-5.82,354.17,0.0206451,-0.088913,0,754.176,-691.013,-0.367188,0.570312,63.841,92902
-0.0119019,0.0805664,0.682007,-0.044,0.074,-5.93,354.06,0.0192413,-0.0888672,0,771.516,-740.028,-0.367188,0.570312,63.8619,92932
-0.0829468,0.0846558,1.38568,-0.14,0.065,-5.99,354,0.0184174,-0.0887299,0,734.457,-986.534,-0.367188,0.570312,63.8813,92947
0.00146484,-0.0245361,0.825256,-0.025,-0.029,-6.04,353.95,0.0175018,-0.0885773,0,724.192,-944.02,-0.367188,0.570312,63.9019,92962
-0.012207,0.0901489,0.637756,-0.044,0.084,-6.1,353.89,0.0165253,-0.0883789,0,720.331,-809.356,-0.367188,0.570312,63.92,92977
0.160706,0.0211182,0.724487,0.13,0.033,-6.21,353.78,0.0145874,-0.087677,0,655.437,-846.919,-0.367188,0.578125,63.9405,93007
0.0732422,0.122803,1.09546,0.02,0.122,-6.27,353.72,0.0137634,-0.0871735,0,773.694,-927.73,-0.367188,0.59375,63.961,93022
-0.0178223,-0.0793457,1.02911,-0.047,-0.088,-6.34,353.65,0.0129242,-0.0866547,0,754.916,-953.198,-0.367188,0.601562,63.9808,93037
0.0322266,-0.0279541,0.78241,0.005,-0.028,-6.48,353.51,0.0112305,-0.0858917,0,775.224,-905.182,-0.367188,0.601562,64.0005,93067
0.0419922,-0.0460205,1.11517,0.003,-0.047,-6.56,353.43,0.0112305,-0.0855865,0,704.201,-857.706,-0.375,0.601562,64.0208,93082
0.191162,-0.00463867,1.0874,0.149,0.011,-6.64,353.35,0.011322,-0.0852966,0,797.703,-963.391,-0.414062,0.601562,64.0408,93097
-0.020874,-0.0339966,0.793091,-0.047,-0.04,-6.79,353.2,0.011673,-0.0847778,0,777.786,-814.863,-0.453125,0.601562,64.0619,93127
-0.0578613,0.0183716,1.38409,-0.111,0.004,-6.88,353.11,0.0117035,-0.0845642,0,727.114,-895.375,-0.5,0.601562,64.0815,93142
 0.125,-0.0771484,0.73999,0.104,-0.064,-7.04,352.95,0.0119781,-0.0843048,0,756.172,-865.688,-0.53125,0.601562,64.1012,93172
-0.153137,-0.0962524,1.21875,-0.186,-0.12,-7.1,352.9,0.0121307,-0.0843506,0,866.964,-861.883,-0.546875,0.601562,64.1216,93187
0.144287,-0.0419922,0.922119,0.114,-0.027,-7.14,352.85,0.0122375,-0.0844879,0,821.018,-929.584,-0.5625,0.5,64.1403,93202
0.0290527,-0.0997925,1.13654,-0.001,-0.1,-7.2,352.79,0.0124512,-0.0848389,0,855.798,-430.348,-0.585938,0.46875,64.162,93232
0.0897827,-0.0647583,0.826599,0.066,-0.056,-7.25,352.74,0.0125732,-0.085144,0,925.54,-946.432,-0.585938,0.46875,64.1809,93247
-0.142273,0.0184937,1.08929,-0.182,-0.003,-7.28,352.71,0.012619,-0.0855103,0,826.822,-859.845,-0.648438,0.390625,64.2013,93262
-0.0271606,-0.0895386,0.976685,-0.049,-0.095,-7.28,352.71,0.0124664,-0.0864716,0,843.739,-860.289,-0.679688,0.351562,64.2217,93292
-0.0102539,0.0262451,0.790833,-0.039,0.022,-7.27,352.72,0.0123291,-0.0870819,0,882.574,-1016.42,-0.710938,0.296875,64.2406,93307
-0.187683,-0.017395,0.879517,-0.213,-0.043,-7.25,352.74,0.011795,-0.0883026,0,919.836,-736.54,-0.75,0.21875,64.273,93337
0.138062,0.230103,1.12622,0.072,0.241,-7.2,352.79,0.0113525,-0.0887909,0,1039.88,-816.793,-0.765625,0.148438,64.281,93352
-0.102783,0.0834961,1.0163,-0.143,0.064,-7.11,352.88,0.0108643,-0.0890808,0,945.224,-681.315,-0.78125,0.09375,64.3022,93367
-0.119507,0.0928955,1.06696,-0.16,0.07,-6.97,353.02,0.0101624,-0.0892639,0,1011.33,-554.401,-0.828125,0.0390625,64.3209,93382
-0.0894775,0.0758667,0.865845,-0.119,0.056,-6.57,353.42,0.00791931,-0.0890961,0,1019.21,-548.622,-0.914062,0.0078125,64.3407,93412
-0.0384521,-0.0641479,0.606689,-0.045,-0.074,-6.31,353.68,0.00656128,-0.0889282,0,956.48,-542.594,-0.976562,0.0078125,64.361,93427
-0.175842,0.407593,1.41675,-0.248,0.37,-6.03,353.96,0.00500488,-0.0885773,0,968.476,-519.009,-1,0.0078125,64.3809,93442
-0.253723,0.102783,1.3811,-0.29,0.061,-5.38,354.61,0.00106812,-0.0873108,0,1072.96,-812.942,-1,0.0078125,64.4011,93472
-0.0576782,-0.0991821,0.318726,-0.055,-0.107,-5.04,354.95,-0.00126648,-0.0866852,0,1089.68,-728.836,-1,0.0078125,64.4206,93487
-0.122742,-0.0535889,1.12677,-0.139,-0.072,-4.69,355.3,-0.00375366,-0.0861816,0,1060.05,-720.773,-1,0.0078125,64.4408,93502
-0.419922,-0.0891113,1.15912,-0.432,-0.124,-3.98,356.01,-0.00946045,-0.0857086,0,1057.14,-792.613,-1,0.0078125,64.4609,93532
-0.118408,-0.0566406,0.527893,-0.122,-0.065,-3.62,356.37,-0.0128937,-0.0857086,0,1088.32,-766.665,-1,-0,64.4813,93547
0.0585938,-0.162964,1.19769,0.052,-0.162,-3.28,356.71,-0.0163574,-0.0858459,0,1088.32,-804.214,-1,-0.0944882,64.5008,93562
-0.0298462,-0.0177612,0.823242,-0.04,-0.018,-2.6,357.39,-0.0233917,-0.0866547,0,1096.19,-618.601,-1,-0.259843,64.5221,93592
0.0515747,0.0757446,0.698364,0.039,0.078,-2.28,357.71,-0.0269318,-0.0870667,0,1254.39,-401.284,-1,-0.370079,64.5404,93607
-0.380554,0.122131,1.22736,-0.395,0.108,-1.89,358.1,-0.0307159,-0.0873566,0,1088.32,-130.835,-1,-0.448819,64.5621,93622
-0.189758,0.10968,0.951294,-0.199,0.105,-1.44,358.55,-0.0349121,-0.0874939,0,1198.18,-21.4053,-1,-0.464567,64.5801,93637
-0.114624,0.123535,0.80072,-0.118,0.121,-0.42,359.57,-0.0440216,-0.0872498,0,1174.05,159.77,-1,-0.346457,64.6008,93667
-0.152405,0.222778,1.91699,-0.151,0.215,0.17,0.17,-0.0488586,-0.0868225,0,1234.11,184.211,-1,-0.165354,64.6208,93682
-0.210144,0.124878,0.325867,-0.208,0.126,0.78,0.78,-0.0539398,-0.0861511,0,1187.01,100.544,-1,-0.0551181,64.6406,93697
-0.0961914,0.178162,1.54083,-0.083,0.167,2.14,2.14,-0.0647278,-0.0840454,0,1254.31,90.2332,-1,0.0078125,64.6613,93727
-0.153137,0.0812988,1.00879,-0.145,0.079,2.87,2.87,-0.0703583,-0.0826874,0,1276.32,-159.748,-1,0.0078125,64.681,93742
-0.180908,0.103271,0.98114,-0.162,0.111,5.91,5.91,-0.0943146,-0.0762939,0,1314.75,-500.526,-1,0.0078125,64.7342,93802
-0.180908,0.103271,0.98114,-0.162,0.111,5.91,5.91,-0.0943146,-0.0762939,0,1227.14,-469.936,-1,0.0078125,64.7431,93802
-0.0741577,0.0219116,0.888428,-0.062,0.022,7.38,7.38,-0.106995,-0.0726929,0,1233.43,-549.813,-1,0.0078125,64.7608,93831
-0.0665894,-0.110474,1.10419,-0.07,-0.11,8.1,8.1,-0.113449,-0.0709381,0,1232.97,-483.267,-1,-0.370079,64.7808,93846
-0.123108,0.0498047,0.928589,-0.105,0.06,8.78,8.78,-0.120026,-0.0692291,0,1313.37,-366.005,-1,-0.622047,64.8015,93862
0.360535,-0.00549316,1.70667,0.375,-0.083,10.1,10.1,-0.13327,-0.0656128,0,1199.9,-169.115,-1,-0.905512,64.8208,93891
0.105286,0.0762939,1.05402,0.131,0.046,10.77,10.77,-0.13945,-0.0638275,0,1206.27,456.913,-1,-1,64.8411,93906
-0.259766,0.321167,0.947937,-0.177,0.358,11.48,11.48,-0.145676,-0.0617828,0,1124.99,570.369,-1,-1,64.8602,93922
0.0508423,0.232544,0.951233,0.113,0.204,12.22,12.22,-0.151932,-0.0593414,0,1138.11,728.704,-1,-1,64.8802,93936
-0.00982666,0.308105,1.47125,0.083,0.279,13.74,13.74,-0.16452,-0.0536194,0,1212.86,804.57,-1,-1,64.9005,93966
0.0166626,0.273376,0.971191,0.099,0.244,14.55,14.55,-0.170715,-0.0502319,0,1159.82,853.752,-1,-1,64.9214,93982
-0.286072,0.365906,0.732544,-0.165,0.414,15.4,15.4,-0.176956,-0.046402,0,1062.81,956.8,-1,-1,64.9407,93996
-0.0065918,0.235657,1.1734,0.086,0.195,17.27,17.27,-0.189743,-0.0374908,0,1211.39,840.054,-1,-1,64.9618,94026
-0.278625,0.385742,0.850586,-0.128,0.429,18.24,18.24,-0.196152,-0.0324554,0,1261.27,820.984,-1,-1,64.9806,94042
-0.114197,0.297546,1.00299,0.008,0.286,19.28,19.28,-0.202652,-0.0269318,0,1163.81,846.238,-1,-1,65.001,94056
-0.286621,0.256287,0.704224,-0.16,0.316,21.46,21.46,-0.215164,-0.0150146,0,1165.37,793.556,-1,-1,65.0208,94086
-0.0715942,0.448914,1.07611,0.124,0.399,22.59,22.59,-0.22142,-0.00842285,0,1049.81,837.872,-1,-1,65.0402,94102
0.153076,0.38147,1.02197,0.316,0.233,24.97,24.97,-0.233032,0.00617981,0,1227.67,733.084,-1,-1,65.0611,94131
0.0144043,0.31189,0.64325,0.161,0.241,26.2,26.2,-0.238327,0.0140076,0,1148.57,725.268,-1,-1,65.0811,94146
-0.259033,0.358582,1.19366,-0.043,0.374,27.47,27.47,-0.243546,0.0222626,0,1103.51,854.19,-1,-1,65.101,94162
-0.359375,0.34967,0.826843,-0.121,0.433,30.05,30.05,-0.253937,0.0402832,0,958.957,892.22,-1,-1,65.1207,94191
0.041626,0.186707,1.04114,0.151,0.075,31.38,31.38,-0.259125,0.0499115,0,1058.48,718.159,-1,-1,65.1409,94206
-0.0866089,0.315918,0.861938,0.114,0.257,32.72,32.72,-0.26413,0.0597534,0,1016.78,739.126,-1,-1,65.1604,94222
-0.156006,0.360596,1.20697,0.095,0.305,34.1,34.1,-0.268997,0.0699921,0,1106.01,886.918,-1,-1,65.181,94236
-0.0974121,0.0956421,1.17639,0.002,0.051,36.91,36.91,-0.278473,0.0911865,0,818.029,803.794,-1,-1,65.2006,94266
-0.0317993,0.195862,0.694519,0.11,0.122,38.33,38.33,-0.283112,0.101959,0,1046.19,910.498,-1,-1,65.2214,94282
-0.0656738,0.0795288,0.674988,0.015,0.051,41.22,41.22,-0.291809,0.123825,0,982.029,918.147,-1,-1,65.2405,94311
-0.261719,0.213501,0.807739,-0.032,0.271,42.69,42.69,-0.296097,0.135025,0,1001.25,798.531,-1,-1,65.2607,94326
0.172241,0.134033,1.3761,0.241,-0.132,44.19,44.19,-0.300247,0.146301,0,1008.73,962.325,-1,-1,65.2806,94342
-0.0507812,0.273499,0.828552,0.178,0.154,47.19,47.19,-0.30777,0.169312,0,1015.74,916.17,-1,-1,65.3009,94371
0.0465088,0.272644,0.982971,0.249,0.063,48.72,48.72,-0.311127,0.181107,0,1105.09,1012.2,-1,-1,65.3208,94386
-0.133484,0.293945,1.3299,0.154,0.18,50.27,50.27,-0.314194,0.193054,0,1102.29,1043.79,-1,-0.779528,65.3407,94402
-0.0991211,0.267822,0.744324,0.161,0.176,53.37,53.37,-0.319794,0.217575,0,1094.87,1031.3,-1,-0.401575,65.3607,94431
0.0977173,0.311035,0.999512,0.317,0.012,54.95,54.95,-0.322159,0.230057,0,1203.22,735.024,-1,-0.015748,65.3809,94446
0.0474854,0.17157,1.03992,0.174,-0.033,56.53,56.53,-0.324203,0.242523,0,1183.99,397.915,-1,0.507812,65.4016,94461
-0.0905762,-0.0545044,1.08032,-0.088,-0.041,59.71,59.71,-0.32814,0.268372,0,1181.82,134.287,-1,0.882812,65.4211,94491
-0.0492554,-0.218872,1.14948,-0.21,-0.158,61.25,61.25,-0.330338,0.281311,0,970.261,-359.092,-1,1,65.4402,94506
0.705627,-0.379761,1.12469,-0.004,-0.888,62.66,62.66,-0.332687,0.293533,0,1107.85,-570.809,-1,1,65.4601,94521
0.19458,-0.999817,0.953491,-0.804,-0.656,64.98,64.98,-0.339096,0.314682,0,997.059,-445.941,-1,1,65.4808,94551
0.51123,-0.62439,0.750122,-0.341,-0.759,65.91,65.91,-0.343536,0.323792,0,1129.37,-639.059,-1,1,65.5004,94566
0.568665,-0.547424,0.69696,-0.257,-0.767,66.73,66.73,-0.348389,0.331848,0,1091.52,-693.987,-1,1,65.5204,94581
0.397339,-0.211792,0.668823,-0.024,-0.464,68.04,68.04,-0.358917,0.345276,0,1187.15,-910.167,-1,1,65.5422,94611
0.341736,-0.434937,0.74762,-0.251,-0.492,68.59,68.59,-0.364456,0.350952,0,1259.05,-919.583,-1,1,65.5623,94626
0.658447,-0.579834,0.946289,-0.267,-0.836,69.08,69.08,-0.370346,0.355728,0,1173.98,-1115.14,-1,1,65.5802,94641
0.353516,-0.333069,0.819031,-0.151,-0.448,69.76,69.76,-0.382706,0.362854,0,1169.04,-1199.4,-1,1,65.6007,94671
0.261414,-0.230591,0.741211,-0.091,-0.323,69.98,69.98,-0.38913,0.365585,0,1069.4,-1142.27,-1,1,65.6204,94686
0.198853,-0.382996,1.49573,-0.218,-0.309,70.15,70.15,-0.395767,0.367874,0,1052.58,-1192.18,-1,1,65.64,94701
0.211609,-0.290466,0.730896,-0.162,-0.286,70.32,70.32,-0.409668,0.371307,0,1232.67,-1333.07,-1,1,65.6602,94731
0.28241,-0.301392,1.40344,-0.112,-0.347,70.36,70.36,-0.416901,0.372421,0,1434.31,-1170.48,-1,1,65.6804,94746
0.106934,-0.204529,0.623901,-0.121,-0.158,70.34,70.34,-0.424286,0.373184,0,1364.63,-1494.88,-1,1,65.7005,94761
0.124878,-0.0819702,0.734375,0.007,-0.13,70.33,70.33,-0.431763,0.373734,0,1404.4,-1459.75,-1,1,65.7206,94776
-0.365845,-0.138245,1.46442,-0.167,0.328,70.33,70.33,-0.446991,0.375015,0,1461.56,-1141.23,-1,1,65.7404,94806
-0.0233765,-0.221069,0.0915527,-0.21,-0.05,70.35,70.35,-0.454971,0.375961,0,1347.62,-1520.45,-1,1,65.7607,94821
0.238403,-0.14917,1.21619,0.01,-0.247,70.36,70.36,-0.471298,0.377808,0,1332.89,-1393.05,-1,1,65.7806,94851
0.0411377,0.207092,1.56091,0.302,0.063,70.37,70.37,-0.479279,0.378555,0,1455.92,-1479.07,-1,1,65.8003,94866
0.91803,0.106812,0.127258,0.416,-0.825,70.33,70.33,-0.486755,0.378784,0,1397.72,-650.872,-1,1,65.8211,94881
-0.00927734,-0.202759,0.435547,-0.166,-0.048,70.37,70.37,-0.501053,0.378708,0,1598.08,-1513.2,-1,1,65.8411,94911
0.0469971,-0.0828247,0.194458,-0.049,-0.067,70.34,70.34,-0.508377,0.378693,0,1491.76,-1211.75,-1,1,65.8606,94926
-0.228088,0.031189,1.99994,0.076,0.276,70.33,70.33,-0.515686,0.378815,0,1372.87,-1354.1,-1,1,65.8807,94941
0.256409,-0.229187,0.0147705,-0.128,-0.317,70.31,70.31,-0.523026,0.378906,0,1525.2,-1666.11,-1,1,65.9003,94956
-0.136902,-0.114868,0.484131,-0.123,0.103,70.28,70.28,-0.538177,0.37941,0,1431.23,-1575.8,-1,1,65.9208,94986
0.412964,-0.128113,1.04169,0.085,-0.402,70.27,70.27,-0.545868,0.379608,0,1710.13,-1656.86,-1,1,65.9406,95001
0.311218,0.0272827,1.09637,0.199,-0.251,70.26,70.26,-0.561035,0.379578,0,1523.69,-1807.66,-1,1,65.9611,95031
0.0485229,-0.157776,1.05182,-0.065,-0.071,70.28,70.28,-0.568451,0.379303,0,1470.8,-1459.85,-1,1,65.9808,95046
-0.224121,0.071167,1.00531,0.055,0.265,70.29,70.29,-0.575882,0.379166,0,1677.43,-1534.33,-1,1,66.0018,95061
-0.0281372,-0.18811,0.578308,-0.15,-0.019,70.34,70.34,-0.590637,0.378571,0,1436.78,-1491.42,-1,1,66.0232,95091
-0.0529785,0.184082,1.3905,0.239,0.146,70.39,70.39,-0.605469,0.378372,0,1671.4,-1364.82,-1,1,66.0646,95121
-0.0149536,0.0367432,0.72583,0.072,0.047,70.44,70.44,-0.619904,0.379166,0,1608.88,-1862.89,-1,1,66.0841,95151
-0.0571899,0.0897217,0.947876,0.121,0.108,70.5,70.5,-0.626984,0.379776,0,1599.1,-1558.36,-1,1,66.1001,95166
0.245056,0.0309448,0.762695,0.155,-0.197,70.51,70.51,-0.640991,0.380829,0,1608.1,-1512.4,-1,1,66.125,95196
-0.126709,0.00231934,0.306213,-0.022,0.129,70.5,70.5,-0.647873,0.381226,0,1672.8,-1265.42,-1,1,66.1414,95211
0.426697,-0.27533,1.20026,-0.046,-0.458,70.46,70.46,-0.654816,0.381378,0,1738.53,-1526.14,-1,1,66.1607,95226
-0.0218506,-0.0361938,1.75787,0.06,0.055,70.44,70.44,-0.661728,0.381271,0,1659.61,-1815.38,-1,1,66.181,95241
-0.198364,0.031189,0.755859,0.006,0.218,70.45,70.45,-0.675415,0.380295,0,1709.69,-1755.31,-1,1,66.2004,95271
-0.121338,0.109131,1.99994,0.175,0.205,70.47,70.47,-0.682129,0.37999,0,1760.72,-1903.67,-1,1,66.2208,95286
0.110413,-0.106018,-0.135559,-0.07,-0.143,70.45,70.45,-0.688751,0.379745,0,1686.77,-1895.02,-1,1,66.2413,95301
0.154358,-0.150085,0.592468,-0.057,-0.178,70.49,70.49,-0.702087,0.379501,0,1767.72,-1657.14,-1,1,66.2608,95331
0.399353,0.052124,1.48505,0.262,-0.319,70.53,70.53,-0.708618,0.379074,0,1595.41,-1663.76,-1,1,66.2806,95346
0.0809326,-0.0133057,0.546509,0.043,-0.064,70.55,70.55,-0.714935,0.378387,0,1571.34,-1541.9,-1,1,66.3011,95361
0.256409,0.107239,0.96521,0.236,-0.182,70.62,70.62,-0.721069,0.377533,0,1676.59,-1712.33,-1,1,66.3212,95376
0.293579,0.246826,1.1106,0.386,-0.167,70.68,70.68,-0.733337,0.376129,0,1683.79,-1557.39,-1,1,66.3414,95406
0.416931,-0.260864,-0.385071,-0.127,-0.49,70.71,70.71,-0.739273,0.375031,0,1627.6,-1685.06,-1,1,66.3607,95421
0.403076,-0.0510254,-0.499634,0.059,-0.412,70.76,70.76,-0.750153,0.372528,0,1860.98,-1650.85,-1,1,66.3805,95451
0.086853,-0.0888672,1.88129,0.04,-0.055,70.78,70.78,-0.755325,0.370941,0,1704.74,-1665.7,-1,1,66.401,95466
0.0136108,-0.192017,1.22406,-0.115,-0.04,70.78,70.78,-0.760529,0.369278,0,1605.39,-1603.21,-1,1,66.4202,95481
-0.0857544,0.167786,1.05701,0.18,0.166,70.74,70.74,-0.770477,0.365219,0,1585.67,-1691.76,-1,1,66.4407,95511
-0.0153809,-0.119263,1.15704,-0.063,0.009,70.73,70.73,-0.775223,0.363235,0,1782.21,-1600.26,-1,1,66.46,95525
0.321228,-0.120667,0.515625,0.016,-0.326,70.71,70.71,-0.779999,0.361038,0,1690.62,-1664.86,-1,1,66.4803,95541
0.287415,-0.0273438,0.138855,0.075,-0.275,70.72,70.72,-0.788651,0.35643,0,1573.32,-1847.4,-1,1,66.5013,95570
-0.425842,-0.0820312,1.63239,-0.148,0.432,70.73,70.73,-0.792877,0.354218,0,1689.9,-1957.14,-1,1,66.5208,95585
0.368469,-0.0829468,1.0127,0.085,-0.343,70.75,70.75,-0.797134,0.352051,0,1703.58,-1771.48,-1,1,66.5409,95601
-0.0142822,-0.0861206,1.93463,-0.006,0.043,70.83,70.83,-0.805176,0.347076,0,1704.74,-1870.91,-1,0.898438,66.5623,95630
0.0463867,0.0114746,1.03058,0.067,-0.01,70.87,70.87,-0.809097,0.344589,0,1676.31,-1900.42,-1,0.78125,66.5809,95645
0.579651,-0.0810547,-0.147827,0.106,-0.578,70.89,70.89,-0.812897,0.341705,0,1722.65,-1889.11,-1,0.609375,66.6011,95661
-0.0116577,0.0822754,0.855713,0.106,0.061,70.99,70.99,-0.819397,0.33609,0,1634.79,-1747.34,-1,0.335938,66.6203,95690
0.194214,-0.0477905,0.908691,0.052,-0.171,71.04,71.04,-0.822357,0.333374,0,1787.47,-1328.29,-1,0.109375,66.6409,95705
-0.172485,0.231506,0.556885,0.181,0.25,71.23,71.23,-0.827835,0.329117,0,1882.18,-977.04,-1,0.0546875,66.6741,95735
-0.0344849,0.518372,0.930786,0.505,0.211,71.72,71.72,-0.831879,0.327667,0,1715.41,-776.247,-1,0.0078125,66.6959,95765
-0.0344849,0.518372,0.930786,0.505,0.211,71.72,71.72,-0.831879,0.327667,0,1714.82,-609.552,-1,0.0078125,66.7004,95765
0.373779,-0.0250244,0.889893,0.11,-0.352,72.1,72.1,-0.833206,0.327209,0,1556.18,-996.512,-1,0.0078125,66.7207,95781
0.0715332,0.288818,0.748352,0.31,0.023,72.9,72.9,-0.835022,0.326477,0,1459.43,-900.941,-0.929688,0.0078125,66.741,95810
0.0323486,0.227295,1.99994,0.256,0.042,73.35,73.35,-0.835373,0.326279,0,1693.19,-1198.9,-0.875,0.0078125,66.76,95825
-0.22937,0.138062,-0.0793457,0.067,0.258,73.76,73.76,-0.835495,0.326279,0,1484.01,-1198.97,-0.828125,0.0078125,66.7808,95841
0.903259,-0.0551758,1.36249,0.201,-0.882,74.49,74.49,-0.835205,0.326523,0,1478.09,-1210.58,-0.757812,0.0078125,66.8015,95870
0.130005,0.148315,0.621826,0.182,-0.084,74.77,74.77,-0.834671,0.32576,0,1502.29,-1393.53,-0.703125,0.0078125,66.8206,95885
0.209656,0.00286865,1.54291,0.066,-0.194,75.02,75.02,-0.833984,0.324829,0,1307.19,-1168.91,-0.695312,0.0078125,66.8401,95901
-0.0609741,-0.0388794,-0.596191,-0.056,0.041,75.28,75.28,-0.83194,0.323074,0,1330.32,-1422.78,-0.6875,0.0078125,66.8609,95930
-0.412354,0.480896,1.46454,0.366,0.529,75.38,75.38,-0.830627,0.322662,0,1347.89,-1326.61,-0.6875,0.0078125,66.8806,95945
-0.429565,0.242432,1.61676,0.128,0.489,75.43,75.43,-0.828979,0.322937,0,1233.27,-1429.49,-0.6875,0.0078125,66.9017,95961
-0.272522,0.409302,0.923889,0.327,0.372,75.46,75.46,-0.825089,0.32373,0,1200.19,-1303.19,-0.6875,0.0078125,66.9209,95990
0.216431,0.0283813,1.12653,0.081,-0.193,75.48,75.48,-0.822739,0.324249,0,1307.45,-1464.66,-0.6875,0.0078125,66.9418,96005
0.104553,0.0722046,0.469177,0.093,-0.079,75.44,75.44,-0.814789,0.325684,0,1309.93,-1205.55,-0.6875,0.0078125,66.9781,96050
0.104553,0.0722046,0.469177,0.093,-0.079,75.44,75.44,-0.814789,0.325684,0,1246.26,-1241.23,-0.6875,0.0078125,66.9842,96050
-0.457581,0.273132,1.67169,0.14,0.525,75.4,75.4,-0.811768,0.326385,0,1119.82,-1181.13,-0.679688,0.0078125,67,96065
0.0230103,0.20105,-0.00585938,0.2,0.028,75.39,75.39,-0.808533,0.327469,0,1256.04,-1413.93,-0.601562,0.0078125,67.0205,96081
-0.142822,0.010376,1.99994,-0.045,0.154,75.39,75.39,-0.801559,0.329971,0,1238.24,-1115.08,-0.578125,0.0078125,67.0409,96110
0.198364,0.00506592,0.615112,0.049,-0.185,75.4,75.4,-0.798065,0.331299,0,1217.51,-1315.7,-0.546875,0.0078125,67.0605,96125
0.125854,0.175232,0.750793,0.192,-0.072,75.42,75.42,-0.794388,0.332443,0,1259.37,-1059.04,-0.507812,0.0078125,67.0816,96141
-0.101013,0.261475,1.00806,0.213,0.17,75.43,75.43,-0.786621,0.334274,0,1021.55,-1163.13,-0.5,0.0078125,67.1007,96170
0.0623169,0.18512,1.02405,0.18,-0.006,75.46,75.46,-0.782379,0.335266,0,1206.78,-1085.13,-0.492188,0.0078125,67.1203,96185
0.344788,0.141602,0.682922,0.212,-0.294,75.49,75.49,-0.777893,0.33606,0,1110.56,-1118.38,-0.492188,0.0078125,67.1409,96200
0.0966187,0.300781,0.763977,0.298,-0.013,75.45,75.45,-0.767731,0.337234,0,1093.73,-1186.17,-0.484375,0.0078125,67.1635,96230
-0.172852,0.224731,1.21497,0.146,0.23,75.42,75.42,-0.762146,0.337967,0,1004.82,-966.184,-0.484375,0.0078125,67.18,96245
0.0488892,0.086853,0.198975,0.091,-0.024,75.4,75.4,-0.756378,0.338852,0,1150.68,-1150.81,-0.476562,0.0078125,67.2007,96260
0.157349,0.163757,0.859619,0.173,-0.109,75.39,75.39,-0.744598,0.341263,0,1071.87,-973.568,-0.476562,0.0078125,67.2213,96290
-0.0680542,0.208923,1.29224,0.146,0.12,75.38,75.38,-0.738419,0.34256,0,1019.47,-927.3,-0.476562,0.0078125,67.2404,96305
0.263306,0.0170898,0.747986,0.059,-0.249,75.38,75.38,-0.732101,0.343781,0,974.374,-959.923,-0.476562,0.0078125,67.261,96320
0.215454,0.125732,0.973511,0.142,-0.174,75.37,75.37,-0.718994,0.3461,0,988.582,-899.928,-0.476562,0.0078125,67.2803,96350
-0.00567627,0.112427,1.34753,0.058,0.037,75.38,75.38,-0.712204,0.347168,0,934.579,-1009.13,-0.476562,0.0078125,67.3039,96365
0.0090332,0.0759277,0.879944,0.043,0.011,75.38,75.38,-0.705338,0.348267,0,967.726,-1088.38,-0.476562,0.0078125,67.322,96380
-0.207642,0.11853,1.00995,0.023,0.233,75.4,75.4,-0.691345,0.35025,0,817.027,-922.126,-0.476562,0.0078125,67.3496,96410
0.285156,-0.0107422,0.708435,0.033,-0.277,75.4,75.4,-0.684265,0.351242,0,860.215,-728.916,-0.476562,0.0078125,67.3638,96425
-0.310852,0.350342,1.59528,0.195,0.391,75.4,75.4,-0.677032,0.352295,0,898.432,-723.249,-0.539062,0.0078125,67.3816,96440
-0.0600586,0.210022,0.924622,0.147,0.112,75.45,75.45,-0.662018,0.354477,0,865.614,-1023.7,-0.546875,0.0078125,67.4008,96470
0.198914,0.0941162,1.23352,0.086,-0.166,75.48,75.48,-0.654266,0.355469,0,876.079,-682.338,-0.5625,0.0078125,67.4211,96485
-0.115601,0.0357056,0.730164,-0.026,0.123,75.48,75.48,-0.646484,0.356445,0,885.387,-884.017,-0.570312,0.0078125,67.4403,96500
-0.024353,0.0336914,0.619324,-0.001,0.033,75.51,75.51,-0.630768,0.35849,0,885.308,-772.26,-0.578125,0.0078125,67.4604,96530
-0.277039,-0.00970459,1.00024,-0.124,0.27,75.55,75.55,-0.622971,0.359726,0,863.036,-799.808,-0.585938,0.0078125,67.4802,96545
-0.225159,0.110657,1.11151,0,0.248,75.65,75.65,-0.607605,0.362259,0,866.889,-843.064,-0.585938,0.0078125,67.5041,96575
0.286804,-0.0247192,1.1734,-0.007,-0.28,75.72,75.72,-0.607605,0.363525,0,895.215,-757.863,-0.59375,0.0078125,67.5293,96590
0.0112915,0.0652466,1.0658,0.015,0.007,75.77,75.77,-0.607605,0.364594,0,984.204,-945.671,-0.59375,0.0078125,67.5418,96605
-0.132202,0.0748901,0.503906,0.016,0.148,75.83,75.83,-0.607605,0.365753,0,972.384,-896.539,-0.59375,0.0078125,67.5607,96620
-0.0639038,-0.03125,0.852844,-0.086,0.057,75.96,75.96,-0.607544,0.367813,0,893.455,-901.632,-0.609375,0.0078125,67.5814,96650
0.0993042,0.0393677,1.29803,0,-0.08,76.01,76.01,-0.60759,0.368759,0,889.838,-956.8,-0.632812,0.0078125,67.6009,96665
0.115906,0.0609131,1.01508,0.038,-0.093,76.07,76.07,-0.607605,0.369583,0,793.084,-982.656,-0.65625,0.0078125,67.6212,96680
-0.00939941,-0.078125,0.647522,-0.108,-0.005,76.18,76.18,-0.607605,0.371475,0,860.733,-852.515,-0.671875,0.0078125,67.6408,96710
0.255554,0.0233154,1.15942,0.028,-0.237,76.23,76.23,-0.607681,0.372314,0,925.797,-778.452,-0.679688,0.0078125,67.6606,96725
-0.190979,-0.00891113,0.873596,-0.095,0.189,76.28,76.28,-0.607819,0.373123,0,884.017,-804.311,-0.679688,0.0078125,67.6803,96740
0.0646362,0.0224609,0.947266,-0.008,-0.052,76.4,76.4,-0.6082,0.374863,0,997.108,-833.924,-0.679688,0.0078125,67.7006,96770
-0.0814209,-0.0426025,0.684631,-0.092,0.072,76.47,76.47,-0.608475,0.375702,0,1006.85,-920.556,-0.679688,0.0078125,67.7203,96785
0.107422,-0.0737305,1.25824,-0.101,-0.116,76.56,76.56,-0.608871,0.376526,0,972.053,-943.53,-0.679688,0.0078125,67.7403,96800
0.130737,-0.031189,1.41864,-0.062,-0.129,76.63,76.63,-0.609375,0.377167,0,910.042,-874.049,-0.679688,0.0078125,67.7602,96815
-0.0325317,0.170654,0.975647,0.116,0.075,76.75,76.75,-0.610565,0.378235,0,964.739,-886.879,-0.679688,0.0078125,67.7803,96845
0.0881348,-0.114136,0.696838,-0.12,-0.109,76.82,76.82,-0.61113,0.378754,0,935.279,-854.409,-0.679688,0.0078125,67.8003,96860
0.119324,0.0682373,0.717957,0.064,-0.097,76.98,76.98,-0.612701,0.379562,0,909.38,-942.685,-0.679688,0.0078125,67.8204,96890
-0.105225,0.0141602,0.673462,-0.037,0.109,77.04,77.04,-0.61348,0.379944,0,965.531,-776.82,-0.679688,0.0078125,67.8416,96905
0.0319824,-0.0479736,0.674866,-0.066,-0.037,77.11,77.11,-0.614349,0.380371,0,927.687,-844.916,-0.679688,0.0078125,67.8608,96920
0.247314,-0.0425415,1.00977,-0.026,-0.243,77.25,77.25,-0.616241,0.38092,0,945.94,-800.641,-0.679688,0.0078125,67.8809,96950
-0.0664062,-0.0263672,0.874451,-0.074,0.065,77.3,77.3,-0.617264,0.380981,0,911.494,-942.418,-0.679688,0.0078125,67.9008,96965
-0.00915527,-0.0401611,0.541565,-0.061,0.005,77.35,77.35,-0.618393,0.381073,0,993.345,-1027.27,-0.679688,0.0078125,67.92,96980
0.0175171,0.133057,1.24609,0.086,0.023,77.45,77.45,-0.62059,0.381149,0,967.071,-926.355,-0.679688,0.0078125,67.9415,97010
0.261963,-0.0236816,0.788269,0.004,-0.252,77.5,77.5,-0.621597,0.381012,0,1021.03,-877.77,-0.679688,0.0078125,67.9607,97025
0.0425415,-0.00842285,0.819214,-0.03,-0.036,77.57,77.57,-0.62262,0.380676,0,877.539,-938.747,-0.679688,0.0078125,67.9811,97040
0.0620117,-0.0795898,0.841248,-0.095,-0.068,77.69,77.69,-0.62471,0.380035,0,955.247,-1044,-0.679688,0.0078125,68.0062,97070
0.0166016,0.0249634,1.01428,-0.01,0,77.75,77.75,-0.625854,0.379669,0,946.342,-881.213,-0.679688,0.0078125,68.0205,97085
-0.0671387,0.0852661,0.742859,0.041,0.091,77.81,77.81,-0.626968,0.379349,0,931.619,-908.926,-0.679688,0.0078125,68.0398,97100
0.0274658,-0.0117798,0.701782,-0.031,-0.02,77.94,77.94,-0.628952,0.378799,0,982.222,-799.169,-0.679688,0.0078125,68.0634,97130
0.00128174,-0.0811768,0.710938,-0.105,-0.01,78.02,78.02,-0.630005,0.378479,0,972.006,-920.048,-0.554688,0.0078125,68.0813,97145
0.113159,0.0281372,1.05237,0.011,-0.091,78.09,78.09,-0.631134,0.378098,0,1053.52,-893.975,-0.484375,0.0078125,68.1011,97160
0.0167236,0.0476074,0.601807,0.028,0,78.22,78.22,-0.633118,0.377502,0,944.465,-620.732,-0.34375,0.0078125,68.1206,97190
0.197571,0.067627,0.603821,0.083,-0.171,78.26,78.26,-0.633987,0.377136,0,859.845,-1099.69,-0.171875,0.0078125,68.1421,97205
-0.161499,0.282715,1.34802,0.19,0.232,78.27,78.27,-0.634674,0.376816,0,943.218,-1062.47,-0.0546875,0.0078125,68.1601,97220
0.0119629,0.0675049,0.593872,0.044,0.01,78.27,78.27,-0.63562,0.376328,0,611.92,-846.991,-0.0078125,0.0078125,68.1799,97249
0.0318604,0.365784,1.0307,0.321,0.057,78.26,78.26,-0.635803,0.376099,0,624.902,-811.162,-0.0078125,0.0078125,68.2005,97264
0.541626,0.178711,1.0722,0.236,-0.478,78.22,78.22,-0.63562,0.375595,0,755.744,-693.121,-0.0078125,0.0078125,68.2208,97280
0.0454102,-0.010437,1.05371,-0.054,-0.031,78.08,78.08,-0.63446,0.37381,0,735.402,-705.293,-0.0078125,0.0078125,68.2407,97309
-0.0535278,0.0631104,0.683228,0.015,0.074,78.06,78.06,-0.63385,0.372925,0,781.128,-816.86,-0.0078125,0.0078125,68.2614,97324
-0.0249634,0.130371,1.56854,0.041,0.071,78.07,78.07,-0.633194,0.372131,0,770.743,-798.403,-0.0078125,0.0078125,68.2807,97340
0.0108643,0.152954,0.704102,0.114,0.03,78.08,78.08,-0.631836,0.370544,0,758.236,-858.443,-0.0078125,0.0078125,68.3007,97369
-0.00177002,0.109802,1.02368,0.051,0.036,78.09,78.09,-0.631027,0.369781,0,646.433,-782.32,-0.0078125,0.0078125,68.3202,97384
0.114075,0.106812,1.00751,0.072,-0.077,78.09,78.09,-0.630112,0.368988,0,682.408,-738.689,-0.0078125,0.0078125,68.3406,97400
0.208496,0.174561,1.34155,0.138,-0.151,78.08,78.08,-0.628067,0.367401,0,693.553,-623.772,-0.0078125,0.0078125,68.3603,97429
-0.141052,0.13208,0.656067,0.062,0.173,78.08,78.08,-0.626846,0.366608,0,647.082,-529.269,-0.0078125,0.0078125,68.3809,97444
0.0477905,0.211548,0.907776,0.165,0.007,78.09,78.09,-0.625473,0.365936,0,568.764,-683.083,-0.0078125,0.0078125,68.4001,97460
-0.0213013,0.083374,0.954102,0.021,0.049,78.1,78.1,-0.62233,0.365967,0,649.625,-664.165,-0.0078125,0.0078125,68.423,97489
0.0605469,0.0926514,1.09137,0.038,-0.027,78.1,78.1,-0.620682,0.366028,0,584.693,-564.796,-0.0078125,0.0078125,68.443,97504
-0.0215454,0.0765381,1.05554,0.004,0.049,78.11,78.11,-0.614929,0.365677,0,643.542,-551.678,-0.0078125,0.0078125,68.4784,97549
-0.0215454,0.0765381,1.05554,0.004,0.049,78.11,78.11,-0.614929,0.365677,0,599.018,-649.224,-0.0078125,0.0078125,68.4827,97549
-0.0419922,0.210388,0.819885,0.145,0.094,78.12,78.12,-0.612823,0.365631,0,586.476,-574.234,-0.0078125,0.0078125,68.5002,97564
0.0090332,0.101929,0.947815,0.04,0.023,78.14,78.14,-0.610565,0.365646,0,525.597,-583.72,-0.0078125,0.0078125,68.5208,97580
0.0849609,0.0872803,1.06818,0.032,-0.053,78.16,78.16,-0.605927,0.365829,0,573.033,-492.781,-0.0078125,0.0078125,68.5404,97609
-0.0162964,0.121155,0.867249,0.057,0.051,78.17,78.17,-0.603516,0.365921,0,468.999,-451.131,-0.0078125,0.0078125,68.5606,97624
0.0809326,0.0653076,1.09558,0.006,-0.053,78.18,78.18,-0.601059,0.365997,0,540.789,-561.798,-0.0078125,0.0078125,68.5814,97640
0.0446167,0.165405,1.12799,0.093,0.002,78.2,78.2,-0.595932,0.366211,0,476.27,-456.965,-0.0078125,0.0078125,68.6005,97669
0.0739746,0.110046,0.868958,0.062,-0.039,78.22,78.22,-0.593201,0.366302,0,422.342,-547.091,-0.0078125,0.0078125,68.6208,97684
0.0670166,0.153503,0.764832,0.109,-0.024,78.23,78.23,-0.590363,0.366364,0,474.789,-476.213,-0.0078125,0.0078125,68.6408,97700
0.0714722,0.215271,1.11041,0.143,-0.011,78.26,78.26,-0.584259,0.366333,0,431.062,-432.348,-0.0078125,0.0078125,68.6609,97729
0.0877686,0.117615,1.11774,0.05,-0.047,78.27,78.27,-0.580994,0.366272,0,409.065,-417.371,-0.0078125,0.0078125,68.6843,97744
0.0778198,0.0845337,0.736145,0.043,-0.049,78.28,78.28,-0.577667,0.366135,0,395.742,-429.609,-0.0078125,0.0078125,68.7009,97760
0.101929,0.164368,1.10699,0.096,-0.052,78.31,78.31,-0.570679,0.366089,0,396.928,-381.33,-0.0078125,0.0078125,68.721,97789
0.0709229,0.134216,0.904907,0.075,-0.03,78.32,78.32,-0.567001,0.366028,0,365.364,-334.437,-0.0078125,0.0078125,68.7417,97804
-0.0284424,0.165894,0.918152,0.084,0.073,78.32,78.32,-0.563202,0.366013,0,340.849,-324.617,-0.0078125,0.0078125,68.7602,97820
0.0887451,0.0974731,0.938904,0.039,-0.055,78.34,78.34,-0.555374,0.366119,0,328.882,-349.162,-0.0078125,0.0078125,68.7814,97849
-0.0341187,0.176941,0.875061,0.096,0.08,78.35,78.35,-0.551346,0.366196,0,340.559,-365.858,-0.0078125,0.0078125,68.8001,97864
-0.0247192,0.154114,1.03235,0.062,0.068,78.35,78.35,-0.547195,0.366364,0,270.966,-304.178,-0.0078125,0.0078125,68.8201,97879
0.0566406,0.110168,0.943359,0.042,-0.02,78.37,78.37,-0.538773,0.366837,0,273.467,-291.609,-0.0078125,0.0078125,68.8402,97909
0.0371704,0.116821,0.952332,0.043,0,78.37,78.37,-0.534485,0.367065,0,276.989,-272.695,-0.0078125,0.0078125,68.8608,97924
0.0528564,0.0939331,0.95874,0.023,-0.02,78.37,78.37,-0.530167,0.367264,0,246.102,-298.896,-0.0078125,0.0078125,68.8804,97939
0.0286865,0.122559,1.00201,0.042,0.009,78.38,78.38,-0.521423,0.367645,0,243.146,-251.88,-0.0078125,0.0078125,68.9005,97969
0.0679321,0.132263,0.916809,0.066,-0.028,78.38,78.38,-0.516968,0.367813,0,233.956,-258.248,-0.0078125,0.0078125,68.9207,97984
0.0352783,0.115417,1.01312,0.035,0.001,78.38,78.38,-0.512436,0.367981,0,201.337,-211.097,0.00787402,-0.015748,68.9409,97999
0.0501709,0.121948,1.00684,0.044,-0.012,78.39,78.39,-0.503235,0.36821,0,207.016,-204.491,0.0629921,-0.141732,68.9608,98029
0.0349121,0.0894775,0.898254,0.018,-0.004,78.4,78.4,-0.498566,0.368317,0,128.158,-168.326,0.220472,-0.346457,68.9799,98044
-0.00744629,0.201965,0.950562,0.114,0.059,78.4,78.4,-0.49382,0.368439,0,64.523,-69.7605,0.433071,-0.480315,69.0012,98059
0.027832,0.740051,1.02301,0.631,0.131,78.43,78.43,-0.482788,0.36911,0,53.9524,-14.7226,0.574803,-0.622047,69.0209,98089
0.113525,0.717651,0.90094,0.631,0.041,78.44,78.44,-0.476059,0.369644,0,-27.0662,145.652,0.771654,-0.685039,69.0409,98104
-0.00256348,0.684082,1.0412,0.553,0.148,78.45,78.45,-0.468506,0.3703,0,-270.117,259.393,0.874016,-0.716535,69.0599,98119
0.107788,0.327332,0.824707,0.242,-0.035,78.48,78.48,-0.451508,0.372025,0,-381.257,290.812,0.984252,-0.755906,69.0806,98149
-0.0302124,0.734253,1.1861,0.562,0.183,78.48,78.48,-0.442215,0.373016,0,-621.562,402.966,1,-0.76378,69.1009,98164
0.184387,0.476929,0.618713,0.42,-0.081,78.5,78.5,-0.432251,0.374069,0,-697.788,436.338,1,-0.771654,69.1201,98179
0.0908813,0.554321,0.67218,0.464,0.024,78.53,78.53,-0.410889,0.376007,0,-879.082,605.73,1,-0.771654,69.1407,98209
0.145569,0.485657,1.21747,0.327,-0.04,78.51,78.51,-0.399429,0.376938,0,-688.279,613.046,1,-0.771654,69.1607,98224
0.0168457,0.349976,0.734375,0.236,0.056,78.48,78.48,-0.387573,0.377899,0,-810.11,555.833,1,-0.771654,69.18,98239
0.0996094,0.210205,0.685913,0.121,-0.052,78.38,78.38,-0.363007,0.380112,0,-723.301,698.397,1,-0.787402,69.2006,98269
-0.119507,0.359985,1.27747,0.132,0.193,78.33,78.33,-0.350433,0.381348,0,-784.375,759.965,1,-0.818898,69.221,98284
0.109619,0.168518,0.778198,0.067,-0.07,78.3,78.3,-0.337723,0.38266,0,-858.627,900.09,1,-0.866142,69.2407,98299
-0.0786743,0.402222,1.14783,0.195,0.161,78.22,78.22,-0.311554,0.385223,0,-920.048,939.011,1,-0.905512,69.2612,98329
-0.266357,0.417603,1.0036,0.188,0.346,78.17,78.17,-0.283859,0.388428,0,-1045.75,1063.49,0.929134,-0.913386,69.2901,98359
-0.266357,0.417603,1.0036,0.188,0.346,78.17,78.17,-0.283859,0.388428,0,-941.797,1093.14,0.929134,-0.913386,69.3033,98359
-0.0203247,0.371338,1.37006,0.127,0.093,78.15,78.15,-0.255081,0.391922,0,-1123.53,1202.5,0.708661,-0.937008,69.3207,98389
0.12793,0.32428,0.715881,0.22,-0.06,78.15,78.15,-0.240341,0.393631,0,-1011.28,1124.04,0.102362,-0.992126,69.3409,98404
-0.201294,0.333679,1.1554,0.088,0.26,78.14,78.14,-0.225388,0.395477,0,-983.574,1164.01,-0.0234375,-1,69.36,98419
-0.383179,0.243286,0.86084,0.013,0.419,78.24,78.24,-0.210388,0.400345,0,-976.181,1348.44,-0.09375,-1,69.3809,98449
-0.237671,-0.134094,0.950439,-0.334,0.196,78.33,78.33,-0.210602,0.403427,0,-699.766,1282.71,-0.320312,-1,69.4009,98464
0.0777588,-0.0189819,0.758606,-0.126,-0.088,78.53,78.53,-0.211136,0.40657,0,-461.265,1432.15,-0.523438,-1,69.422,98479
-0.174133,-0.288452,0.881836,-0.451,0.104,79.18,79.18,-0.212784,0.413544,0,-178.086,1219.66,-0.789062,-1,69.4403,98509
-0.142883,-0.0186768,1.03912,-0.204,0.12,79.59,79.59,-0.214218,0.417328,0,28.421,1054.74,-0.90625,-1,69.4612,98524
-0.31073,-0.147156,0.0844116,-0.208,0.279,80.06,80.06,-0.215942,0.421387,0,323.824,1372.68,-0.992188,-1,69.4806,98539
-0.17749,-0.23584,1.04138,-0.407,0.119,81.16,81.16,-0.220734,0.430603,0,450.796,1092.18,-1,-1,69.5007,98569
-0.359741,-0.409119,0.820496,-0.564,0.281,81.84,81.84,-0.22406,0.435623,0,673.038,1342.01,-1,-1,69.5221,98584
-0.0479736,-0.203247,0.871399,-0.321,0.003,82.6,82.6,-0.227982,0.440842,0,712.073,1012.91,-1,-1,69.5412,98599
-0.114258,-0.194763,1.66803,-0.413,0.052,84.29,84.29,-0.236969,0.451553,0,624.59,977.087,-1,-1,69.5613,98629
-0.0690308,-0.108032,1.13489,-0.248,0.029,85.24,85.24,-0.242142,0.457031,0,686.908,955.932,-1,-1,69.5804,98644
-0.376343,-0.252747,0.162354,-0.293,0.354,86.27,86.27,-0.247665,0.462753,0,790.952,1079.56,-1,-1,69.6006,98659
-0.256226,0.0744019,1.65717,-0.115,0.2,88.59,88.59,-0.259613,0.474915,0,878.657,993.197,-1,-1,69.6208,98689
-0.256653,-0.266235,0.805542,-0.351,0.226,89.82,89.82,-0.266006,0.481369,0,803.181,1006.09,-1,-1,69.6417,98704
-0.379333,-0.00286865,0.565186,-0.053,0.356,91.13,91.13,-0.27269,0.48822,0,823.961,986.047,-1,-1,69.6607,98719
-0.131226,-0.0982056,0.959106,-0.185,0.096,93.98,93.98,-0.286606,0.502426,0,791.077,958.635,-1,-1,69.6809,98749
-0.425354,-0.114258,0.750916,-0.145,0.399,95.47,95.47,-0.29393,0.509903,0,745.434,1059.21,-1,-1,69.7009,98764
-0.319763,0.0206299,0.530945,0.009,0.287,97.05,97.05,-0.301331,0.517838,0,725.163,1122.84,-1,-1,69.7209,98779
0.00646973,0.0391846,1.04883,-0.061,-0.066,100.4,100.4,-0.316467,0.533737,0,742.28,1212.64,-1,-1,69.7505,98809
-0.297852,0.00476074,0.889771,-0.015,0.243,102.15,102.15,-0.324158,0.541733,0,760.283,869.603,-1,-1,69.7611,98824
-0.0436401,0.0354004,0.87384,-0.035,-0.013,103.98,103.98,-0.331894,0.549896,0,818.934,1116.82,-1,-1,69.7808,98839
-0.109253,0.153809,1.3252,0.057,-0.024,109.75,109.75,-0.354309,0.574646,0,954.745,1139.67,-1,-1,69.8228,98884
0.135803,0.121948,0.787842,-0.026,-0.217,118.07,118.07,-0.382843,0.606918,0,1002.71,1150.55,-1,-1,69.8739,98943
0.135803,0.121948,0.787842,-0.026,-0.217,118.07,118.07,-0.382843,0.606918,0,827.952,945.09,-1,-1,69.8812,98943
-0.218994,0.0813599,0.984375,0.092,0.097,120.21,120.21,-0.389847,0.61467,0,904.077,1129.75,-1,-1,69.901,98959
0.205933,0.149719,0.695923,-0.056,-0.289,124.63,124.63,-0.403519,0.629868,0,1029.65,1142.73,-1,-1,69.9202,98988
0.148438,0.344421,1.0459,0.091,-0.375,126.85,126.85,-0.410309,0.636887,0,1028.59,1114.7,-1,-1,69.9424,99003
0.105896,0.397583,1.03717,0.145,-0.38,129.1,129.1,-0.416931,0.643387,0,1107.73,987.313,-1,-1,69.9601,99019
0.0758057,0.366333,0.773132,0.143,-0.337,133.56,133.56,-0.430389,0.654968,0,1089.56,1087.13,-1,-1,69.9816,99048
-0.315186,0.245605,0.298035,0.368,0.031,135.8,135.8,-0.436798,0.660339,0,951.022,1026.22,-1,-1,70.0006,99063
-0.0338135,0.421143,1.39679,0.173,-0.34,138.06,138.06,-0.442825,0.665482,0,1095.65,937.383,-1,-1,70.0206,99079
0.0105591,0.24469,0.863708,0.06,-0.227,142.56,142.56,-0.454102,0.674927,0,1079.1,986.485,-1,-1,70.04,99108
-0.0923462,0.294739,0.9422,0.159,-0.215,144.81,144.81,-0.459488,0.67923,0,1089.03,1044.17,-1,-0.858268,70.0606,99123
-0.314575,0.0883789,0.969666,0.225,0.06,149.34,149.34,-0.469421,0.686874,0,1031.09,875.197,-1,-0.645669,70.0837,99153
-0.0985718,0.265625,1.14545,0.106,-0.213,151.59,151.59,-0.473999,0.690475,0,1083.31,787.433,-0.65625,-0.393701,70.1017,99168
0.245178,0.226013,0.57312,-0.172,-0.323,153.84,153.84,-0.478638,0.693726,0,1068.72,595.451,-0.414062,-0.0944882,70.1226,99183
0.313599,0.132812,0.662354,-0.302,-0.251,158.29,158.29,-0.488678,0.698837,0,843.668,400.28,-0.078125,0.0078125,70.1453,99213
0.267944,0.25293,0.995972,-0.257,-0.345,160.42,160.42,-0.494232,0.700775,0,841.715,218.766,-0.0078125,0.0078125,70.1603,99228
0.397034,0.113281,1.13159,-0.439,-0.243,162.41,162.41,-0.500259,0.702301,0,731.529,133.966,-0.0078125,0.0078125,70.1805,99243
0.230591,0.0529175,0.694092,-0.262,-0.121,164.21,164.21,-0.506775,0.703598,0,527.426,95.4403,-0.0078125,0.0078125,70.2002,99259
0.33075,0.210876,0.60791,-0.317,-0.282,167.41,167.41,-0.521683,0.705124,0,620.347,63.5882,-0.0078125,0.0078125,70.2209,99288
0.654724,0.294006,1.99994,-0.705,-0.401,170.24,170.24,-0.53981,0.704956,0,669.994,40.0558,-0.0078125,0.0078125,70.2557,99319
0.387085,-0.0692139,-0.215454,-0.383,0.011,171.44,171.44,-0.55014,0.704361,0,694.3,40.0558,-0.0078125,0.0078125,70.2618,99333
0.268555,0.0353394,0.807983,-0.295,-0.071,172.61,172.61,-0.560928,0.703735,0,623.675,40.0558,-0.0078125,0.0078125,70.281,99348
0.39093,0.138123,0.642395,-0.397,-0.173,174.73,174.73,-0.584198,0.702148,0,583.567,0,-0.0078125,0.0078125,70.3113,99379
0.39093,0.138123,0.642395,-0.397,-0.173,174.73,174.73,-0.584198,0.702148,0,500.488,-14.0052,-0.0078125,0.0078125,70.3208,99379
0.359619,0.00958252,0.932434,-0.382,-0.027,176.53,176.53,-0.609665,0.699768,0,520.684,-63.9941,-0.0078125,0.0078125,70.3407,99408
0.336365,0.0368042,0.82373,-0.352,-0.048,177.31,177.31,-0.623169,0.698456,0,461.681,-94.7746,-0.132812,0.0078125,70.3608,99423
0.302429,0.103455,1.11273,-0.319,-0.107,178.01,178.01,-0.637115,0.697021,0,402.779,-109.438,-0.203125,0.0234375,70.3812,99439
0.339722,0.115051,1.05475,-0.349,-0.113,179.27,179.27,-0.666306,0.694016,0,368.277,-121.347,-0.25,0.0390625,70.4051,99468
0.399475,0.159119,0.913025,-0.405,-0.154,179.81,179.81,-0.681641,0.692291,0,366.73,-131.79,-0.289062,0.0625,70.421,99483
0.304016,0.0509644,0.958923,-0.304,-0.04,-179.31,180.68,-0.713715,0.688553,0,349.981,-164.769,-0.34375,0.078125,70.4432,99513
0.299377,0.0419312,1.02991,-0.297,-0.027,-178.98,181.01,-0.730377,0.6866,0,402.115,-168.872,-0.40625,0.171875,70.4649,99528
0.185242,-0.132935,0.950562,-0.169,0.144,-177.97,182.02,-0.800018,0.679733,0,390.381,-270.603,-0.40625,0.171875,70.5197,99588
0.14447,-0.101074,0.907898,-0.127,0.109,-177.8,182.19,-0.817963,0.678467,0,365.851,-243.061,-0.59375,0.601562,70.5405,99603
0.137756,-0.143127,0.874695,-0.118,0.149,-177.67,182.32,-0.836075,0.677353,0,406.612,-342.924,-0.601562,0.640625,70.5607,99618
0.225891,-0.184448,0.956726,-0.199,0.192,-177.49,182.5,-0.87294,0.67569,0,460.225,-480.584,-0.601562,0.65625,70.5812,99648
-0.106506,-0.400635,0.87793,0.141,0.391,-177.42,182.57,-0.891541,0.675354,0,496.808,-596.001,-0.609375,0.671875,70.604,99663
0.126282,-0.633911,0.977112,-0.076,0.628,-177.38,182.61,-0.91008,0.67572,0,522.261,-548.471,-0.65625,0.695312,70.6203,99678
-0.121826,-0.186523,1.328,0.158,0.154,-177.44,182.55,-0.947006,0.678238,0,594.619,-531.986,-0.6875,0.734375,70.6406,99708
0.0144653,-0.250244,0.522827,0.007,0.238,-177.44,182.55,-0.965271,0.679962,0,690.727,-790.389,-0.734375,0.773438,70.6603,99723
-0.0100708,-0.379517,0.760376,0.042,0.356,-177.38,182.61,-1.00157,0.684738,0,901.185,-723.694,-0.742188,0.78125,70.6814,99753
0.0333252,-0.288513,1.11316,0.002,0.253,-177.36,182.63,-1.01965,0.68779,0,866.701,-758.553,-0.742188,0.78125,70.7006,99768
-0.0755615,-0.197754,0.882202,0.102,0.163,-177.33,182.66,-1.03764,0.691132,0,777.273,-813.835,-0.742188,0.78125,70.7208,99783
0.109802,-0.268066,1.16833,-0.073,0.227,-177.29,182.7,-1.07362,0.698959,0,803.665,-966.277,-0.742188,0.78125,70.7413,99813
0.0531616,-0.287048,1.23944,-0.015,0.236,-177.27,182.72,-1.10989,0.707855,0,870.246,-893.376,-0.671875,0.78125,70.7749,99843
0.0531616,-0.287048,1.23944,-0.015,0.236,-177.27,182.72,-1.10989,0.707855,0,881.368,-1017.4,-0.671875,0.78125,70.7834,99843
0.115234,-0.16272,0.560608,-0.096,0.143,-177.25,182.74,-1.12814,0.712677,0,987.508,-1061.06,-0.539062,0.78125,70.8005,99858
-0.0480347,-0.173828,1.31616,0.082,0.11,-177.23,182.76,-1.16454,0.72258,0,908.306,-1243.55,-0.242188,0.78125,70.8212,99888
-0.0574341,-0.0870361,1.17017,0.084,0.029,-177.26,182.73,-1.18257,0.727661,0,1059.49,-1084.3,-0.09375,0.78125,70.8412,99903
0.12207,-0.0440063,0.212646,-0.115,0.039,-177.31,182.68,-1.20062,0.732788,0,595.664,-1137.85,-0.0234375,0.78125,70.8605,99918
0.364258,0.0421143,1.29578,-0.336,-0.087,-177.45,182.54,-1.23688,0.742813,0,709.446,-1227.82,-0.0078125,0.789062,70.8829,99948
0.124756,0.0958252,0.944275,-0.103,-0.133,-177.6,182.39,-1.25539,0.74762,0,844.809,-949.983,-0.0078125,0.796875,70.9001,99963
0.105591,0.0010376,0.670776,-0.086,-0.026,-177.81,182.18,-1.27402,0.752319,0,903.179,-1099.08,-0.0078125,0.8125,70.9213,99978
0.0203857,0.038147,1.46448,0.02,-0.098,-178.25,181.74,-1.31129,0.761429,0,912.326,-1214.7,-0.0078125,0.828125,70.9406,100008
-0.111084,0.0596924,0.822449,0.131,-0.097,-178.44,181.55,-1.3298,0.765793,0,913.576,-1337.35,-0.0078125,0.835938,70.9612,100023
-0.111084,0.0596924,0.822449,0.131,-0.097,-178.44,181.55,-1.3298,0.765793,0,975.182,-947.463,-0.0078125,0.835938,70.9811,100023
-0.111084,0.0596924,0.822449,0.131,-0.097,-178.44,181.55,-1.3298,0.765793,0,953.334,-1189.98,-0.0078125,0.84375,71.0013,100023
-0.0913086,-0.131104,0.648132,0.109,0.103,-179.02,180.97,-1.40366,0.783203,0,989.022,-1315.53,-0.0078125,0.84375,71.0203,100088
-0.0319214,0.0159912,1.40259,0.065,-0.073,-179.14,180.85,-1.42194,0.787613,0,1022.97,-1094.39,-0.0078125,0.84375,71.0406,100098
0.0907593,-0.0464478,0.916565,-0.067,0.009,-179.39,180.6,-1.45845,0.796417,0,1050.37,-1161.58,-0.0078125,0.84375,71.0615,100128
0.24231,0.0045166,1.55646,-0.205,-0.065,-179.5,180.49,-1.47691,0.800812,0,1037.56,-1274.86,-0.0078125,0.851562,71.0807,100143
-0.121216,0.0109863,0.155334,0.125,-0.018,-179.6,180.39,-1.49544,0.805145,0,1085.25,-1077.76,-0.0078125,0.859375,71.101,100158
0.0751953,0.000610352,1.09735,-0.045,-0.043,-179.81,180.18,-1.53255,0.813614,0,1056.19,-1262.79,-0.0078125,0.867188,71.1217,100188
0.275452,0.116455,1.45123,-0.24,-0.173,-179.91,180.08,-1.55135,0.817657,0,916.969,-826.071,-0.0078125,0.875,71.1412,100203
-0.0588379,-0.0650024,0.861816,0.083,0.031,179.88,179.88,-1.58908,0.825394,0,1126.38,-1174.05,-0.0078125,0.875,71.1628,100233
-0.153137,0.0386963,1.38531,0.19,-0.091,179.76,179.76,-1.6077,0.829224,0,978.809,-1163.33,-0.0078125,0.875,71.1801,100248
-0.182495,-0.00146484,0.489685,0.196,-0.016,179.66,179.66,-1.62607,0.832962,0,1041.45,-1131.8,-0.0078125,0.875,71.2003,100263
0.183167,-0.124573,0.85791,-0.16,0.089,179.53,179.53,-1.64441,0.836761,0,1143.38,-1349.07,-0.0078125,0.875,71.2201,100278
0.101929,0.138672,1.34686,-0.063,-0.192,179.25,179.25,-1.68188,0.844421,0,1141.36,-1275.1,-0.0078125,0.875,71.2404,100308
-0.062561,0.0587769,0.726746,0.082,-0.085,179.12,179.12,-1.70073,0.848007,0,1107.11,-1410.84,-0.0078125,0.882812,71.2606,100323
-0.0582275,-0.0874023,0.752075,0.076,0.06,178.98,178.98,-1.71947,0.851578,0,1048.05,-1519.3,-0.0078125,0.914062,71.2806,100338
-0.197937,0.0655518,0.763428,0.221,-0.087,178.58,178.58,-1.77591,0.862152,0,1054.35,-1366.96,-0.0078125,0.945312,71.3231,100383
-0.0284424,-0.122742,0.470947,0.038,0.106,178.34,178.34,-1.81311,0.868896,0,1094.93,-1287.58,-0.0078125,0.96875,71.3428,100413
-0.0296021,0.0723877,1.57697,0.078,-0.128,178.23,178.23,-1.8316,0.872284,0,1282.79,-1553.52,-0.0078125,0.976562,71.3614,100428
-0.0881958,0.026001,0.588684,0.106,-0.043,178.1,178.1,-1.84998,0.875549,0,1243.7,-1389.18,-0.0078125,0.992188,71.3809,100443
0.0836182,-0.141968,1.28229,-0.05,0.094,177.96,177.96,-1.8683,0.87886,0,1133.79,-1299.55,0,0.992188,71.4011,100458
0.155762,0.0164185,0.632568,-0.136,-0.045,177.67,177.67,-1.90538,0.885834,0,1195.17,-1409.05,0.0708661,0.992188,71.4207,100488
0.180603,-0.0996704,1.25488,-0.143,0.047,177.53,177.53,-1.92421,0.889343,0,906.208,-1308.04,0.149606,0.992188,71.442,100503
0.687195,0.301575,0.150146,-0.666,-0.339,177.24,177.24,-1.96252,0.895386,0,523.917,-1267.03,0.275591,1,71.4602,100533
-0.0107422,0.278137,1.39178,0.07,-0.316,177.02,177.02,-1.98232,0.897705,0,269.132,-1399.48,0.370079,1,71.4809,100548
0.315979,0.0526733,0.110046,-0.308,-0.073,176.73,176.73,-2.00227,0.89975,0,94.268,-1074.69,0.409449,1,71.5002,100563
-0.178894,0.160156,1.45349,0.243,-0.183,176.39,176.39,-2.02228,0.901627,0,-95.1475,-1356.02,0.448819,1,71.5216,100578
0.311768,0.140442,0.771179,-0.266,-0.18,175.59,175.59,-2.06276,0.904587,0,-125.604,-1101.44,0.456693,1,71.5415,100608
0.0109253,0.273499,1.99994,0.095,-0.307,175.12,175.12,-2.08333,0.905594,0,-118.201,-1352.81,0.299213,1,71.5603,100623
0.208496,0.150452,0.953979,-0.146,-0.183,174.11,174.11,-2.12495,0.906693,0,-157.64,-1109.94,0.125984,1,71.5816,100653
0.187195,0.125854,1.99994,-0.079,-0.165,173.57,173.57,-2.14606,0.906876,0,-122.207,-1478.63,0,1,71.6004,100667
0.329895,0.022583,0.483643,-0.3,-0.067,172.98,172.98,-2.16742,0.906891,0,176.855,-1389.47,-0.0078125,1,71.6241,100682
0.113525,0.163574,1.07562,-0.033,-0.179,171.67,171.67,-2.21072,0.905899,0,331.879,-1471.13,-0.0078125,1,71.64,100712
0.225708,0.123352,0.636108,-0.169,-0.156,170.99,170.99,-2.23254,0.904968,0,411.54,-1684.64,-0.0078125,1,71.6599,100727
0.179688,0.191101,0.941528,-0.093,-0.215,170.3,170.3,-2.25455,0.903793,0,548.561,-1291.24,-0.0078125,1,71.6803,100742
0.0603027,0.0562134,0.881409,0,-0.061,169.61,169.61,-2.27661,0.90242,0,628.476,-1295.67,-0.0078125,1,71.7001,100758
0.180908,0.206482,0.766602,-0.094,-0.234,168.32,168.32,-2.32036,0.899506,0,637.125,-1081.84,-0.0078125,1,71.72,100787
0.145142,-0.0574341,0.727661,-0.112,0.03,167.73,167.73,-2.34233,0.897842,0,764.555,-1330.05,-0.0078125,1,71.7405,100802
0.0751343,-0.00463867,0.827454,-0.028,-0.006,166.7,166.7,-2.38635,0.894455,0,799.137,-1475.04,-0.0078125,1,71.7725,100832
0.199402,-0.110229,0.646423,-0.183,0.064,166.25,166.25,-2.40851,0.892776,0,777.998,-1332.53,-0.0078125,1,71.7806,100847
-0.0870361,-0.164185,1.508,0.126,0.191,165.82,165.82,-2.43069,0.891281,0,861.735,-1062.25,-0.0234375,1,71.8019,100862
0.120789,-0.0172119,1.06299,-0.064,-0.006,165.45,165.45,-2.45285,0.889923,0,925.497,-1238.7,-0.0625,1,71.8211,100878
-0.0286255,-0.0994873,0.999023,0.054,0.109,164.74,164.74,-2.49709,0.887375,0,678.219,-1032.1,-0.117188,1,71.8413,100907
0.230774,0.0982666,0.986877,-0.144,-0.152,164.41,164.41,-2.51923,0.886124,0,616.713,-1464.02,-0.148438,1,71.8619,100922
0.0217896,0.283508,1.22406,0.121,-0.27,164.04,164.04,-2.5414,0.884583,0,633.152,-1553.16,-0.210938,1,71.8799,100938
0.175842,0.116089,0.578979,-0.102,-0.156,163.14,163.14,-2.58575,0.880707,0,628.101,-1315.01,-0.296875,1,71.9002,100967
0.216919,0.0492554,1.13123,-0.128,-0.098,162.63,162.63,-2.60814,0.878479,0,728.04,-1093.37,-0.367188,1,71.9201,100982
0.379639,0.0889893,0.854736,-0.283,-0.192,161.56,161.56,-2.65366,0.873413,0,750.863,-1299.21,-0.445312,1,71.94,101012
-0.034668,0.151855,0.329651,0.101,-0.126,161.04,161.04,-2.6767,0.870529,0,772.529,-1460.49,-0.53125,1,71.9602,101027
-0.100037,0.0596924,1.43201,0.195,0,160.56,160.56,-2.69954,0.867569,0,922.467,-1413.23,-0.570312,0.921875,71.9807,101042
-0.0756226,0.0866089,1.02649,0.157,-0.039,159.71,159.71,-2.74463,0.861771,0,898.836,-1156.14,-0.601562,0.90625,72.001,101072
0.13501,-0.151611,0.315247,-0.161,0.099,159.34,159.34,-2.76709,0.858917,0,1008.32,-1250.39,-0.632812,0.898438,72.021,101087
-0.304932,0.0469971,1.78552,0.4,0.092,158.99,158.99,-2.78938,0.856186,0,1010.15,-961.631,-0.671875,0.890625,72.0419,101102
-0.206299,0.0240479,1.00165,0.252,0.065,158.48,158.48,-2.83304,0.851196,0,997.904,-1413.43,-0.703125,0.882812,72.0626,101132
0.0163574,-0.0996704,1.59479,0.023,0.103,158.28,158.28,-2.85455,0.848892,0,1092.9,-1305.74,-0.757812,0.851562,72.0812,101147
-0.0944824,-0.076355,0.216125,0.069,0.107,158.14,158.14,-2.87601,0.846725,0,1065.19,-1051.36,-0.804688,0.796875,72.0999,101162
-0.172668,0.0445557,0.914551,0.218,0.03,158.02,158.02,-2.89726,0.84465,0,1132.5,-1121.58,-0.859375,0.75,72.121,101178
-0.0631104,0.0838013,1.24554,0.138,-0.046,157.86,157.86,-2.93893,0.840561,0,1420.56,-834.725,-0.898438,0.6875,72.1402,101207
0.123474,0.0690918,0.809265,-0.056,-0.106,157.83,157.83,-2.95958,0.838394,0,1112.97,-1133.53,-0.9375,0.640625,72.1611,101222
0.0290527,-0.16156,1.01202,-0.048,0.142,157.86,157.86,-3.00061,0.834488,0,1346.71,-1168.5,-0.960938,0.578125,72.1808,101252
-0.0891113,-0.0368652,0.982483,0.105,0.069,157.91,157.91,-3.02104,0.832809,0,1116.82,-1105.58,-0.984375,0.484375,72.2055,101267
0.0606079,-0.101685,0.734497,-0.065,0.072,157.97,157.97,-3.04144,0.831223,0,1280.41,-1162.52,-0.992188,0.335938,72.2211,101282
-0.174744,-0.0571289,1.32623,0.192,0.117,158.08,158.08,-3.08238,0.828186,0,1238.47,-897.384,-1,0.210938,72.2481,101312
-0.102234,0.0853271,0.861206,0.154,-0.041,158.34,158.34,-3.12227,0.825211,0,1478.74,-914.411,-1,0.0625,72.2755,101342
-0.102234,0.0853271,0.861206,0.154,-0.041,158.34,158.34,-3.12227,0.825211,0,1179.04,-900.131,-1,0.0625,72.2814,101342
-0.464783,0.34668,1.45197,0.597,-0.153,158.82,158.82,-3.16046,0.822021,0,1456.13,-875.12,-1,0.0078125,72.3008,101372
-0.309387,0.0670776,0.381287,0.322,0.047,159.13,159.13,-3.17859,0.820312,0,1373.06,-851.462,-1,0.0078125,72.3222,101387
-0.090271,0.117676,-0.303101,0.118,-0.078,159.47,159.47,-3.19643,0.818588,0,1398.01,-1022.6,-1,0.0078125,72.3403,101402
-0.196777,-0.361145,-2,0.015,0.412,160.2,160.2,-3.22888,0.814514,0,1241.62,-1194.46,-1,0.0078125,72.3611,101432
0.30896,0.295654,0.870239,-0.173,-0.384,160.5,160.5,-3.24471,0.812515,0,1348.25,-1046.08,-1,0.0078125,72.3799,101447
0.0359497,-0.109802,0.49353,-0.061,0.092,160.79,160.79,-3.2607,0.810303,0,1387.25,-949.848,-1,0.0078125,72.4006,101462
0.547302,-0.231995,1.99994,-0.547,0.036,161.07,161.07,-3.27708,0.808197,0,1212.93,-825.696,-1,0.0078125,72.4204,101477
1.09131,-0.415283,1.99994,-1.12,0.043,161.54,161.54,-3.31143,0.803421,0,1389.56,-1061.06,-1,0.0078125,72.4408,101507
-0.0625,0.443237,1.2998,0.227,-0.408,161.72,161.72,-3.32961,0.80069,0,1321.09,-1217.66,-1,0.0078125,72.4608,101522
-0.101074,-0.194885,0.797363,0.054,0.212,161.93,161.93,-3.34758,0.797821,0,1297.52,-1031.73,-1,0.0078125,72.4801,101537
-0.183716,-0.0333862,0.532593,0.176,0.084,162.33,162.33,-3.38382,0.792694,0,1181.82,-1087.02,-1,0.0078125,72.5011,101567
0.0379639,-0.0623779,0.583374,-0.041,0.044,162.49,162.49,-3.40187,0.790283,0,1277.87,-1125.68,-1,0.0078125,72.5202,101582
0.207397,-0.2901,0.779541,-0.266,0.209,162.78,162.78,-3.43855,0.785812,0,1302.25,-1095.23,-1,0.0078125,72.5409,101612
-0.140198,0.166748,1.17725,0.212,-0.128,162.91,162.91,-3.45708,0.783722,0,1418.74,-1242.16,-1,0.078125,72.5603,101627
0.148254,0.162231,1.06177,-0.068,-0.208,163.03,163.03,-3.47551,0.781403,0,1336.01,-948.317,-1,0.171875,72.5811,101642
-0.0651245,0.225769,1.14362,0.153,-0.205,163.32,163.32,-3.51218,0.776703,0,1443.11,-780.275,-1,0.234375,72.6009,101672
-0.278564,0.187256,0.964844,0.339,-0.105,163.55,163.55,-3.53011,0.774124,0,1392.18,-859.476,-1,0.28125,72.6204,101687
-0.170166,0.00262451,0.13031,0.166,0.043,163.83,163.83,-3.54768,0.771515,0,1313.8,-853.862,-1,0.289062,72.6403,101702
0.110352,0.0872803,0.79248,-0.073,-0.114,164.54,164.54,-3.58252,0.765961,0,1339.14,-729.82,-1,0.289062,72.6618,101732
-0.288879,0.0855713,0.552917,0.307,-0.008,164.9,164.9,-3.59978,0.763,0,1391.3,-993.888,-1,0.296875,72.6829,101747
-0.161621,0.116882,1.15594,0.196,-0.07,165.28,165.28,-3.61668,0.759995,0,1211.02,-783.853,-1,0.304688,72.7008,101762
-0.156738,0.199951,0.902161,0.206,-0.154,166.05,166.05,-3.65019,0.753845,0,1514,-903.016,-1,0.304688,72.7208,101792
-0.261414,0.0581055,0.740112,0.271,0.008,166.44,166.44,-3.66656,0.750641,0,1403.21,-852.806,-1,0.304688,72.7405,101807
-0.300476,0.0108032,1.2027,0.299,0.064,166.83,166.83,-3.68254,0.747482,0,1304.04,-958.773,-1,0.304688,72.7608,101822
0.142029,0.000976562,0.835449,-0.137,-0.026,167.61,167.61,-3.71381,0.741165,0,1226.24,-855.066,-1,0.3125,72.7812,101852
-0.0726929,-0.0351562,0.458008,0.064,0.052,167.98,167.98,-3.72946,0.737991,0,1562.87,-919.413,-1,0.3125,72.8003,101867
0.0767212,0.208862,1.77606,-0.028,-0.206,168.38,168.38,-3.7451,0.734726,0,1369.02,-893.176,-1,0.3125,72.8206,101882
-0.144958,0.012146,0.30365,0.145,0.017,169.18,169.18,-3.7758,0.727661,0,1270.24,-816.627,-1,0.3125,72.841,101912
-0.260864,0.196777,1.34998,0.292,-0.134,169.58,169.58,-3.79071,0.72403,0,1224.96,-844.737,-1,0.3125,72.8605,101927
0.104736,0,0.564697,-0.101,-0.014,169.98,169.98,-3.80548,0.720276,0,1193.39,-818.9,-1,0.3125,72.8811,101942
-0.559326,0.362732,0.663391,0.612,-0.263,170.79,170.79,-3.83476,0.712646,0,1355.56,-786.627,-1,0.3125,72.9008,101972
-1.02594,0.163513,1.99994,1.044,0.017,171.19,171.19,-3.84805,0.708572,0,1433.49,-795.513,-1,0.3125,72.9214,101987
-0.429688,-0.391235,-0.113037,0.367,0.448,171.62,171.62,-3.8604,0.704819,0,1297.52,-801.539,-1,0.3125,72.9408,102002
0.146362,0.17627,0.879272,-0.12,-0.183,172.39,172.39,-3.88478,0.696976,0,1418.04,-521.322,-1,0.3125,72.9617,102032
-0.020813,0.0894165,0.800171,0.034,-0.078,172.79,172.79,-3.89709,0.692673,0,1269.52,-880.204,-1,0.3125,72.9807,102047
-0.218872,0.0211792,0.91095,0.22,0.014,173.23,173.23,-3.90924,0.688339,0,1183.64,-832.154,-1,0.3125,73.001,102062
-0.146057,0.239136,1.49872,0.169,-0.204,174.11,174.11,-3.93367,0.679611,0,1259.13,-758.553,-1,0.3125,73.0204,102092
-0.270203,0.188354,0.240479,0.287,-0.159,174.52,174.52,-3.9456,0.674957,0,1183.71,-862.18,-1,0.3125,73.0431,102107
0.0548096,-0.0629272,0.592346,-0.062,0.063,174.96,174.96,-3.9574,0.670227,0,1379.31,-859.587,-1,0.3125,73.0607,102122
0.0020752,0.0118408,0.344055,-0.001,-0.008,175.8,175.8,-3.98024,0.660965,0,1117.51,-798.021,-1,0.3125,73.0812,102152
-0.110229,0.0267944,0.780029,0.109,-0.01,176.22,176.22,-3.99146,0.660965,0,1391.89,-755.458,-1,0.3125,73.1008,102167
0.150879,-0.0172119,1.26056,-0.156,0.024,176.64,176.64,-4.0027,0.66098,0,1289.49,-817.327,-1,0.3125,73.124,102182
-0.296265,0.0968628,0.686279,0.298,-0.077,177.45,177.45,-4.02524,0.661392,0,1190.55,-786.596,-1,0.3125,73.1402,102212
-0.136475,0.0645752,0.969666,0.134,-0.049,177.86,177.86,-4.03612,0.66156,0,1314.32,-851.535,-1,0.3125,73.1613,102227
-0.105347,-0.0485229,1.30591,0.097,0.065,178.26,178.26,-4.04684,0.661743,0,1244.94,-864.865,-1,0.3125,73.1801,102242
0.00671387,-0.0810547,0.926147,-0.013,0.09,179.04,179.04,-4.06821,0.661942,0,1329.26,-845.594,-1,0.3125,73.2003,102272
-0.0395508,-0.0767822,0.765625,0.034,0.084,179.42,179.42,-4.07887,0.662155,0,1296.18,-804.052,-1,0.3125,73.221,102287
-0.0897827,-0.0010376,1.03882,0.083,0.012,179.8,179.8,-4.08948,0.66243,0,1235.71,-861.104,-1,0.3125,73.2407,102302
-0.230225,-0.0124512,1.34473,0.222,0.026,-179.79,180.2,-4.09987,0.662735,0,1289.41,-849.257,-1,0.3125,73.2609,102317
-0.0249023,0.0296631,1.1474,0.016,-0.017,-178.99,181,-4.12029,0.66333,0,1120.89,-698.959,-1,0.3125,73.2812,102346
-0.0479126,0.0123901,0.678406,0.042,-0.005,-178.61,181.38,-4.13043,0.66333,0,1202.65,-966.277,-1,0.3125,73.3009,102361
-0.0737305,0.149902,1.05731,0.059,-0.139,-177.8,182.19,-4.15053,0.663116,0,1072.73,-851.499,-1,0.3125,73.3207,102391
0.174133,-0.0380249,0.850342,-0.18,0.056,-177.4,182.59,-4.16061,0.662872,0,1308.3,-861.512,-1,0.3125,73.3403,102406
0.0402832,0.0147095,0.89563,-0.049,-0.001,-176.98,183.01,-4.17087,0.662674,0,1200.7,-899.078,-1,0.3125,73.3611,102421
0.12384,-0.0222778,1.02911,-0.132,0.044,-176.14,183.85,-4.19139,0.662186,0,1220.33,-941.62,-1,0.3125,73.3807,102451
-0.0140381,0.11969,1.23096,-0.005,-0.104,-175.73,184.26,-4.20178,0.661911,0,1286.01,-889.798,-1,0.3125,73.4007,102466
-0.179443,0.24353,0.895813,0.151,-0.245,-175.28,184.71,-4.21207,0.661377,0,1196.74,-866.776,-1,0.3125,73.4222,102481
-0.15979,0.166138,1.83441,0.125,-0.15,-174.37,185.62,-4.23291,0.659851,0,1300.39,-791.484,-1,0.3125,73.4409,102511
-0.0256348,0.00177002,0.226074,0.023,-0.001,-173.95,186.04,-4.24329,0.658936,0,1274.05,-868.244,-1,0.3125,73.4609,102526
-0.0883179,0.0771484,0.99115,0.069,-0.07,-173.51,186.48,-4.2536,0.657959,0,1186.66,-838.926,-1,0.3125,73.4805,102541
0.0239868,0.0129395,0.776489,-0.032,0.002,-172.66,187.33,-4.27435,0.656189,0,1072.33,-811.26,-1,0.3125,73.5007,102571
-0.0422974,0.176941,0.990906,0.008,-0.164,-172.25,187.74,-4.28477,0.655243,0,1271.62,-771.784,-1,0.3125,73.521,102586
-0.158875,-0.0449829,0.439514,0.159,0.028,-171.83,188.16,-4.29509,0.654205,0,1183.22,-710.454,-1,0.3125,73.5409,102601
-0.179382,0.00537109,1.54602,0.16,-0.007,-171.41,188.58,-4.30519,0.653183,0,1264.94,-789.484,-1,0.3125,73.5606,102617
-0.132385,0.0302124,1.24365,0.114,-0.033,-170.6,189.39,-4.32507,0.651199,0,1307.36,-807.624,-1,0.3125,73.5807,102646
-0.0397339,-0.019104,1.78534,0.023,0.039,-169.78,190.21,-4.34442,0.649094,0,1325.29,-688.942,-1,0.3125,73.6151,102677
-0.0397339,-0.019104,1.78534,0.023,0.039,-169.78,190.21,-4.34442,0.649094,0,1366.87,-841.078,-1,0.3125,73.6208,102677
-0.14563,-0.0302734,1.00214,0.137,0.015,-168.98,191.01,-4.36391,0.647293,0,1305.57,-782.35,-1,0.3125,73.6412,102706
0.102478,-0.088562,0.913513,-0.095,0.12,-168.55,191.44,-4.37364,0.646545,0,1158.48,-760.514,-1,0.3125,73.661,102721
-0.154968,0.114319,0.626099,0.118,-0.137,-167.34,192.65,-4.40317,0.644363,0,1130.65,-813.637,-1,0.3125,73.7033,102766
0.191467,-0.153625,0.874451,-0.163,0.206,-166.94,193.05,-4.41293,0.643539,0,1392.76,-808.767,-1,0.3125,73.7202,102781
-0.241394,0.109863,0.501587,0.202,-0.157,-166.14,193.85,-4.43269,0.641953,0,1175.57,-823.249,-1,0.3125,73.7408,102811
0.0515137,-0.0892944,0.672424,-0.036,0.108,-165.72,194.27,-4.4424,0.641068,0,1292.24,-697.618,-1,0.3125,73.7599,102826
0.236023,0.0288696,1.58917,-0.257,0.057,-165.3,194.69,-4.45232,0.640289,0,1230.01,-717.309,-1,0.3125,73.7812,102841
-0.124939,0.0479126,1.09967,0.093,-0.064,-164.51,195.48,-4.47232,0.638489,0,1326.08,-833.542,-1,0.3125,73.8006,102871
-0.097168,-0.0350342,1.18616,0.086,0.025,-164.1,195.89,-4.48216,0.637497,0,1346.62,-694.203,-1,0.335938,73.8214,102886
-0.257874,0.0963135,1.21918,0.204,-0.147,-163.69,196.3,-4.49181,0.636414,0,1310.27,-799.392,-0.859375,0.359375,73.841,102901
-0.0863647,-0.031311,1.27875,0.074,0.024,-162.85,197.14,-4.51077,0.633957,0,1113.46,-710.555,-0.75,0.382812,73.8609,102931
0.176697,-0.0640869,0.804443,-0.161,0.127,-162.44,197.55,-4.52029,0.632828,0,1219.14,-906.084,-0.570312,0.390625,73.8807,102946
0.103088,0.124695,1.21588,-0.152,-0.068,-162.07,197.92,-4.53003,0.631729,0,1154.8,-921.744,-0.46875,0.398438,73.9006,102961
0.430176,-0.0402222,1.42566,-0.407,0.198,-161.43,198.56,-4.55028,0.629547,0,1113.9,-576.469,-0.367188,0.398438,73.9207,102991
0.310669,0.183044,1.02319,-0.358,-0.056,-161.21,198.78,-4.5611,0.628632,0,1020.46,-1111.48,-0.3125,0.40625,73.9404,103006
0.250916,0.21759,1.09497,-0.309,-0.106,-161.04,198.95,-4.57239,0.627594,0,911.619,-855.176,-0.265625,0.414062,73.9615,103021
0.281555,0.175537,0.767822,-0.319,-0.06,-160.87,199.12,-4.59604,0.625275,0,746.018,-742.97,-0.242188,0.414062,73.9817,103051
0.355713,0.325867,0.745972,-0.437,-0.176,-160.86,199.13,-4.60857,0.623917,0,735.402,-748.167,-0.226562,0.414062,74.0009,103066
-0.250549,0.447083,1.19531,0.102,-0.477,-160.92,199.07,-4.62131,0.622101,0,734.997,-810.767,-0.203125,0.414062,74.0219,103081
0.0848999,0.175781,0.64386,-0.127,-0.119,-161.15,198.84,-4.66026,0.614319,0,745.129,-761.702,-0.140625,0.421875,74.0559,103126
0.0848999,0.175781,0.64386,-0.127,-0.119,-161.15,198.84,-4.66026,0.614319,0,673.491,-681.037,-0.140625,0.421875,74.0633,103126
0.0288086,0.279907,1.15894,-0.099,-0.218,-161.2,198.79,-4.6736,0.611206,0,575.242,-839.631,-0.0859375,0.4375,74.0806,103141
-0.0377197,0.19458,1.0907,-0.006,-0.157,-161.34,198.65,-4.70061,0.604401,0,542.167,-680.944,-0.0078125,0.492188,74.1011,103171
0.161072,0.22644,0.864563,-0.207,-0.131,-161.44,198.55,-4.71429,0.600723,0,488.329,-724.716,-0.0078125,0.515625,74.1208,103186
0.121643,0.200317,1.04175,-0.156,-0.111,-161.54,198.45,-4.72824,0.596878,0,595.079,-864.08,-0.0078125,0.554688,74.1412,103201
0.0444946,0.0753784,0.988098,-0.042,-0.018,-161.76,198.23,-4.75648,0.588943,0,594.955,-741.235,-0.0078125,0.601562,74.1613,103231
0.0512085,-0.123535,1.06659,0.015,0.175,-161.83,198.16,-4.77066,0.585068,0,666.644,-721.501,-0.0078125,0.625,74.18,103246
-0.153137,-0.0412598,1.02856,0.181,0.03,-161.9,198.09,-4.7847,0.581329,0,676.613,-877.308,-0.0078125,0.640625,74.2011,103261
0.067749,-0.0900269,1.01886,-0.015,0.144,-162,197.99,-4.81271,0.574203,0,584.864,-852.224,-0.0078125,0.640625,74.2208,103291
0.106506,-0.0523682,0.806152,-0.068,0.11,-162.06,197.93,-4.82681,0.570892,0,538.996,-753.864,-0.0078125,0.640625,74.2402,103306
0.119385,-0.124817,0.897461,-0.055,0.185,-162.14,197.85,-4.841,0.56778,0,650.111,-724.638,-0.0078125,0.648438,74.2606,103321
-0.0478516,-0.0275879,1.18188,0.079,0.048,-162.3,197.69,-4.86955,0.562073,0,702.519,-758.927,-0.0078125,0.671875,74.2821,103351
-0.0698853,-0.0561523,1.09552,0.106,0.065,-162.38,197.61,-4.88371,0.559341,0,651.36,-738.28,-0.0078125,0.679688,74.3,103366
0.0993652,-0.057312,0.874146,-0.06,0.11,-162.44,197.55,-4.89783,0.556732,0,771.635,-737.382,-0.0078125,0.695312,74.3212,103381
0.176392,-0.135437,0.944092,-0.11,0.207,-162.59,197.4,-4.92606,0.551895,0,706.265,-706.539,-0.0078125,0.703125,74.3404,103411
-0.0513306,-0.0909424,0.707153,0.089,0.089,-162.67,197.32,-4.94019,0.549759,0,675.197,-775.645,-0.0078125,0.703125,74.3609,103426
0.00683594,-0.0648193,1.39362,0.038,0.097,-162.75,197.24,-4.95424,0.547745,0,715.436,-759.59,-0.0078125,0.726562,74.3822,103441
-0.0995483,0.00305176,0.913208,0.11,-0.012,-162.91,197.08,-4.98227,0.543915,0,668.003,-767.754,-0.0078125,0.75,74.4003,103471
0.0966187,-0.173401,0.953918,-0.025,0.215,-162.96,197.03,-4.9962,0.542145,0,692.305,-724.297,-0.0078125,0.796875,74.4215,103486
-0.0162964,-0.0906982,0.556885,0.05,0.093,-163.03,196.96,-5.01012,0.540588,0,810.438,-911.037,-0.0078125,0.835938,74.4407,103501
0.11908,-0.0996094,1.16199,-0.067,0.151,-163.19,196.8,-5.03781,0.537766,0,772.618,-961.908,-0.0078125,0.835938,74.4644,103531
0.135986,-0.0490112,1.19531,-0.099,0.105,-163.38,196.61,-5.06572,0.535583,0,856.274,-914.829,-0.0078125,0.867188,74.4995,103561
-0.0667725,-0.150818,0.689087,0.117,0.135,-163.48,196.51,-5.0797,0.534729,0,859.697,-980.729,-0.0078125,0.882812,74.5116,103576
0.0211182,0.0574341,1.10254,-0.021,-0.034,-163.59,196.4,-5.09363,0.533936,0,818.565,-1051.8,-0.0078125,0.898438,74.5223,103591
0.20282,-0.118469,0.848083,-0.149,0.179,-163.7,196.29,-5.10767,0.533249,0,903.791,-929.109,-0.0078125,0.90625,74.54,103606
-0.0755615,-0.198425,1.08936,0.142,0.179,-163.84,196.15,-5.1217,0.532806,0,841.645,-1060.84,-0.0078125,0.914062,74.5604,103621
-0.0268555,0.00579834,0.94989,0.036,-0.007,-164.08,195.91,-5.1499,0.532547,0,889.363,-1071.52,-0.0078125,0.914062,74.5802,103651
-0.0161743,-0.132568,1.28424,0.067,0.129,-164.22,195.77,-5.16399,0.532547,0,904.118,-1165.3,-0.0078125,0.921875,74.6006,103666
-0.0675049,-0.105408,0.755188,0.102,0.085,-164.37,195.62,-5.17795,0.5327,0,858.775,-1307.79,-0.0078125,0.9375,74.6213,103681
0.0956421,-0.137634,0.689697,-0.047,0.159,-164.52,195.47,-5.19186,0.53302,0,938.042,-1002.05,-0.0078125,0.960938,74.6399,103696
0.112305,-0.090271,1.26086,-0.066,0.115,-164.84,195.15,-5.22009,0.534271,0,907.071,-1329.7,-0.0078125,0.984375,74.6601,103726
0.381531,-0.129944,0.998962,-0.319,0.221,-165.02,194.97,-5.23453,0.535217,0,933.838,-1341.11,0.00787402,0.992188,74.6817,103741
0.184937,0.0338135,1.13892,-0.166,0.008,-165.37,194.62,-5.2637,0.537613,0,956.617,-1280.98,0.0314961,1,74.7009,103771
-0.0330811,-0.186707,0.55957,0.09,0.168,-165.55,194.44,-5.27837,0.538971,0,745.323,-1368.18,0.0314961,1,74.7212,103786
0.161926,0.169861,1.43665,-0.172,-0.133,-165.74,194.25,-5.29308,0.540344,0,584.044,-1240.46,0.110236,1,74.7413,103801
0.130615,0.138062,1.24066,-0.123,-0.111,-166.33,193.66,-5.32324,0.542847,0,411.709,-889.68,0.220472,1,74.7609,103831
0.300354,0.095459,1.0929,-0.279,-0.029,-166.71,193.28,-5.33873,0.543961,0,258.997,-1325.82,0.322835,1,74.7808,103846
0.041748,0.206726,1.41272,-0.03,-0.197,-167.66,192.33,-5.37086,0.545959,0,91.2226,-1434.72,0.385827,1,74.8051,103876
0.318176,0.0927124,0.421936,-0.312,-0.026,-168.19,191.8,-5.3873,0.546722,0,23.9201,-1171.1,0.488189,1,74.8211,103891
0.0473633,0.295349,1.46472,-0.04,-0.28,-168.75,191.24,-5.40398,0.547287,0,-42.6393,-1401.15,0.559055,1,74.8409,103906
0.455627,0.124023,0.908142,-0.428,-0.036,-169.33,190.66,-5.42097,0.547638,0,-112.396,-1252.43,0.637795,1,74.8599,103921
0.184265,0.181519,1.3075,-0.144,-0.141,-170.57,189.42,-5.45576,0.548019,0,-261.339,-1177.44,0.771654,1,74.8811,103951
0.12439,0.18866,0.978577,-0.1,-0.16,-171.22,188.77,-5.4734,0.547943,0,-439.3,-1136.43,0.905512,1,74.9007,103966
0.50592,0.131042,0.776611,-0.475,-0.052,-171.88,188.11,-5.49142,0.547699,0,-581.091,-1039.5,0.968504,1,74.9209,103981
0.140076,0.10968,1.51691,-0.057,-0.073,-173.33,186.66,-5.52847,0.546921,0,-673.333,-1214.4,1,1,74.9422,104011
0.221985,0.09552,0.713135,-0.185,-0.062,-174.07,185.92,-5.54724,0.546371,0,-889.996,-1321.79,1,1,74.9606,104026
0.353516,0.0558472,0.35498,-0.333,-0.018,-174.82,185.17,-5.56636,0.545776,0,-841.999,-854.737,1,1,74.9819,104040
0.291443,0.0187378,1.03796,-0.218,0.015,-176.4,183.59,-5.60555,0.544357,0,-901.023,-955.657,1,1,75.0009,104070
-0.277466,0.200317,1.2995,0.359,-0.193,-177.19,182.8,-5.62518,0.543503,0,-921.617,-1194.6,1,1,75.0206,104085
0.0246582,0.00775146,0.333313,0,-0.001,-178.83,181.16,-5.66537,0.541595,0,-1256.44,-1205.84,1,1,75.0473,104116
0.376587,0.0305786,0.374084,-0.347,-0.026,179.42,179.42,-5.70616,0.53949,0,-967.539,-1216.47,1,1,75.0756,104145
0.376587,0.0305786,0.374084,-0.347,-0.026,179.42,179.42,-5.70616,0.53949,0,-934.973,-1226.24,1,1,75.083,104145
-0.116699,0.222839,1.42773,0.235,-0.189,178.49,178.49,-5.72673,0.538239,0,-937.603,-980.392,1,1,75.1007,104160
0.73114,0.109436,0.993958,-0.635,-0.125,176.54,176.54,-5.76799,0.534866,0,-984.204,-1184.55,1,1,75.1201,104190
0.242676,0.186646,0.951721,-0.144,-0.177,175.54,175.54,-5.78937,0.532822,0,-954.107,-1219.74,1,1,75.1419,104205
0.318726,0.112915,0.550537,-0.256,-0.125,174.53,174.53,-5.81104,0.530594,0,-1036.59,-968.242,1,1,75.1606,104220
0.00952148,0.25885,1.11133,0.124,-0.219,172.45,172.45,-5.85432,0.525467,0,-1141.75,-1018.74,1,1,75.1813,104250
-0.0728149,0.267578,1.09204,0.208,-0.215,171.4,171.4,-5.87566,0.522461,0,-950.254,-808.179,1,1,75.2006,104265
0.722839,0.266174,0.732483,-0.601,-0.354,170.36,170.36,-5.89726,0.519089,0,-1134.69,-1341.47,1,1,75.2209,104280
0.573181,0.243469,1.46252,-0.378,-0.294,168.13,168.13,-5.94089,0.511597,0,-1002.05,-1060.28,1,1,75.2402,104310
0.438416,0.257019,0.582031,-0.313,-0.322,166.98,166.98,-5.9632,0.507324,0,-939.629,-1197.89,1,1,75.2604,104325
0.299988,0.259094,0.793457,-0.151,-0.287,165.79,165.79,-5.98582,0.502625,0,-962.232,-1316.66,1,1,75.2806,104340
0.497742,0.270935,0.74823,-0.328,-0.363,163.32,163.32,-6.03111,0.492126,0,-845.344,-1167.88,1,1,75.3014,104370
-0.022522,0.258057,1.01691,0.195,-0.185,162.03,162.03,-6.05389,0.486298,0,-776.277,-1198.97,1,1,75.3211,104385
0.383606,0.231201,0.685242,-0.22,-0.305,160.7,160.7,-6.07669,0.480118,0,-855.688,-1071.81,1,1,75.3418,104400
0.123657,0.139771,0.98761,0.032,-0.112,157.93,157.93,-6.12248,0.466919,0,-898.553,-1347.16,1,1,75.3598,104430
0.279358,0.190125,1.04675,-0.079,-0.214,156.52,156.52,-6.14539,0.459976,0,-932.749,-1220.11,1,1,75.3801,104445
0.322449,0.11261,0.727356,-0.172,-0.185,155.1,155.1,-6.16847,0.452774,0,-1023.54,-1097.03,1,1,75.4019,104460
0.337097,0.0849609,0.891235,-0.171,-0.163,152.25,152.25,-6.2142,0.437866,0,-989.022,-1051.19,1,1,75.4202,104490
0.00213623,0.169373,1.33917,0.208,-0.046,150.82,150.82,-6.23698,0.430206,0,-1110.99,-1233.2,1,1,75.4404,104505
-0.0805664,0.167358,1.02496,0.251,-0.023,149.4,149.4,-6.25945,0.422485,0,-1165.37,-1187.51,1,1,75.4607,104520
0.0981445,0.138062,0.853027,0.073,-0.099,146.64,146.64,-6.30423,0.406769,0,-1197.89,-1112.9,1,1,75.4809,104550
0.046814,0.282898,1.19543,0.238,-0.152,143.89,143.89,-6.34909,0.389908,0,-1111.79,-972.29,1,1,75.5082,104580
0.350769,-0.0574951,0.662354,-0.247,-0.11,141.15,141.15,-6.39389,0.371826,0,-1381.31,-1135.85,1,1,75.5449,104610
0.350769,-0.0574951,0.662354,-0.247,-0.11,141.15,141.15,-6.39389,0.371826,0,-1185.19,-1002,1,1,75.5496,104610
0.0879517,0.289185,1.5976,0.262,-0.125,139.78,139.78,-6.4164,0.362488,0,-1096.91,-1110.49,1,1,75.5615,104625
0.593201,0.139282,0.898438,-0.272,-0.407,138.46,138.46,-6.4389,0.352798,0,-961.538,-1142.47,1,1,75.5822,104640
0.0907593,0.0662842,1.09998,0.075,0.002,135.73,135.73,-6.4841,0.332458,0,-1033.7,-1249.14,1,1,75.6002,104670
-0.194153,0.17865,1.3725,0.376,0.152,134.35,134.35,-6.50635,0.322327,0,-884.291,-1184.9,1,1,75.6234,104685
0.35199,0.149475,0.341858,-0.102,-0.321,133,133,-6.5284,0.312073,0,-1018.33,-1138.69,0.858268,1,75.6407,104700
0.281311,0.0983276,1.13593,-0.015,-0.15,130.14,130.14,-6.57246,0.290924,0,-982.222,-542.402,0.480315,1,75.6608,104730
0.195496,0.223511,1.62708,0.177,-0.109,128.7,128.7,-6.59435,0.28009,0,-853.679,-1364.35,0.11811,0.90625,75.6811,104745
0.279968,0.131531,0.967407,0.016,-0.188,125.78,125.78,-6.63788,0.257965,0,-448.451,-1347.07,-0.0078125,0.828125,75.7064,104775
0.111145,0.0662231,0.876648,0.057,-0.023,124.3,124.3,-6.65959,0.246674,0,-324.66,-1268.79,-0.015625,0.796875,75.7209,104790
0.217407,0.114075,0.756226,0.033,-0.151,122.85,122.85,-6.68124,0.235245,0,-141.88,-1151.01,-0.046875,0.789062,75.7429,104805
-0.0663452,0.173767,1.05627,0.258,0.092,121.43,121.43,-6.7027,0.223785,0,-104.473,-1131.86,-0.132812,0.789062,75.7604,104820
0.236816,0.053894,0.65094,-0.023,-0.152,118.85,118.85,-6.74486,0.200943,0,120.563,-1049.92,-0.242188,0.789062,75.7814,104850
-0.160339,0.109558,1.54669,0.269,0.277,117.63,117.63,-6.76572,0.18956,0,225.185,-1156.4,-0.289062,0.789062,75.8011,104865
0.0826416,0.106079,1.0932,0.124,0.008,116.49,116.49,-6.7863,0.178375,0,355.391,-971.959,-0.3125,0.78125,75.8207,104880
0.0437622,0.00274658,0.849182,0.033,0.058,114.38,114.38,-6.82695,0.156128,0,399.672,-1098.12,-0.3125,0.773438,75.8408,104910
-0.0986328,-0.0725708,0.869324,0.021,0.219,113.4,113.4,-6.84717,0.145218,0,442.312,-1135.85,-0.3125,0.726562,75.861,104925
-0.200012,0.0130005,1.46545,0.168,0.344,112.47,112.47,-6.86726,0.134705,0,496.919,-1005.48,-0.320312,0.632812,75.881,104940
-0.352966,0.0835571,0.949341,0.253,0.4,110.78,110.78,-6.90697,0.114761,0,498.219,-513.558,-0.320312,0.492188,75.9002,104970
-0.246033,0.0549927,1.02368,0.187,0.319,110.03,110.03,-6.92642,0.105484,0,550.176,-1048.71,-0.320312,0.25,75.9215,104985
-0.423645,0.172424,1.24823,0.36,0.468,109.36,109.36,-6.9455,0.0967407,0,622.762,-806.614,-0.320312,0.117188,75.9403,105000
-0.26355,0.161621,0.425293,0.252,0.238,108.33,108.33,-6.98216,0.0805511,0,568.085,-780.275,-0.320312,0.0078125,75.9603,105030
-0.637634,0.509766,1.04187,0.709,0.542,107.61,107.61,-7.01695,0.0659027,0,613.046,-635.163,-0.320312,0.0078125,75.9991,105060
-0.536804,0.269897,1.11035,0.442,0.52,107.47,107.47,-7.0332,0.0595551,0,598.05,-700.82,-0.320312,0.0078125,76.0145,105075
-0.247498,0.130493,0.947876,0.214,0.27,107.43,107.43,-7.04903,0.0537567,0,519.022,-628.437,-0.320312,0.0078125,76.0334,105090
-0.228027,0.103455,0.902344,0.18,0.253,107.4,107.4,-7.06458,0.0483093,0,639.121,-540.877,-0.320312,0.0078125,76.0457,105105
0.0151978,0.173767,0.806885,0.172,-0.007,107.41,107.41,-7.07988,0.0430298,0,508.621,-615.044,-0.320312,0.0078125,76.0608,105120
0.15094,0.083252,0.921082,0.044,-0.1,107.45,107.45,-7.11005,0.0322723,0,603.3,-487.104,-0.320312,0.0078125,76.0809,105150
-0.086853,0.0136108,0.817322,0.048,0.138,107.47,107.47,-7.125,0.0268707,0,542.241,-595.15,-0.320312,0.0078125,76.1033,105165
0.00909424,0.0901489,1.0722,0.093,0.042,107.49,107.49,-7.13988,0.0215912,0,595.274,-595.965,-0.320312,0.0078125,76.1205,105180
0.072937,0.090332,1.25281,0.073,-0.004,107.53,107.53,-7.16933,0.0112305,0,573.312,-448.109,-0.320312,0.0078125,76.1419,105210
0.0181274,0.0131836,0.83197,0.013,0.039,107.54,107.54,-7.18394,0.00608826,0,503.588,-534.774,-0.257812,0.0078125,76.1604,105225
0.137756,0.0994873,0.942322,0.059,-0.092,107.56,107.56,-7.19852,0.000915527,0,532.34,-468.329,-0.257812,0.0078125,76.1808,105240
-0.052063,0.221375,1.07678,0.23,0.059,107.61,107.61,-7.22705,-0.00930786,0,482.021,-556.886,-0.257812,0.0078125,76.2008,105270
-0.00805664,0.0908813,0.888062,0.09,0.043,107.66,107.66,-7.24097,-0.0142975,0,482.8,-501.958,-0.257812,0.0078125,76.2217,105285
0.0759888,0.0230713,0.771973,0,-0.024,107.7,107.7,-7.25482,-0.0192719,0,448.199,-413.813,-0.257812,0.0078125,76.2407,105300
-0.000793457,0.0497437,0.874084,0.047,0.047,107.7,107.7,-7.28226,-0.0292053,0,456.6,-493.255,-0.25,0.0078125,76.2608,105330
0.115112,0.081665,1.05121,0.041,-0.059,107.71,107.71,-7.29587,-0.0341644,0,424.827,-450.948,-0.25,0.0078125,76.2807,105345
-0.00256348,0.103333,0.80603,0.097,0.029,107.73,107.73,-7.30939,-0.0391388,0,401.003,-495.405,-0.25,0.0078125,76.3013,105360
-0.0186768,0.0796509,1.01923,0.078,0.066,107.74,107.74,-7.33607,-0.0488586,0,471.209,-420.38,-0.25,0.0078125,76.3218,105390
-0.0179443,0.0951538,0.797607,0.093,0.044,107.76,107.76,-7.34926,-0.0536041,0,419.666,-403.34,-0.25,0.0078125,76.3406,105405
0.0542603,0.0906982,0.938538,0.065,-0.012,107.77,107.77,-7.36232,-0.0583344,0,468.658,-330.191,-0.25,0.0078125,76.3607,105420
0.0557861,0.132324,0.864197,0.102,-0.032,107.8,107.8,-7.38803,-0.0677643,0,393.174,-397.227,-0.25,0.0078125,76.3805,105450
0.048584,0.0828857,0.898071,0.056,-0.008,107.82,107.82,-7.40071,-0.0725098,0,389.052,-424.502,-0.25,0.0078125,76.4014,105465
-0.0251465,0.0872192,1.10132,0.08,0.075,107.82,107.82,-7.41328,-0.0772095,0,372.141,-378.379,-0.25,0.0078125,76.4209,105480
-0.0717163,0.0278931,0.905762,0.039,0.123,107.8,107.8,-7.43817,-0.0864105,0,407.307,-427.213,-0.25,0.0078125,76.4406,105510
-0.0278931,-0.0108032,0.930054,-0.009,0.094,107.78,107.78,-7.45055,-0.0908356,0,355.025,-347.482,-0.25,0.0078125,76.4627,105525
0.0714111,0.0477295,0.937012,0.015,-0.017,107.78,107.78,-7.45055,-0.0951843,0,352.616,-359.602,-0.25,0.0078125,76.4812,105540
-0.060791,0.114929,0.938538,0.119,0.088,107.8,107.8,-7.45038,-0.103989,0,369.038,-316.992,-0.25,0.0078125,76.501,105570
0.052002,0.100586,0.88855,0.071,-0.018,107.82,107.82,-7.4501,-0.108322,0,318.177,-356.354,-0.25,0.0078125,76.5209,105585
-0.00897217,0.0986938,0.878418,0.087,0.039,107.83,107.83,-7.44972,-0.112656,0,348.882,-383.774,-0.25,0.0078125,76.5412,105600
0.0393677,0.107117,0.904907,0.079,-0.008,107.86,107.86,-7.44868,-0.12117,0,323.494,-313.322,-0.25,0.0078125,76.562,105630
0.00671387,0.0390625,0.94281,0.023,0.046,107.87,107.87,-7.44804,-0.125381,0,319.04,-337.171,-0.25,0.0078125,76.5806,105645
-0.00640869,0.059021,0.858521,0.047,0.046,107.88,107.88,-7.44737,-0.129547,0,313.666,-287.898,-0.25,0.0078125,76.6014,105660
-0.0134888,0.0415649,0.885376,0.031,0.061,107.91,107.91,-7.44568,-0.137772,0,285.837,-324.602,-0.25,0.0078125,76.6212,105690
-0.024231,0.059021,1.00653,0.049,0.073,107.91,107.91,-7.44472,-0.141785,0,301.364,-290.141,-0.25,0.0078125,76.6403,105705
0.0150146,0.0718384,0.819275,0.052,0.019,107.92,107.92,-7.44371,-0.145721,0,283.817,-262.188,-0.25,0.0078125,76.6611,105719
0.0635986,0.038208,0.942871,0.002,-0.007,107.94,107.94,-7.44154,-0.153641,0,285.523,-283.31,-0.25,0.0078125,76.6809,105749
0.0178833,0.0526733,0.951477,0.03,0.031,107.95,107.95,-7.44044,-0.157593,0,302.014,-267.123,-0.25,0.0078125,76.7006,105764
0.0389404,0.0774536,0.914124,0.047,0.001,107.96,107.96,-7.43929,-0.161514,0,278.153,-220.794,-0.25,0.0078125,76.7205,105779
-0.0251465,0.0621338,0.998352,0.05,0.072,107.99,107.99,-7.43671,-0.16922,0,253.286,-251.924,-0.25,0.0078125,76.7407,105809
0.0103149,0.0597534,0.860535,0.039,0.029,108,108,-7.43532,-0.172974,0,281.243,-259.141,-0.25,0.0078125,76.7608,105824
-0.00604248,0.00921631,0.859802,-0.004,0.059,108.02,108.02,-7.4339,-0.176651,0,256.489,-198.495,-0.25,0.0078125,76.7809,105839
-0.0112915,0.0576782,0.891907,0.042,0.052,108.04,108.04,-7.43091,-0.184006,0,259.387,-225.327,-0.25,0.0078125,76.8008,105869
-0.024231,0.0957031,1.02136,0.079,0.06,108.04,108.04,-7.42931,-0.187622,0,256.66,-228.102,-0.25,0.0078125,76.8216,105884
0.0108643,0.0368652,0.798828,0.016,0.03,108.06,108.06,-7.42763,-0.191162,0,240.967,-233.637,-0.25,0.0078125,76.8411,105899
0.0560913,0.0653687,0.987732,0.025,-0.008,108.1,108.1,-7.42419,-0.194687,0,228.841,-240.964,-0.242188,0.0078125,76.8602,105929
0.046936,0.0512695,0.858154,0.017,-0.004,108.11,108.11,-7.42244,-0.194687,0,207.329,-232.164,-0.171875,0.0078125,76.886,105944
0.078125,0.0687866,0.880493,0.023,-0.038,108.13,108.13,-7.42241,-0.194595,0,210.4,-223.159,-0.078125,0.0078125,76.9029,105975
0.0980225,0.137878,0.985107,0.079,-0.071,108.15,108.15,-7.42232,-0.194626,0,184.602,-218.024,-0.03125,0.0078125,76.9208,105989
0.0586548,0.115234,1.01801,0.069,-0.024,108.14,108.14,-7.42212,-0.194717,0,182.986,-160.04,-0.0078125,0.0078125,76.9406,106004
0.0706177,0.111816,0.919128,0.063,-0.041,108.13,108.13,-7.42183,-0.194855,0,159.804,-192.634,-0.0078125,0.0078125,76.9608,106019
0.0215454,0.162109,0.927124,0.124,-0.009,108.12,108.12,-7.42088,-0.195145,0,157.616,-164.305,-0.0078125,0.0078125,76.9811,106049
0.0645752,0.128479,0.962158,0.077,-0.037,108.13,108.13,-7.4202,-0.195312,0,119.247,-136.659,0.023622,0.0078125,77.0027,106064
0.0619507,0.160217,0.956116,0.107,-0.045,108.14,108.14,-7.41937,-0.195541,0,87.5726,-132.038,0.165354,0.0078125,77.0218,106079
0.0569458,0.14032,0.952393,0.088,-0.034,108.15,108.15,-7.41734,-0.196075,0,69.218,-124.838,0.527559,0.0078125,77.0435,106109
0.0899048,0.239075,0.918579,0.172,-0.097,108.14,108.14,-7.41608,-0.196442,0,-17.6108,-83.2064,0.874016,-0.102362,77.0614,106124
0.0803223,0.226929,1.02441,0.158,-0.076,108.11,108.11,-7.4146,-0.196915,0,-415.956,-61.7663,0.984252,-0.330709,77.0816,106139
0.143372,0.307129,1.09961,0.207,-0.152,108,108,-7.41074,-0.19838,0,-664.011,-52.3123,1,-0.708661,77.1012,106169
0.134949,0.320557,0.799316,0.232,-0.168,107.93,107.93,-7.40834,-0.199432,0,-862.366,166.197,1,-0.92126,77.1203,106184
0.0419312,0.649231,0.934937,0.563,-0.168,107.89,107.89,-7.40541,-0.200714,0,-851.281,365.885,1,-1,77.1414,106199
-0.363953,0.714722,0.997375,0.733,0.204,107.99,107.99,-7.39722,-0.203857,0,-804.149,457.122,1,-1,77.1605,106229
0.0794067,0.632507,0.853149,0.52,-0.202,108.07,108.07,-7.39185,-0.20546,0,-711.769,617.436,1,-1,77.1815,106244
-0.0630493,0.640442,0.968628,0.557,-0.06,108.15,108.15,-7.38574,-0.20723,0,-897.384,728.226,1,-1,77.2011,106259
-0.161072,0.752686,1.43591,0.645,0.035,108.31,108.31,-7.37187,-0.210541,0,-845.594,666.556,1,-1,77.2222,106289
-0.0933838,0.405701,0.650574,0.357,0.015,108.4,108.4,-7.36397,-0.212097,0,-987.996,753.778,1,-1,77.2398,106304
-0.022583,0.426514,0.852966,0.334,-0.04,108.49,108.49,-7.35559,-0.213669,0,-898.109,711.794,1,-1,77.2619,106319
-0.0726318,0.477478,1.05096,0.369,0.006,108.63,108.63,-7.33723,-0.2173,0,-913.826,816.127,1,-1,77.2804,106349
-0.0326538,0.361877,0.976379,0.251,0,108.66,108.66,-7.32738,-0.219177,0,-1029.07,1094.81,1,-1,77.3044,106364
0.0925903,0.366699,0.976135,0.213,-0.119,108.67,108.67,-7.31718,-0.221146,0,-1008.47,1113.21,1,-1,77.3201,106379
0.252686,0.26001,0.955688,0.058,-0.238,108.64,108.64,-7.2959,-0.225204,0,-1068.2,1075.96,0.779528,-1,77.3406,106409
-0.131348,0.345337,0.496887,0.31,0.059,108.64,108.64,-7.28488,-0.227402,0,-1206.71,1101.14,0.598425,-1,77.3612,106424
0.198914,-0.00311279,0.578857,-0.135,-0.139,108.71,108.71,-7.24924,-0.232742,0,-1076.54,1383.8,0.291339,-1,77.4002,106469
0.198914,-0.00311279,0.578857,-0.135,-0.139,108.71,108.71,-7.24924,-0.232742,0,-1107.97,1343.18,0.291339,-1,77.4039,106469
0.138855,0.0686646,0.929199,-0.093,-0.076,108.78,108.78,-7.23734,-0.234604,0,-1027.38,1232.06,0.023622,-1,77.4203,106484
0.237366,0.198608,0.881836,0.002,-0.214,108.88,108.88,-7.22549,-0.236664,0,-993.986,1428.16,-0.0078125,-1,77.4411,106499
-0.062561,0.0645752,0.420593,0.03,0.069,109.39,109.39,-7.18947,-0.242493,0,-1106.81,1207.15,-0.0078125,-1,77.4825,106544
0.183411,0.158569,0.869385,-0.018,-0.158,109.64,109.64,-7.17764,-0.244186,0,-1063.77,1220.48,-0.0234375,-1,77.5012,106559
-0.0714722,-0.0353394,0.526367,-0.071,0.119,110.04,110.04,-7.15395,-0.247818,0,-1139.08,1278.85,-0.046875,-1,77.5215,106589
0.00811768,0.101013,1.83209,-0.128,0.099,110.25,110.25,-7.14223,-0.249451,0,-1153.27,1390.05,-0.101562,-1,77.5413,106605
0.307556,-0.0982056,0.722839,-0.283,-0.199,110.42,110.42,-7.1308,-0.25116,0,-893.535,1070.21,-0.132812,-1,77.5609,106619
-0.0765991,-0.270508,0.931763,-0.333,0.237,110.76,110.76,-7.1087,-0.255066,0,-625.098,1145.87,-0.203125,-1,77.5806,106649
-0.350159,0.162964,1.81995,0.067,0.407,111.01,111.01,-7.09799,-0.256561,0,-401.413,1419.95,-0.304688,-1,77.601,106664
-0.132019,-0.18573,0.202393,-0.146,0.203,111.34,111.34,-7.08731,-0.257645,0,-246.819,1473.19,-0.429688,-1,77.621,106679
-0.157104,-0.226318,1.3374,-0.295,0.313,112.25,112.25,-7.06682,-0.258804,0,-170.806,1339.76,-0.5,-1,77.6406,106709
-0.363525,-0.385742,0.943054,-0.314,0.534,112.81,112.81,-7.05717,-0.258606,0,-82.871,1285.02,-0.570312,-1,77.6606,106724
-0.659729,-0.0765381,0.667297,0.123,0.669,113.48,113.48,-7.04764,-0.257599,0,107.46,1299.97,-0.585938,-1,77.68,106739
-0.246887,-0.0596924,1.7326,-0.125,0.326,115.08,115.08,-7.02867,-0.253891,0,185.912,1444.77,-0.609375,-1,77.7008,106769
-0.415833,-0.222778,0.538879,-0.069,0.492,115.96,115.96,-7.01939,-0.251266,0,174.271,1159.02,-0.609375,-1,77.7209,106784
-0.342224,-0.0939331,0.487793,0.024,0.364,116.95,116.95,-7.01013,-0.248047,0,205.645,1310.1,-0.664062,-1,77.7408,106799
-0.180054,-0.0823364,0.760498,-0.053,0.22,119.11,119.11,-6.9921,-0.240601,0,258.121,1197.89,-0.742188,-1,77.7622,106829
-0.271729,-0.0895996,0.426392,0.021,0.29,120.26,120.26,-6.9832,-0.236374,0,268.269,1144.82,-0.78125,-1,77.7801,106844
-0.119202,-0.174622,1.08545,-0.177,0.216,122.84,122.84,-6.96577,-0.227005,0,409.576,1014.2,-0.804688,-1,77.8138,106874
-0.259827,-0.0223999,0.580322,0.077,0.237,124.2,124.2,-6.95724,-0.221878,0,436.567,1135.78,-0.804688,-1,77.8209,106889
-0.156677,-0.0183105,0.778809,0.008,0.148,125.64,125.64,-6.94865,-0.216492,0,476.054,1072.79,-0.8125,-1,77.8426,106904
0.0413818,-0.076355,1.11707,-0.181,0.027,127.17,127.17,-6.94019,-0.210968,0,469.737,1144.89,-0.8125,-1,77.861,106919
-0.361023,-0.175049,0.302063,0.074,0.39,130.31,130.31,-6.92311,-0.199554,0,424.719,1094.93,-0.8125,-1,77.8816,106949
-0.107117,0.0327148,1.25916,-0.009,0.062,131.99,131.99,-6.91444,-0.19339,0,486.784,949.532,-0.8125,-1,77.9004,106964
-0.238037,0.345215,1.62549,0.273,-0.06,133.72,133.72,-6.90561,-0.187225,0,475.5,990.442,-0.8125,-1,77.9226,106979
-0.142517,0.0377808,0.825012,0.06,0.07,137.26,137.26,-6.88708,-0.174561,0,553.971,850.051,-0.8125,-1,77.9408,107009
-0.107117,0.088623,1.37958,0.022,0.005,139.09,139.09,-6.87769,-0.168106,0,562.224,1153.34,-0.8125,-1,77.9622,107024
0.0579224,0.228943,0.548218,0.046,-0.216,142.83,142.83,-6.85832,-0.155289,0,679.648,995.372,-0.8125,-1,77.9846,107054
-0.284546,0.402222,1.89557,0.303,-0.157,144.76,144.76,-6.8483,-0.1492,0,635.748,817.261,-0.8125,-1,78.0023,107069
-0.00683594,0.194153,0.476257,0.074,-0.156,146.69,146.69,-6.83803,-0.143326,0,643.749,1107.05,-0.8125,-1,78.0211,107086
-0.00787354,0.325562,0.864685,0.104,-0.27,148.66,148.66,-6.82762,-0.137741,0,712.657,963.855,-0.8125,-1,78.0406,107099
0.0839844,0.139709,0.882507,-0.081,-0.155,152.7,152.7,-6.80598,-0.127441,0,729.741,966.557,-0.8125,-1,78.0611,107129
-0.00360107,0.238525,1.36133,-0.007,-0.2,154.75,154.75,-6.79512,-0.122665,0,763.446,957.671,-0.8125,-1,78.08,107144
0.0213623,0.106995,0.300781,-0.002,-0.104,156.82,156.82,-6.79512,-0.118088,0,673.151,931.315,-0.8125,-1,78.1,107159
0.164185,0.184753,0.888,-0.17,-0.219,161.08,161.08,-6.79567,-0.110077,0,651.721,1065.93,-0.8125,-1,78.1209,107189
-0.0704956,0.118103,0.938171,0.021,-0.084,163.23,163.23,-6.79616,-0.106506,0,756.315,1046.41,-0.8125,-1,78.1415,107204
0.194214,0.179504,1.16278,-0.24,-0.212,165.4,165.4,-6.79681,-0.103134,0,736.133,1033.38,-0.8125,-1,78.1618,107219
0.074707,0.114746,0.936829,-0.129,-0.115,169.74,169.74,-6.79893,-0.0969849,0,820.58,1278.77,-0.8125,-1,78.1804,107249
0.139648,0.103027,1.36011,-0.234,-0.104,171.9,171.9,-6.80035,-0.0941467,0,803.181,1111.05,-0.8125,-1,78.201,107264
0.0639648,0.208435,0.744263,-0.1,-0.204,174.04,174.04,-6.802,-0.0915222,0,869.338,983.623,-0.8125,-1,78.2205,107279
0.3078,0.207092,0.504639,-0.339,-0.208,178.32,178.32,-6.80518,-0.087265,0,881.562,1033.54,-0.8125,-1,78.2495,107309
0.0723267,0.420471,1.13464,-0.162,-0.398,-179.52,180.47,-6.80713,-0.0857086,0,883.392,1247.43,-0.8125,-1,78.2603,107324
-0.0143433,0.198364,1.03156,-0.072,-0.178,-177.39,182.6,-6.80925,-0.084549,0,900.698,1074,-0.8125,-1,78.2803,107339
0.0623169,0.226074,0.445251,-0.12,-0.207,-173.15,186.84,-6.81352,-0.0830994,0,1023.17,882.885,-0.8125,-1,78.3002,107369
-0.158752,0.517395,1.81952,-0.051,-0.485,-171.05,188.94,-6.81578,-0.0829926,0,927.515,994.926,-0.8125,-1,78.321,107384
0.0195923,0.123779,-0.101624,-0.036,-0.12,-168.98,191.01,-6.81812,-0.0832977,0,801.796,1021.03,-0.8125,-0.92126,78.3415,107399
0.497986,0.0461426,0.609131,-0.53,0.105,-164.82,195.17,-6.82301,-0.0849762,0,817.494,999.051,-0.8125,-0.724409,78.3611,107428
-0.0531616,0.54071,1.29358,-0.183,-0.488,-162.79,197.2,-6.82611,-0.0861969,0,831.221,851.97,-0.8125,-0.511811,78.3815,107443
0.0790405,0.348694,0.29425,-0.205,-0.293,-160.78,199.21,-6.82947,-0.0879517,0,897.787,718.959,-0.8125,-0.212598,78.4007,107458
0.212708,0.276306,0.928162,-0.348,-0.134,-156.78,203.21,-6.83763,-0.0924377,0,972.432,478.698,-0.8125,-0.0787402,78.4221,107488
0.0835571,0.178528,0.475464,-0.173,-0.107,-154.81,205.18,-6.84233,-0.0949554,0,913.91,239.146,-0.8125,0.0078125,78.4411,107503
0.398132,0.00598145,1.74323,-0.431,0.242,-152.86,207.13,-6.84744,-0.0973969,0,857.265,144.721,-0.75,0.0078125,78.4606,107518
0.286011,-0.312134,0.543762,-0.107,0.43,-149.34,210.65,-6.85835,-0.101883,0,971.298,101.608,-0.6875,0.0078125,78.4807,107548
0.181702,0.0703735,0.908569,-0.224,0.064,-147.72,212.27,-6.86407,-0.103683,0,1046.3,84.427,-0.5625,0.0078125,78.5004,107563
0.495972,-0.244202,0.257263,-0.284,0.484,-146.17,213.82,-6.87015,-0.105103,0,864.491,44.8018,-0.328125,0.0078125,78.5207,107578
0.229675,-0.0853271,-0.150146,-0.129,0.203,-143.22,216.77,-6.88303,-0.107605,0,826.31,44.8018,-0.179688,0.0078125,78.5405,107608
0.191284,0.00317383,0.33783,-0.16,0.12,-141.8,218.19,-6.88977,-0.108643,0,809.815,-10.2567,-0.0234375,0.0078125,78.5618,107623
0.126404,0.262024,1.99994,-0.295,-0.088,-139.16,220.83,-6.90448,-0.11026,0,557.057,-106.681,-0.0078125,0.0078125,78.5927,107654
