accel_x,accel_y,accel_z,gyro_x,gyro_y,gyro_z,x,y,z,left_encoder_rate,right_encoder_rate,left_input,right_input,fpga time,navx time
     0,0,0,0,0,0,0,0,0,0,0,-0.0078125,-0.00787402,45.4499,0
     0,0,0,0,0,0,0,0,0,0,0,-0.0078125,-0.00787402,45.4662,0
     0,0,0,0,0,0,0,0,0,0,0,-0.0078125,-0.00787402,45.4851,0
     0,0,0,0,0,0,0,0,0,0,0,-0.0078125,-0.00787402,45.5051,0
     0,0,0,0,0,0,0,0,0,0,0,-0.0078125,-0.00787402,45.5251,0
     0,0,0,0,0,0,0,0,0,0,0,-0.0078125,-0.00787402,45.5672,0
     0,0,0,0,0,0,0,0,0,0,0,-0.0078125,-0.00787402,45.5859,0
     0,0,0,0,0,0,0,0,0,0,0,-0.0078125,-0.00787402,45.6062,0
     0,0,0,0,0,0,0,0,0,0,0,-0.0078125,-0.00787402,45.6261,0
     0,0,0,0,0,0,0,0,0,0,0,-0.0078125,-0.00787402,45.6503,0
     0,0,0,0,0,0,0,0,0,0,0,-0.0078125,-0.00787402,45.6651,0
     0,0,0,0,0,0,0,0,0,0,0,-0.0078125,-0.00787402,45.6851,0
     0,0,0,0,0,0,0,0,0,0,0,-0.0078125,-0.00787402,45.7053,0
     0,0,0,0,0,0,0,0,0,0,0,-0.0078125,-0.00787402,45.7258,0
     0,0,0,0,0,0,0,0,0,0,0,-0.0078125,-0.00787402,45.7455,0
     0,0,0,0,0,0,0,0,0,0,0,-0.0078125,-0.00787402,45.7655,0
     0,0,0,0,0,0,0,0,0,0,0,-0.0078125,-0.00787402,45.7854,0
     0,0,0,0,0,0,0,0,0,0,0,-0.0078125,-0.00787402,45.8056,0
     0,0,0,0,0,0,0,0,0,0,0,-0.0078125,-0.00787402,45.8255,0
     0,0,0,0,0,0,0,0,0,0,0,-0.0078125,-0.00787402,45.8452,0
     0,0,0,0,0,0,0,0,0,0,0,-0.0078125,-0.00787402,45.866,0
     0,0,0,0,0,0,0,0,0,0,0,-0.0078125,-0.00787402,45.8856,0
     0,0,0,0,0,0,0,0,0,0,0,-0.0078125,-0.00787402,45.9057,0
     0,0,0,0,0,0,0,0,0,0,0,-0.0078125,-0.00787402,45.9257,0
     0,0,0,0,0,0,0,0,0,0,0,-0.0078125,-0.00787402,45.9455,0
     0,0,0,0,0,0,0,0,0,0,0,-0.0078125,-0.00787402,45.9656,0
     0,0,0,0,0,0,0,0,0,0,0,-0.0078125,-0.00787402,45.9858,0
     0,0,0,0,0,0,0,0,0,0,0,-0.0078125,-0.00787402,46.006,0
     0,0,0,0,0,0,0,0,0,0,0,-0.0078125,-0.00787402,46.0262,0
     0,0,0,0,0,0,0,0,0,0,0,-0.0078125,-0.00787402,46.0456,0
     0,0,0,0,0,0,0,0,0,0,0,-0.0078125,-0.00787402,46.0653,0
     0,0,0,0,0,0,0,0,0,0,0,-0.0078125,-0.00787402,46.0865,0
     0,0,0,0,0,0,0,0,0,0,0,-0.0078125,-0.00787402,46.1061,0
     0,0,0,0,0,0,0,0,0,0,0,-0.0078125,-0.00787402,46.1254,0
     0,0,0,0,0,0,0,0,0,0,0,-0.0078125,-0.00787402,46.1455,0
     0,0,0,0,0,0,0,0,0,0,0,-0.0078125,-0.00787402,46.1656,0
     0,0,0,0,0,0,0,0,0,0,0,-0.0078125,-0.00787402,46.1864,0
     0,0,0,0,0,0,0,0,0,0,0,-0.0078125,-0.00787402,46.2062,0
     0,0,0,0,0,0,0,0,0,0,0,-0.0078125,-0.00787402,46.2262,0
     0,0,0,0,0,0,0,0,0,0,0,-0.0078125,-0.00787402,46.2449,0
     0,0,0,0,0,0,0,0,0,0,0,-0.0078125,-0.00787402,46.2652,0
     0,0,0,0,0,0,0,0,0,0,0,-0.0078125,-0.00787402,46.2853,0
     0,0,0,0,0,0,0,0,0,0,0,-0.0078125,-0.00787402,46.305,0
     0,0,0,0,0,0,0,0,0,0,0,-0.0078125,-0.00787402,46.3251,0
     0,0,0,0,0,0,0,0,0,0,0,-0.0078125,-0.00787402,46.3456,0
     0,0,0,0,0,0,0,0,0,0,0,-0.0078125,-0.00787402,46.3654,0
     0,0,0,0,0,0,0,0,0,0,0,-0.0078125,-0.00787402,46.3854,0
     0,0,0,0,0,0,0,0,0,0,0,-0.0078125,-0.00787402,46.4054,0
     0,0,0,0,0,0,0,0,0,0,0,-0.0078125,-0.00787402,46.4252,0
     0,0,0,0,0,0,0,0,0,0,0,-0.0078125,-0.00787402,46.4455,0
     0,0,0,0,0,0,0,0,0,0,0,-0.0078125,-0.00787402,46.4656,0
     0,0,0,0,0,0,0,0,0,0,0,-0.0078125,-0.00787402,46.4856,0
     0,0,0,0,0,0,0,0,0,0,0,-0.0078125,-0.00787402,46.5057,0
     0,0,0,0,0,0,0,0,0,0,0,-0.0078125,-0.00787402,46.5257,0
     0,0,0,0,0,0,0,0,0,0,0,-0.0078125,-0.00787402,46.5456,0
     0,0,0,0,0,0,0,0,0,0,0,-0.0078125,-0.00787402,46.5657,0
     0,0,0,0,0,0,0,0,0,0,0,-0.0078125,-0.00787402,46.585,0
     0,0,0,0,0,0,0,0,0,0,0,-0.0078125,-0.00787402,46.6051,0
     0,0,0,0,0,0,0,0,0,0,0,-0.0078125,-0.00787402,46.6261,0
     0,0,0,0,0,0,0,0,0,0,0,-0.0078125,-0.00787402,46.6452,0
     0,0,0,0,0,0,0,0,0,0,0,-0.0078125,-0.00787402,46.6656,0
     0,0,0,0,0,0,0,0,0,0,0,-0.0078125,-0.00787402,46.6855,0
     0,0,0,0,0,0,0,0,0,0,0,-0.0078125,-0.00787402,46.7054,0
     0,0,0,0,0,0,0,0,0,0,0,-0.0078125,-0.00787402,46.7251,0
     0,0,0,0,0,0,0,0,0,143.191,-163.255,-0.0078125,-0.00787402,46.7456,0
     0,0,0,0,0,0,0,0,0,153.221,-133.617,-0.0078125,-0.00787402,46.7656,0
     0,0,0,0,0,0,0,0,0,151.388,-136.511,-0.0078125,-0.00787402,46.7855,0
     0,0,0,0,0,0,0,0,0,209.475,-178.758,-0.0078125,-0.00787402,46.8056,0
     0,0,0,0,0,0,0,0,0,224.248,-182.939,-0.0078125,-0.00787402,46.826,0
     0,0,0,0,0,0,0,0,0,222.68,-213.639,-0.0078125,-0.00787402,46.8461,0
     0,0,0,0,0,0,0,0,0,247.767,-280.986,-0.0078125,-0.00787402,46.8668,0
     0,0,0,0,0,0,0,0,0,264.075,-264.715,-0.0078125,-0.00787402,46.8863,0
     0,0,0,0,0,0,0,0,0,260.715,-242.657,-0.0078125,-0.00787402,46.9051,0
     0,0,0,0,0,0,0,0,0,304.025,-379.269,-0.0078125,-0.00787402,46.9261,0
     0,0,0,0,0,0,0,0,0,317.319,-220.826,-0.0078125,-0.00787402,46.9452,0
     0,0,0,0,0,0,0,0,0,311.658,-332.005,-0.0078125,-0.00787402,46.9652,0
     0,0,0,0,0,0,0,0,0,336.581,-374.834,-0.0078125,-0.00787402,46.9852,0
     0,0,0,0,0,0,0,0,0,332.121,-477.27,-0.0078125,-0.00787402,47.0053,0
     0,0,0,0,0,0,0,0,0,338.535,-398.176,-0.0078125,-0.00787402,47.0251,0
     0,0,0,0,0,0,0,0,0,365.831,-397.433,-0.0078125,-0.00787402,47.0464,0
     0,0,0,0,0,0,0,0,0,348.931,-378.465,-0.0078125,-0.00787402,47.0658,0
     0,0,0,0,0,0,0,0,0,376.166,-414.989,-0.0078125,-0.00787402,47.0856,0
     0,0,0,0,0,0,0,0,0,380.178,-401.429,-0.0078125,-0.00787402,47.1057,0
     0,0,0,0,0,0,0,0,0,419.701,-393.67,-0.0078125,-0.00787402,47.1379,0
     0,0,0,0,0,0,0,0,0,384.697,-377.145,-0.0078125,-0.00787402,47.1456,0
     0,0,0,0,0,0,0,0,0,434.452,-424.845,-0.0078125,-0.00787402,47.1652,0
     0,0,0,0,0,0,0,0,0,369.911,-387.372,-0.0078125,-0.00787402,47.1851,0
     0,0,0,0,0,0,0,0,0,357.942,-446.04,-0.0078125,-0.00787402,47.2053,0
     0,0,0,0,0,0,0,0,0,402.787,-370.672,-0.0078125,-0.00787402,47.2251,0
     0,0,0,0,0,0,0,0,0,400.858,-370.151,-0.0078125,-0.00787402,47.2454,0
     0,0,0,0,0,0,0,0,0,429.978,-376.315,-0.0078125,-0.00787402,47.2656,0
     0,0,0,0,0,0,0,0,0,434.461,-360.588,-0.0078125,-0.00787402,47.2858,0
     0,0,0,0,0,0,0,0,0,398.081,-413.291,-0.0078125,-0.00787402,47.3063,0
     0,0,0,0,0,0,0,0,0,387.522,-392.619,-0.0078125,-0.00787402,47.3263,0
     0,0,0,0,0,0,0,0,0,376.294,-373.065,-0.0078125,-0.00787402,47.3463,0
     0,0,0,0,0,0,0,0,0,373.797,-417.397,-0.0078125,-0.00787402,47.3661,0
     0,0,0,0,0,0,0,0,0,411.811,-354.843,-0.0078125,-0.00787402,47.3851,0
     0,0,0,0,0,0,0,0,0,415.05,-475.059,-0.0078125,-0.00787402,47.4052,0
     0,0,0,0,0,0,0,0,0,466.723,-369.44,-0.0078125,-0.00787402,47.4262,0
     0,0,0,0,0,0,0,0,0,427.917,-400.721,-0.0078125,-0.00787402,47.4452,0
     0,0,0,0,0,0,0,0,0,464.576,-454.143,-0.0078125,-0.00787402,47.4665,0
     0,0,0,0,0,0,0,0,0,414.654,-436.767,-0.0078125,-0.00787402,47.4853,0
     0,0,0,0,0,0,0,0,0,419.191,-401.937,-0.0078125,-0.00787402,47.5055,0
     0,0,0,0,0,0,0,0,0,387.079,-432.563,-0.0078125,-0.00787402,47.5253,0
     0,0,0,0,0,0,0,0,0,365.143,-405.54,-0.0078125,-0.00787402,47.5453,0
     0,0,0,0,0,0,0,0,0,408.172,-416.198,-0.0078125,-0.00787402,47.5663,0
     0,0,0,0,0,0,0,0,0,443.341,-299.253,-0.0078125,-0.00787402,47.5864,0
     0,0,0,0,0,0,0,0,0,415.377,-376.223,-0.0078125,-0.00787402,47.6063,0
     0,0,0,0,0,0,0,0,0,425.767,-488.926,-0.0078125,-0.00787402,47.6261,0
     0,0,0,0,0,0,0,0,0,409.249,-434.056,-0.0078125,-0.00787402,47.6458,0
     0,0,0,0,0,0,0,0,0,414.345,-428.192,-0.0078125,-0.00787402,47.6753,0
     0,0,0,0,0,0,0,0,0,390.885,-414.903,-0.0078125,-0.00787402,47.6859,0
     0,0,0,0,0,0,0,0,0,440.878,-469.109,-0.0078125,-0.00787402,47.7059,0
     0,0,0,0,0,0,0,0,0,416.649,-418.498,-0.0078125,-0.00787402,47.7259,0
     0,0,0,0,0,0,0,0,0,442.733,-406.785,-0.0078125,-0.00787402,47.7579,0
     0,0,0,0,0,0,0,0,0,467.039,-430.209,-0.0078125,-0.00787402,47.7828,0
     0,0,0,0,0,0,0,0,0,441.872,-423.406,-0.0078125,-0.00787402,47.7857,0
     0,0,0,0,0,0,0,0,0,419.34,-432.554,-0.0078125,-0.00787402,47.805,0
     0,0,0,0,0,0,0,0,0,373.03,-371.775,-0.0078125,-0.00787402,47.8253,0
     0,0,0,0,0,0,0,0,0,436.834,-481.209,-0.0078125,-0.00787402,47.8458,0
     0,0,0,0,0,0,0,0,0,433.802,-383.848,-0.0078125,-0.00787402,47.8667,0
     0,0,0,0,0,0,0,0,0,441.462,-520.888,-0.0078125,-0.00787402,47.8851,0
     0,0,0,0,0,0,0,0,0,426.776,-382.621,-0.0078125,-0.00787402,47.9054,0
     0,0,0,0,0,0,0,0,0,411.879,-491.364,-0.0078125,-0.00787402,47.9262,0
     0,0,0,0,0,0,0,0,0,439.454,-394.065,-0.0078125,-0.00787402,47.9454,0
     0,0,0,0,0,0,0,0,0,428.027,-423.379,-0.0078125,-0.00787402,47.9654,0
     0,0,0,0,0,0,0,0,0,482.346,-406.595,-0.0078125,-0.00787402,47.9862,0
     0,0,0,0,0,0,0,0,0,455.913,-457.31,-0.0078125,-0.00787402,48.0055,0
     0,0,0,0,0,0,0,0,0,440.335,-441.677,-0.0078125,-0.00787402,48.0254,0
     0,0,0,0,0,0,0,0,0,436.357,-521.132,-0.0078125,-0.00787402,48.0479,0
     0,0,0,0,0,0,0,0,0,448.763,-443.115,-0.0078125,-0.00787402,48.0657,0
     0,0,0,0,0,0,0,0,0,431.555,-467.268,-0.0078125,-0.00787402,48.0856,0
     0,0,0,0,0,0,0,0,0,480.48,-444.129,-0.0078125,-0.00787402,48.1057,0
     0,0,0,0,0,0,0,0,0,443.567,-431.22,-0.0078125,-0.00787402,48.1255,0
     0,0,0,0,0,0,0,0,0,439.531,-439.483,-0.0078125,-0.00787402,48.1458,0
     0,0,0,0,0,0,0,0,0,409.786,-282.957,-0.0078125,-0.00787402,48.1659,0
     0,0,0,0,0,0,0,0,0,460.585,-428.266,-0.0078125,-0.00787402,48.1861,0
     0,0,0,0,0,0,0,0,0,448.501,-501.593,-0.0078125,-0.00787402,48.206,0
     0,0,0,0,0,0,0,0,0,396.44,-427.287,-0.0078125,-0.00787402,48.2259,0
     0,0,0,0,0,0,0,0,0,425.242,-428.78,-0.0078125,-0.00787402,48.2592,0
     0,0,0,0,0,0,0,0,0,430.877,-391.711,-0.0078125,-0.00787402,48.267,0
     0,0,0,0,0,0,0,0,0,402.917,-438.866,-0.0078125,-0.00787402,48.2857,0
     0,0,0,0,0,0,0,0,0,435.834,-366.227,-0.0078125,-0.00787402,48.3055,0
     0,0,0,0,0,0,0,0,0,404.875,-430.784,-0.0078125,-0.00787402,48.3254,0
     0,0,0,0,0,0,0,0,0,412.32,-387.777,-0.0078125,-0.00787402,48.3488,0
     0,0,0,0,0,0,0,0,0,384.179,-470.234,-0.0078125,-0.00787402,48.3659,0
     0,0,0,0,0,0,0,0,0,395.499,-417.947,-0.0078125,-0.00787402,48.3857,0
     0,0,0,0,0,0,0,0,0,391.428,-494.035,-0.0078125,-0.00787402,48.4059,0
     0,0,0,0,0,0,0,0,0,384.431,-363.894,-0.0078125,-0.00787402,48.4257,0
     0,0,0,0,0,0,0,0,0,396.401,-428.651,-0.0078125,-0.00787402,48.4461,0
     0,0,0,0,0,0,0,0,0,419.727,-359.77,-0.0078125,-0.00787402,48.4652,0
     0,0,0,0,0,0,0,0,0,421.781,-523.931,-0.0078125,-0.00787402,48.4851,0
     0,0,0,0,0,0,0,0,0,409.383,-343.024,-0.0078125,-0.00787402,48.5052,0
     0,0,0,0,0,0,0,0,0,409.425,-499.913,-0.0078125,-0.00787402,48.525,0
     0,0,0,0,0,0,0,0,0,433.473,-379.097,-0.0078125,-0.00787402,48.5453,0
     0,0,0,0,0,0,0,0,0,424.25,-418.296,-0.0078125,-0.00787402,48.5652,0
     0,0,0,0,0,0,0,0,0,445.266,-419.93,-0.0078125,-0.00787402,48.5867,0
     0,0,0,0,0,0,0,0,0,451.783,-460.649,-0.0078125,-0.00787402,48.6055,0
     0,0,0,0,0,0,0,0,0,439.329,-426.403,-0.0078125,-0.00787402,48.6278,0
     0,0,0,0,0,0,0,0,0,441.725,-491.485,-0.0078125,-0.00787402,48.6457,0
     0,0,0,0,0,0,0,0,0,435.739,-457.206,-0.0078125,-0.00787402,48.6657,0
     0,0,0,0,0,0,0,0,0,446.17,-476.451,-0.0078125,-0.00787402,48.6863,0
     0,0,0,0,0,0,0,0,0,435.455,-418.017,-0.0078125,-0.00787402,48.7062,0
     0,0,0,0,0,0,0,0,0,431.36,-504.286,-0.0078125,-0.00787402,48.725,0
     0,0,0,0,0,0,0,0,0,-67.8488,-501.492,-0.0078125,-0.00787402,48.7458,0
     0,0,0,0,0,0,0,0,0,-66.5555,-332.867,-0.0078125,-0.00787402,48.7654,0
     0,0,0,0,0,0,0,0,0,-45.4222,-426.394,-0.0078125,-0.00787402,48.7854,0
     0,0,0,0,0,0,0,0,0,-71.3425,-586.39,-0.0078125,-0.00787402,48.8056,0
     0,0,0,0,0,0,0,0,0,-74.7826,-468.263,-0.0078125,-0.00787402,48.8258,0
     0,0,0,0,0,0,0,0,0,-45.6458,-521.078,-0.0078125,-0.00787402,48.8451,0
     0,0,0,0,0,0,0,0,0,-57.2592,-444.563,-0.0078125,-0.00787402,48.8678,0
     0,0,0,0,0,0,0,0,0,-54.5612,-414.25,-0.0078125,-0.00787402,48.8853,0
     0,0,0,0,0,0,0,0,0,-58.2671,-380.127,-0.0078125,-0.00787402,48.9168,0
     0,0,0,0,0,0,0,0,0,-65.4264,-368.888,-0.0078125,-0.00787402,48.9253,0
     0,0,0,0,0,0,0,0,0,-80.3978,-395.116,-0.0078125,-0.00787402,48.9458,0
     0,0,0,0,0,0,0,0,0,-91.9667,-372.606,-0.0078125,-0.00787402,48.9655,0
     0,0,0,0,0,0,0,0,0,-124.8,-371.209,-0.0078125,-0.00787402,48.9856,0
     0,0,0,0,0,0,0,0,0,-150.732,-395.789,-0.0078125,-0.00787402,49.0055,0
     0,0,0,0,0,0,0,0,0,-170.323,-370.83,-0.0078125,-0.00787402,49.0257,0
     0,0,0,0,0,0,0,0,0,-226.737,-437.618,-0.0078125,-0.00787402,49.0451,0
     0,0,0,0,0,0,0,0,0,-232.593,-365.143,-0.0078125,-0.00787402,49.0686,0
     0,0,0,0,0,0,0,0,0,-212.339,-365.738,-0.0078125,-0.00787402,49.0868,0
     0,0,0,0,0,0,0,0,0,-230.585,-394.4,-0.0078125,-0.00787402,49.1054,0
     0,0,0,0,0,0,0,0,0,-260.132,-366.119,-0.0078125,-0.00787402,49.1253,0
     0,0,0,0,0,0,0,0,0,-218.362,-365.945,-0.0078125,-0.00787402,49.1455,0
     0,0,0,0,0,0,0,0,0,-243.129,-353.051,-0.0078125,-0.00787402,49.1664,0
     0,0,0,0,0,0,0,0,0,-285.706,-360.231,-0.0078125,-0.00787402,49.1856,0
     0,0,0,0,0,0,0,0,0,-246.009,-361.448,-0.0078125,-0.00787402,49.2055,0
     0,0,0,0,0,0,0,0,0,-246.217,-353.576,-0.0078125,-0.00787402,49.2258,0
     0,0,0,0,0,0,0,0,0,-262.812,-362.983,-0.0078125,-0.00787402,49.2532,0
     0,0,0,0,0,0,0,0,0,-262.843,-399.289,-0.0078125,-0.00787402,49.2657,0
     0,0,0,0,0,0,0,0,0,-261.097,-361.86,-0.0078125,-0.00787402,49.2858,0
     0,0,0,0,0,0,0,0,0,-275.965,-414.869,-0.0078125,-0.00787402,49.3057,0
     0,0,0,0,0,0,0,0,0,-254.466,-372.884,-0.0078125,-0.00787402,49.3258,0
     0,0,0,0,0,0,0,0,0,-280.108,-351.216,-0.0078125,-0.00787402,49.3475,0
     0,0,0,0,0,0,0,0,0,-264.26,-395.538,-0.0078125,-0.00787402,49.366,0
     0,0,0,0,0,0,0,0,0,-265.77,-364.259,-0.0078125,-0.00787402,49.3866,0
     0,0,0,0,0,0,0,0,0,-322.456,-276.384,-0.0078125,-0.00787402,49.4087,0
     0,0,0,0,0,0,0,0,0,-263.217,-400.112,-0.0078125,-0.00787402,49.4254,0
     0,0,0,0,0,0,0,0,0,-308.49,-444.04,-0.0078125,-0.00787402,49.4455,0
     0,0,0,0,0,0,0,0,0,-279.881,-390.663,-0.0078125,-0.00787402,49.4656,0
     0,0,0,0,0,0,0,0,0,-255.588,-390.389,-0.0078125,-0.00787402,49.4856,0
     0,0,0,0,0,0,0,0,0,-321.094,-410.383,-0.0078125,-0.00787402,49.5056,0
     0,0,0,0,0,0,0,0,0,-288.309,-424.007,-0.0078125,-0.00787402,49.5259,0
     0,0,0,0,0,0,0,0,0,-269.694,-350.287,-0.0078125,-0.00787402,49.5461,0
     0,0,0,0,0,0,0,0,0,-319.183,-420.751,-0.0078125,-0.00787402,49.565,0
     0,0,0,0,0,0,0,0,0,-293.049,-333.823,-0.0078125,-0.00787402,49.5852,0
     0,0,0,0,0,0,0,0,0,-286.43,-487.579,-0.0078125,-0.00787402,49.6053,0
     0,0,0,0,0,0,0,0,0,-286.017,-395.695,-0.0078125,-0.00787402,49.6262,0
     0,0,0,0,0,0,0,0,0,-266,-461.159,-0.0078125,-0.00787402,49.6453,0
     0,0,0,0,0,0,0,0,0,-317.935,-468.999,-0.0078125,-0.00787402,49.6656,0
     0,0,0,0,0,0,0,0,0,-287.175,-485.85,-0.0078125,-0.00787402,49.686,0
     0,0,0,0,0,0,0,0,0,-275.619,-446.419,-0.0078125,-0.00787402,49.7065,0
     0,0,0,0,0,0,0,0,0,-266.372,-460.32,-0.0078125,-0.00787402,49.726,0
     0,0,0,0,0,0,0,0,0,-287.472,-447.898,-0.0078125,-0.00787402,49.746,0
     0,0,0,0,0,0,0,0,0,-312.227,-475.907,-0.0078125,-0.00787402,49.765,0
     0,0,0,0,0,0,0,0,0,-352.33,-431.695,-0.0078125,-0.00787402,49.7854,0
     0,0,0,0,0,0,0,0,0,-317.173,-466.255,-0.0078125,-0.00787402,49.8061,0
     0,0,0,0,0,0,0,0,0,-330.038,-439.358,-0.0078125,-0.00787402,49.8251,0
     0,0,0,0,0,0,0,0,0,-376.776,-427.159,-0.0078125,-0.00787402,49.8453,0
     0,0,0,0,0,0,0,0,0,-377.922,-367.02,-0.0078125,-0.00787402,49.866,0
     0,0,0,0,0,0,0,0,0,-393.283,-470.135,-0.0078125,-0.00787402,49.8859,0
     0,0,0,0,0,0,0,0,0,-374.602,-458.547,-0.0078125,-0.00787402,49.9055,0
     0,0,0,0,0,0,0,0,0,-322.508,-464.457,-0.0078125,-0.00787402,49.9261,0
     0,0,0,0,0,0,0,0,0,-356.259,-504.783,-0.0078125,-0.00787402,49.9454,0
     0,0,0,0,0,0,0,0,0,-348.784,-435.967,-0.0078125,-0.00787402,49.9657,0
     0,0,0,0,0,0,0,0,0,-351.89,-485.897,-0.0078125,-0.00787402,49.9857,0
     0,0,0,0,0,0,0,0,0,-368.99,-435.958,-0.0078125,-0.00787402,50.0057,0
     0,0,0,0,0,0,0,0,0,-344.264,-481.835,-0.0078125,-0.00787402,50.0266,0
     0,0,0,0,0,0,0,0,0,-324.95,-400.128,-0.0078125,-0.00787402,50.0456,0
     0,0,0,0,0,0,0,0,0,-338.438,-472.5,-0.0078125,-0.00787402,50.0657,0
     0,0,0,0,0,0,0,0,0,-330.759,-442.938,-0.0078125,-0.00787402,50.0852,0
     0,0,0,0,0,0,0,0,0,-320.842,-476.327,-0.0078125,-0.00787402,50.1056,0
     0,0,0,0,0,0,0,0,0,-291.439,-374.82,-0.0078125,-0.00787402,50.1255,0
     0,0,0,0,0,0,0,0,0,-305.637,-457.666,-0.0078125,-0.00787402,50.1456,0
     0,0,0,0,0,0,0,0,0,-343.997,-382.907,-0.0078125,-0.00787402,50.1657,0
     0,0,0,0,0,0,0,0,0,-322.643,-464.501,-0.0078125,-0.00787402,50.1857,0
     0,0,0,0,0,0,0,0,0,-338.312,-384.504,-0.0078125,-0.00787402,50.2055,0
     0,0,0,0,0,0,0,0,0,-324.307,-449.934,-0.0078125,-0.00787402,50.2255,0
     0,0,0,0,0,0,0,0,0,-360.354,-387.289,-0.0078125,-0.00787402,50.2457,0
     0,0,0,0,0,0,0,0,0,-153.766,-323.337,-0.0078125,-0.00787402,50.2657,0
     0,0,0,0,0,0,0,0,0,-129.789,-285.968,-0.0078125,-0.00787402,50.2859,0
     0,0,0,0,0,0,0,0,0,101.612,-340.791,-0.0078125,-0.00787402,50.3058,0
     0,0,0,0,0,0,0,0,0,47.7196,-293.742,-0.0078125,-0.00787402,50.3257,0
     0,0,0,0,0,0,0,0,0,52.0542,-307.413,-0.0078125,-0.00787402,50.3459,0
     0,0,0,0,0,0,0,0,0,83.9296,-375.954,-0.0078125,-0.00787402,50.3658,0
     0,0,0,0,0,0,0,0,0,161.351,-364.651,-0.0078125,-0.00787402,50.3852,0
     0,0,0,0,0,0,0,0,0,194.469,-339.386,-0.0078125,-0.00787402,50.4053,0
     0,0,0,0,0,0,0,0,0,235.818,-386.361,-0.0078125,-0.00787402,50.4252,0
     0,0,0,0,0,0,0,0,0,267.151,-299.652,-0.0078125,-0.00787402,50.4454,0
     0,0,0,0,0,0,0,0,0,317.501,-303.688,-0.0078125,-0.00787402,50.4654,0
     0,0,0,0,0,0,0,0,0,293.66,-348.487,-0.0078125,-0.00787402,50.4854,0
     0,0,0,0,0,0,0,0,0,340.524,-374.77,-0.0078125,-0.00787402,50.5054,0
     0,0,0,0,0,0,0,0,0,374.448,-302.705,-0.0078125,-0.00787402,50.5264,0
     0,0,0,0,0,0,0,0,0,352.833,-337.365,-0.0078125,-0.00787402,50.5455,0
     0,0,0,0,0,0,0,0,0,339.092,-358.089,-0.0078125,-0.00787402,50.5656,0
     0,0,0,0,0,0,0,0,0,338.644,-374.244,-0.0078125,-0.00787402,50.5855,0
     0,0,0,0,0,0,0,0,0,391.137,-373.72,-0.0078125,-0.00787402,50.6058,0
     0,0,0,0,0,0,0,0,0,399.417,-391.014,-0.0078125,-0.00787402,50.6257,0
     0,0,0,0,0,0,0,0,0,380.344,-371.354,-0.0078125,-0.00787402,50.6464,0
     0,0,0,0,0,0,0,0,0,391.504,-430.302,-0.0078125,-0.00787402,50.6662,0
     0,0,0,0,0,0,0,0,0,386.115,-326.451,-0.0078125,-0.00787402,50.6853,0
     0,0,0,0,0,0,0,0,0,382.08,-394.05,-0.0078125,-0.00787402,50.7057,0
     0,0,0,0,0,0,0,0,0,375.326,-457.404,-0.0078125,-0.00787402,50.7268,0
     0,0,0,0,0,0,0,0,0,386.197,-399.313,-0.0078125,-0.00787402,50.7455,0
     0,0,0,0,0,0,0,0,0,409.987,-373.713,-0.0078125,-0.00787402,50.7655,0
     0,0,0,0,0,0,0,0,0,420.867,-364.133,-0.0078125,-0.00787402,50.7854,0
     0,0,0,0,0,0,0,0,0,395.71,-451.845,-0.0078125,-0.00787402,50.8059,0
     0,0,0,0,0,0,0,0,0,430.988,-406.38,-0.0078125,-0.00787402,50.8259,0
     0,0,0,0,0,0,0,0,0,406.545,-436.624,-0.0078125,-0.00787402,50.8456,0
     0,0,0,0,0,0,0,0,0,413.471,-386.436,-0.0078125,-0.00787402,50.8656,0
     0,0,0,0,0,0,0,0,0,435.474,-424.205,-0.0078125,-0.00787402,50.9082,0
     0,0,0,0,0,0,0,0,0,396.723,-383.634,-0.0078125,-0.00787402,50.9273,0
     0,0,0,0,0,0,0,0,0,413.864,-419.745,-0.0078125,-0.00787402,50.9455,0
     0,0,0,0,0,0,0,0,0,414.585,-408.347,-0.0078125,-0.00787402,50.9655,0
     0,0,0,0,0,0,0,0,0,447.848,-423.971,-0.0078125,-0.00787402,50.9858,0
     0,0,0,0,0,0,0,0,0,418.682,-433.388,-0.0078125,-0.00787402,51.0058,0
     0,0,0,0,0,0,0,0,0,427.405,-427.296,-0.0078125,-0.00787402,51.0256,0
     0,0,0,0,0,0,0,0,0,390.503,-512.86,-0.0078125,-0.00787402,51.0462,0
     0,0,0,0,0,0,0,0,0,408.856,-418.62,-0.0078125,-0.00787402,51.0659,0
     0,0,0,0,0,0,0,0,0,436.091,-356.805,-0.0078125,-0.00787402,51.0938,0
     0,0,0,0,0,0,0,0,0,407.357,-433.698,-0.0078125,-0.00787402,51.1057,0
     0,0,0,0,0,0,0,0,0,419.736,-469.803,-0.0078125,-0.00787402,51.1257,0
     0,0,0,0,0,0,0,0,0,429.314,-440.771,-0.0078125,-0.00787402,51.146,0
     0,0,0,0,0,0,0,0,0,402.633,-389.454,-0.0078125,-0.00787402,51.166,0
     0,0,0,0,0,0,0,0,0,418.822,-451.376,-0.0078125,-0.00787402,51.186,0
     0,0,0,0,0,0,0,0,0,366.851,-420.636,-0.0078125,-0.00787402,51.2053,0
     0,0,0,0,0,0,0,0,0,462.054,-384.808,-0.0078125,-0.00787402,51.227,0
     0,0,0,0,0,0,0,0,0,453.299,-396.597,-0.0078125,-0.00787402,51.2453,0
     0,0,0,0,0,0,0,0,0,488.317,-393.028,-0.0078125,-0.00787402,51.2653,0
     0,0,0,0,0,0,0,0,0,427.908,-291.52,-0.0078125,-0.00787402,51.2853,0
     0,0,0,0,0,0,0,0,0,393.616,-364.438,-0.0078125,-0.00787402,51.3054,0
     0,0,0,0,0,0,0,0,0,437.895,-464.49,-0.0078125,-0.00787402,51.3261,0
     0,0,0,0,0,0,0,0,0,445.147,-393.244,-0.0078125,-0.00787402,51.3454,0
     0,0,0,0,0,0,0,0,0,410.56,-441.112,-0.0078125,-0.00787402,51.3655,0
     0,0,0,0,0,0,0,0,0,413.702,-422.306,-0.0078125,-0.00787402,51.3855,0
     0,0,0,0,0,0,0,0,0,408.714,-448.823,-0.0078125,-0.00787402,51.4055,0
     0,0,0,0,0,0,0,0,0,427.698,-382.614,-0.0078125,-0.00787402,51.4284,0
     0,0,0,0,0,0,0,0,0,403.828,-435.502,-0.0078125,-0.00787402,51.4486,0
     0,0,0,0,0,0,0,0,0,407.232,-410.61,-0.0078125,-0.00787402,51.466,0
     0,0,0,0,0,0,0,0,0,385.855,-430.979,-0.0078125,-0.00787402,51.4893,0
     0,0,0,0,0,0,0,0,0,364.704,-504.757,-0.0078125,-0.00787402,51.5282,0
     0,0,0,0,0,0,0,0,0,372.516,-460.299,-0.0078125,-0.00787402,51.5311,0
     0,0,0,0,0,0,0,0,0,449.519,-418.209,-0.0078125,-0.00787402,51.5547,0
     0,0,0,0,0,0,0,0,0,432.666,-425.967,-0.0078125,-0.00787402,51.5659,0
     0,0,0,0,0,0,0,0,0,418.017,-408.43,-0.0078125,-0.00787402,51.5861,0
     0,0,0,0,0,0,0,0,0,431.527,-445.206,-0.0078125,-0.00787402,51.606,0
     0,0,0,0,0,0,0,0,0,414.122,-412.848,-0.0078125,-0.00787402,51.6262,0
     0,0,0,0,0,0,0,0,0,423.926,-472.266,-0.0078125,-0.00787402,51.6449,0
     0,0,0,0,0,0,0,0,0,455.218,-419.877,-0.0078125,-0.00787402,51.6655,0
     0,0,0,0,0,0,0,0,0,419.41,-459.084,-0.0078125,-0.00787402,51.6855,0
     0,0,0,0,0,0,0,0,0,433.689,-424.142,-0.0078125,-0.00787402,51.7056,0
     0,0,0,0,0,0,0,0,0,434.83,-493.109,-0.0078125,-0.00787402,51.7262,0
     0,0,0,0,0,0,0,0,0,432.854,-466.657,-0.0078125,-0.00787402,51.746,0
     0,0,0,0,0,0,0,0,0,399.592,-442.517,-0.0078125,-0.00787402,51.7658,0
     0,0,0,0,0,0,0,0,0,431.072,-413.437,-0.0078125,-0.00787402,51.7869,0
     0,0,0,0,0,0,0,0,0,411.1,-399.385,-0.0078125,-0.00787402,51.8196,0
     0,0,0,0,0,0,0,0,0,446.249,-401.115,-0.0078125,-0.00787402,51.8254,0
     0,0,0,0,0,0,0,0,0,395.171,-401.035,-0.0078125,-0.00787402,51.8588,0
     0,0,0,0,0,0,0,0,0,403.161,-403.445,-0.0078125,-0.00787402,51.8663,0
     0,0,0,0,0,0,0,0,0,431.397,-287.811,-0.0078125,-0.00787402,51.8858,0
     0,0,0,0,0,0,0,0,0,434.887,-421.647,-0.0078125,-0.00787402,51.9053,0
     0,0,0,0,0,0,0,0,0,444.05,-454.545,-0.0078125,-0.00787402,51.9251,0
     0,0,0,0,0,0,0,0,0,427.698,-390.625,-0.0078125,-0.00787402,51.9454,0
     0,0,0,0,0,0,0,0,0,425.414,-422.137,-0.0078125,-0.00787402,51.9654,0
     0,0,0,0,0,0,0,0,0,421.106,-400.898,-0.0078125,-0.00787402,51.9854,0
     0,0,0,0,0,0,0,0,0,380.858,-445.712,-0.0078125,-0.00787402,52.018,0
     0,0,0,0,0,0,0,0,0,415.515,-452.12,-0.0078125,-0.00787402,52.0368,0
     0,0,0,0,0,0,0,0,0,396.66,-438.404,-0.0078125,-0.00787402,52.0456,0
     0,0,0,0,0,0,0,0,0,434.452,-412.499,-0.0078125,-0.00787402,52.0658,0
     0,0,0,0,0,0,0,0,0,406.43,-458.453,-0.0078125,-0.00787402,52.0861,0
     0,0,0,0,0,0,0,0,0,394.485,-422.654,-0.0078125,-0.00787402,52.1059,0
     0,0,0,0,0,0,0,0,0,423.63,-461.649,-0.0078125,-0.00787402,52.1262,0
     0,0,0,0,0,0,0,0,0,449.398,-415.533,-0.0078125,-0.00787402,52.146,0
     0,0,0,0,0,0,0,0,0,438.606,-415.188,-0.0078125,-0.00787402,52.1662,0
     0,0,0,0,0,0,0,0,0,435.512,-430.117,-0.0078125,-0.00787402,52.186,0
     0,0,0,0,0,0,0,0,0,405.154,-373.72,-0.0078125,-0.00787402,52.2054,0
     0,0,0,0,0,0,0,0,0,449.559,-395.109,-0.0078125,-0.00787402,52.2257,0
     0,0,0,0,0,0,0,0,0,396.621,-400.641,-0.0078125,-0.00787402,52.2463,0
     0,0,0,0,0,0,0,0,0,352.504,-445.712,-0.0078125,-0.00787402,52.2657,0
     0,0,0,0,0,0,0,0,0,-70.9663,-520.007,-0.0078125,-0.00787402,52.2851,0
     0,0,0,0,0,0,0,0,0,-170.256,-428.229,-0.0078125,-0.00787402,52.3055,0
     0,0,0,0,0,0,0,0,0,-124.644,-490.641,-0.0078125,-0.00787402,52.3263,0
     0,0,0,0,0,0,0,0,0,-130.954,-425.45,-0.0078125,-0.00787402,52.3454,0
     0,0,0,0,0,0,0,0,0,-138.179,-394.836,-0.0078125,-0.00787402,52.3877,0
     0,0,0,0,0,0,0,0,0,-138.882,-378.723,-0.0078125,-0.00787402,52.4061,0
     0,0,0,0,0,0,0,0,0,-117.195,-346.147,-0.0078125,-0.00787402,52.4262,0
     0,0,0,0,0,0,0,0,0,-152.553,-444.405,-0.0078125,-0.00787402,52.4451,0
     0,0,0,0,0,0,0,0,0,-119.244,-382.409,-0.0078125,-0.00787402,52.4653,0
     0,0,0,0,0,0,0,0,0,-149.149,-318.684,-0.0078125,-0.00787402,52.4851,0
     0,0,0,0,0,0,0,0,0,-131.469,-236.328,-0.0078125,-0.00787402,52.5054,0
     0,0,0,0,0,0,0,0,0,-172.88,-372.135,-0.0078125,-0.00787402,52.5254,0
     0,0,0,0,0,0,0,0,0,-164.177,-367.067,-0.0078125,-0.00787402,52.5457,0
     0,0,0,0,0,0,0,0,0,-186.195,-478.377,-0.0078125,-0.00787402,52.5653,0
     0,0,0,0,0,0,0,0,0,-172.68,-389.902,-0.0078125,-0.00787402,52.5864,0
     0,0,0,0,0,0,0,0,0,-189.518,-436.367,-0.0078125,-0.00787402,52.6095,0
     0,0,0,0,0,0,0,0,0,-220.602,-367.309,-0.0078125,-0.00787402,52.6259,0
     0,0,0,0,0,0,0,0,0,-206.037,-419.472,-0.0078125,-0.00787402,52.6464,0
     0,0,0,0,0,0,0,0,0,-233.623,-378.15,-0.0078125,-0.00787402,52.6726,0
     0,0,0,0,0,0,0,0,0,-260.423,-444.119,-0.0078125,-0.00787402,52.6856,0
     0,0,0,0,0,0,0,0,0,-235.593,-378.022,-0.0078125,-0.00787402,52.7055,0
     0,0,0,0,0,0,0,0,0,-236.401,-442.419,-0.0078125,-0.00787402,52.7261,0
     0,0,0,0,0,0,0,0,0,-236.745,-378.494,-0.0078125,-0.00787402,52.746,0
     0,0,0,0,0,0,0,0,0,-286.402,-447.968,-0.0078125,-0.00787402,52.7651,0
     0,0,0,0,0,0,0,0,0,-262.933,-410.543,-0.0078125,-0.00787402,52.7858,0
     0,0,0,0,0,0,0,0,0,-263.026,-425.804,-0.0078125,-0.00787402,52.8054,0
     0,0,0,0,0,0,0,0,0,-290.71,-489.38,-0.0078125,-0.00787402,52.8407,0
     0,0,0,0,0,0,0,0,0,-265.189,-356.094,-0.0078125,-0.00787402,52.8563,0
     0,0,0,0,0,0,0,0,0,-274.918,-373.106,-0.0078125,-0.00787402,52.8656,0
     0,0,0,0,0,0,0,0,0,-261.564,-439.184,-0.0078125,-0.00787402,52.8864,0
     0,0,0,0,0,0,0,0,0,-280.006,-411.26,-0.0078125,-0.00787402,52.9225,0
     0,0,0,0,0,0,0,0,0,-267.576,-431.462,-0.0078125,-0.00787402,52.9268,0
     0,0,0,0,0,0,0,0,0,-282.49,-448.219,-0.0078125,-0.00787402,52.9504,0
     0,0,0,0,0,0,0,0,0,-277.909,-474.226,-0.0078125,-0.00787402,52.9662,0
     0,0,0,0,0,0,0,0,0,-282.31,-401.204,-0.0078125,-0.00787402,52.9854,0
     0,0,0,0,0,0,0,0,0,-283.266,-414.74,-0.0078125,-0.00787402,53.0056,0
     0,0,0,0,0,0,0,0,0,-337.547,-450.989,-0.0078125,-0.00787402,53.0254,0
     0,0,0,0,0,0,0,0,0,-324.818,-454.835,-0.0078125,-0.00787402,53.0463,0
     0,0,0,0,0,0,0,0,0,-320.729,-424.133,-0.0078125,-0.00787402,53.0656,0
     0,0,0,0,0,0,0,0,0,-303.412,-487.508,-0.0078125,-0.00787402,53.0882,0
     0,0,0,0,0,0,0,0,0,-301.532,-420.805,-0.0078125,-0.00787402,53.1149,0
     0,0,0,0,0,0,0,0,0,-339.006,-482.614,-0.0078125,-0.00787402,53.1276,0
     0,0,0,0,0,0,0,0,0,-323.913,-360.601,-0.0078125,-0.00787402,53.1602,0
     0,0,0,0,0,0,0,0,0,-358.295,-446.12,-0.0078125,-0.00787402,53.1666,0
     0,0,0,0,0,0,0,0,0,-406.199,-461.34,-0.0078125,-0.00787402,53.1852,0
     0,0,0,0,0,0,0,0,0,-365.33,-407.282,-0.0078125,-0.00787402,53.2061,0
     0,0,0,0,0,0,0,0,0,-400.36,-474.26,-0.0078125,-0.00787402,53.2263,0
     0,0,0,0,0,0,0,0,0,-430.052,-403.779,-0.0078125,-0.00787402,53.2461,0
     0,0,0,0,0,0,0,0,0,-390.976,-491.509,-0.0078125,-0.00787402,53.2654,0
     0,0,0,0,0,0,0,0,0,-453.073,-404.384,-0.0078125,-0.00787402,53.2866,0
     0,0,0,0,0,0,0,0,0,-458.337,-434.32,-0.0078125,-0.00787402,53.3063,0
     0,0,0,0,0,0,0,0,0,-424.655,-415.723,-0.0078125,-0.00787402,53.3258,0
     0,0,0,0,0,0,0,0,0,-399.138,-446,-0.0078125,-0.00787402,53.346,0
     0,0,0,0,0,0,0,0,0,-366.046,-411.862,-0.0078125,-0.00787402,53.3665,0
     0,0,0,0,0,0,0,0,0,-355.904,-431.472,-0.0078125,-0.00787402,53.3866,0
     0,0,0,0,0,0,0,0,0,-369.597,-454.277,-0.0078125,-0.00787402,53.4063,0
     0,0,0,0,0,0,0,0,0,-335.785,-407.897,-0.0078125,-0.00787402,53.4255,0
     0,0,0,0,0,0,0,0,0,-353.263,-389.211,-0.0078125,-0.00787402,53.4457,0
     0,0,0,0,0,0,0,0,0,-332.829,-396.951,-0.0078125,-0.00787402,53.4664,0
     0,0,0,0,0,0,0,0,0,-410.585,-446.508,-0.0078125,-0.00787402,53.4851,0
     0,0,0,0,0,0,0,0,0,-357.277,-487.151,-0.0078125,-0.00787402,53.5053,0
     0,0,0,0,0,0,0,0,0,-253.543,-388.033,-0.0078125,-0.00787402,53.5258,0
     0,0,0,0,0,0,0,0,0,-283.994,-459.422,-0.0078125,-0.00787402,53.5455,0
     0,0,0,0,0,0,0,0,0,-304.002,-407.125,-0.0078125,-0.00787402,53.5656,0
     0,0,0,0,0,0,0,0,0,-255.84,-460.225,-0.0078125,-0.00787402,53.586,0
     0,0,0,0,0,0,0,0,0,-278.668,-373.727,-0.0078125,-0.00787402,53.6051,0
     0,0,0,0,0,0,0,0,0,-271.44,-426.103,-0.0078125,-0.00787402,53.6264,0
     0,0,0,0,0,0,0,0,0,-277.266,-459.738,-0.0078125,-0.00787402,53.6466,0
     0,0,0,0,0,0,0,0,0,-272.502,-415.947,-0.0078125,-0.00787402,53.665,0
     0,0,0,0,0,0,0,0,0,-272.005,-513.334,-0.0078125,-0.00787402,53.6857,0
     0,0,0,0,0,0,0,0,0,-264.257,-456.017,-0.0078125,-0.00787402,53.7052,0
     0,0,0,0,0,0,0,0,0,-302.32,-499.102,-0.0078125,-0.00787402,53.7256,0
     0,0,0,0,0,0,0,0,0,-278.218,-386.9,-0.0078125,-0.00787402,53.7451,0
     0,0,0,0,0,0,0,0,0,-275.653,-460.766,-0.0078125,-0.00787402,53.7654,0
     0,0,0,0,0,0,0,0,0,-302.028,-616.637,-0.0078125,-0.00787402,53.7856,0
     0,0,0,0,0,0,0,0,0,-114.03,-407.49,-0.0078125,-0.00787402,53.8056,0
     0,0,0,0,0,0,0,0,0,-97.4241,-404.147,-0.0078125,-0.00787402,53.8257,0
     0,0,0,0,0,0,0,0,0,124.967,-313.755,-0.0078125,-0.00787402,53.846,0
     0,0,0,0,0,0,0,0,0,67.0396,-425.107,-0.0078125,-0.00787402,53.8658,0
     0,0,0,0,0,0,0,0,0,41.429,-414.662,-0.0078125,-0.00787402,53.8866,0
     0,0,0,0,0,0,0,0,0,93.155,-420.76,-0.0078125,-0.00787402,53.906,0
     0,0,0,0,0,0,0,0,0,184.942,-405.548,-0.0078125,-0.00787402,53.9262,0
     0,0,0,0,0,0,0,0,0,223.506,-398.414,-0.0078125,-0.00787402,53.945,0
     0,0,0,0,0,0,0,0,0,233.16,-344.228,-0.0078125,-0.00787402,53.9653,0
     0,0,0,0,0,0,0,0,0,285.882,-334.403,-0.0078125,-0.00787402,53.9873,0
     0,0,0,0,0,0,0,0,0,310.487,-335.734,-0.0078125,-0.00787402,54.0056,0
     0,0,0,0,0,0,0,0,0,316.051,-379.853,-0.0078125,-0.00787402,54.0257,0
     0,0,0,0,0,0,0,0,0,353.332,-359.693,-0.0078125,-0.00787402,54.0457,0
     0,0,0,0,0,0,0,0,0,356.875,-324.107,-0.0078125,-0.00787402,54.0657,0
     0,0,0,0,0,0,0,0,0,383.369,-332.143,-0.0078125,-0.00787402,54.0861,0
     0,0,0,0,0,0,0,0,0,345.161,-357.417,-0.0078125,-0.00787402,54.1058,0
     0,0,0,0,0,0,0,0,0,398.724,-386.361,-0.0078125,-0.00787402,54.1256,0
     0,0,0,0,0,0,0,0,0,365.905,-421.008,-0.0078125,-0.00787402,54.1459,0
     0,0,0,0,0,0,0,0,0,368.63,-368.175,-0.0078125,-0.00787402,54.1659,0
     0,0,0,0,0,0,0,0,0,388.901,-426.739,-0.0078125,-0.00787402,54.186,0
     0,0,0,0,0,0,0,0,0,376.187,-396.032,-0.0078125,-0.00787402,54.206,0
     0,0,0,0,0,0,0,0,0,401.792,-398.406,-0.0078125,-0.00787402,54.2257,0
     0,0,0,0,0,0,0,0,0,399.521,-401.027,-0.0078125,-0.00787402,54.2461,0
     0,0,0,0,0,0,0,0,0,384.593,-395.405,-0.0078125,-0.00787402,54.2661,0
     0,0,0,0,0,0,0,0,0,392.611,-397.133,-0.0078125,-0.00787402,54.2851,0
     0,0,0,0,0,0,0,0,0,385.743,-408.639,-0.0078125,-0.00787402,54.3051,0
     0,0,0,0,0,0,0,0,0,366.206,-395.577,-0.0078125,-0.00787402,54.325,0
     0,0,0,0,0,0,0,0,0,361.821,-418.086,-0.0078125,-0.00787402,54.3451,0
     0,0,0,0,0,0,0,0,0,359.881,-369.228,-0.0078125,-0.00787402,54.3653,0
     0,0,0,0,0,0,0,0,0,378.537,-428.697,-0.0078125,-0.00787402,54.3863,0
     0,0,0,0,0,0,0,0,0,390.648,-295.652,-0.0078125,-0.00787402,54.4076,0
     0,0,0,0,0,0,0,0,0,335.734,-333.996,-0.0078125,-0.00787402,54.4256,0
     0,0,0,0,0,0,0,0,0,416.502,-455.249,-0.0078125,-0.00787402,54.4459,0
     0,0,0,0,0,0,0,0,0,393.794,-403.104,-0.0078125,-0.00787402,54.4651,0
     0,0,0,0,0,0,0,0,0,396.495,-414.68,-0.0078125,-0.00787402,54.4854,0
     0,0,0,0,0,0,0,0,0,412.201,-414.654,-0.0078125,-0.00787402,54.5054,0
     0,0,0,0,0,0,0,0,0,421.097,-445.157,-0.0078125,-0.00787402,54.53,0
     0,0,0,0,0,0,0,0,0,425.84,-408.672,-0.0078125,-0.00787402,54.5478,0
     0,0,0,0,0,0,0,0,0,390.785,-406.174,-0.0078125,-0.00787402,54.5686,0
     0,0,0,0,0,0,0,0,0,408.322,-376.903,-0.0078125,-0.00787402,54.5853,0
     0,0,0,0,0,0,0,0,0,443.862,-461.819,-0.0078125,-0.00787402,54.6056,0
     0,0,0,0,0,0,0,0,0,418.901,-445.414,-0.0078125,-0.00787402,54.6258,0
     0,0,0,0,0,0,0,0,0,435.559,-336.055,-0.0078125,-0.00787402,54.6487,0
     0,0,0,0,0,0,0,0,0,416.545,-430.024,-0.0078125,-0.00787402,54.6839,0
     0,0,0,0,0,0,0,0,0,422.717,-423.057,-0.0078125,-0.00787402,54.6871,0
     0,0,0,0,0,0,0,0,0,408.614,-410.619,-0.0078125,-0.00787402,54.7054,0
     0,0,0,0,0,0,0,0,0,393.314,-405.918,-0.0078125,-0.00787402,54.7255,0
     0,0,0,0,0,0,0,0,0,411.472,-402.342,-0.0078125,-0.00787402,54.7457,0
     0,0,0,0,0,0,0,0,0,403.625,-493.389,-0.0078125,-0.00787402,54.7658,0
     0,0,0,0,0,0,0,0,0,429.655,-418.673,-0.0078125,-0.00787402,54.7853,0
     0,0,0,0,0,0,0,0,0,428.302,-436.272,-0.0078125,-0.00787402,54.8078,0
     0,0,0,0,0,0,0,0,0,400.416,-398.129,-0.0078125,-0.00787402,54.8254,0
     0,0,0,0,0,0,0,0,0,406.314,-513.637,-0.0078125,-0.00787402,54.8461,0
     0,0,0,0,0,0,0,0,0,410.181,-450.887,-0.0078125,-0.00787402,54.8657,0
     0,0,0,0,0,0,0,0,0,408.538,-428.495,-0.0078125,-0.00787402,54.8864,0
     0,0,0,0,0,0,0,0,0,409.777,-400.032,-0.0078125,-0.00787402,54.9058,0
     0,0,0,0,0,0,0,0,0,404.506,-475.093,-0.0078125,-0.00787402,54.9257,0
     0,0,0,0,0,0,0,0,0,414.697,-426.158,-0.0078125,-0.00787402,54.9457,0
     0,0,0,0,0,0,0,0,0,390.191,-427.634,-0.0078125,-0.00787402,54.9663,0
     0,0,0,0,0,0,0,0,0,422.431,-425.062,-0.0078125,-0.00787402,54.9854,0
     0,0,0,0,0,0,0,0,0,416.945,-371.975,-0.0078125,-0.00787402,55.0057,0
     0,0,0,0,0,0,0,0,0,434.575,-451.284,-0.0078125,-0.00787402,55.0257,0
     0,0,0,0,0,0,0,0,0,352.746,-462.129,-0.0078125,-0.00787402,55.0456,0
     0,0,0,0,0,0,0,0,0,436.891,-380.445,-0.0078125,-0.00787402,55.0658,0
     0,0,0,0,0,0,0,0,0,388.84,-401.84,-0.0078125,-0.00787402,55.0901,0
     0,0,0,0,0,0,0,0,0,428.156,-355.303,-0.0078125,-0.00787402,55.1053,0
     0,0,0,0,0,0,0,0,0,392.503,-444.741,-0.0078125,-0.00787402,55.1258,0
     0,0,0,0,0,0,0,0,0,417.397,-391.389,-0.0078125,-0.00787402,55.1464,0
     0,0,0,0,0,0,0,0,0,433.736,-460.554,-0.0078125,-0.00787402,55.1651,0
     0,0,0,0,0,0,0,0,0,465.062,-356.144,-0.0078125,-0.00787402,55.1851,0
     0,0,0,0,0,0,0,0,0,404.645,-449.913,-0.0078125,-0.00787402,55.2083,0
     0,0,0,0,0,0,0,0,0,411.743,-391.665,-0.0078125,-0.00787402,55.2287,0
     0,0,0,0,0,0,0,0,0,393.716,-503.297,-0.0078125,-0.00787402,55.2455,0
     0,0,0,0,0,0,0,0,0,427.241,-426.476,-0.0078125,-0.00787402,55.2657,0
     0,0,0,0,0,0,0,0,0,408.522,-399.984,-0.0078125,-0.00787402,55.286,0
     0,0,0,0,0,0,0,0,0,353.451,-351.025,-0.0078125,-0.00787402,55.3057,0
     0,0,0,0,0,0,0,0,0,379.708,-486.571,-0.0078125,-0.00787402,55.3251,0
     0,0,0,0,0,0,0,0,0,390.252,-363.346,-0.0078125,-0.00787402,55.3453,0
     0,0,0,0,0,0,0,0,0,338.943,-377.287,-0.0078125,-0.00787402,55.3655,0
     0,0,0,0,0,0,0,0,0,387.642,-454.876,-0.0078125,-0.00787402,55.3856,0
     0,0,0,0,0,0,0,0,0,352.864,-387.297,-0.0078125,-0.00787402,55.4064,0
     0,0,0,0,0,0,0,0,0,411.896,-452.888,-0.0078125,-0.00787402,55.426,0
     0,0,0,0,0,0,0,0,0,372.495,-389.378,-0.0078125,-0.00787402,55.4457,0
     0,0,0,0,0,0,0,0,0,346.675,-469.329,-0.0078125,-0.00787402,55.4663,0
     0,0,0,0,0,0,0,0,0,401.534,-384.312,-0.0078125,-0.00787402,55.4853,0
     0,0,0,0,0,0,0,0,0,400.328,-435.958,-0.0078125,-0.00787402,55.5053,0
     0,0,0,0,0,0,0,0,0,387.852,-360.153,-0.0078125,-0.00787402,55.5255,0
     0,0,0,0,0,0,0,0,0,387.755,-439.618,-0.0078125,-0.00787402,55.5455,0
     0,0,0,0,0,0,0,0,0,457.771,-394.197,-0.0078125,-0.00787402,55.566,0
     0,0,0,0,0,0,0,0,0,389.932,-385.847,-0.0078125,-0.00787402,55.6056,0
     0,0,0,0,0,0,0,0,0,421.319,-393.476,-0.0078125,-0.00787402,55.6086,0
     0,0,0,0,0,0,0,0,0,403.73,-452.1,-0.0078125,-0.00787402,55.6261,0
     0,0,0,0,0,0,0,0,0,398.065,-354.158,-0.0078125,-0.00787402,55.6453,0
     0,0,0,0,0,0,0,0,0,380.243,-420.248,-0.0078125,-0.00787402,55.6656,0
     0,0,0,0,0,0,0,0,0,430.404,-490.34,-0.0078125,-0.00787402,55.6856,0
     0,0,0,0,0,0,0,0,0,413.411,-413.249,-0.0078125,-0.00787402,55.7174,0
     0,0,0,0,0,0,0,0,0,394.47,-446.449,-0.0078125,-0.00787402,55.7258,0
     0,0,0,0,0,0,0,0,0,456.277,-451.162,-0.0078125,-0.00787402,55.7684,0
     0,0,0,0,0,0,0,0,0,443.902,-444.781,-0.0078125,-0.00787402,55.7879,0
     0,0,0,0,0,0,0,0,0,408.38,-452.909,-0.0078125,-0.00787402,55.8063,0
     0,0,0,0,0,0,0,0,0,-27.6748,-547.48,-0.0078125,-0.00787402,55.8263,0
     0,0,0,0,0,0,0,0,0,-146.816,-401.075,-0.0078125,-0.00787402,55.8454,0
     0,0,0,0,0,0,0,0,0,-152.666,-496.857,-0.0078125,-0.00787402,55.8655,0
     0,0,0,0,0,0,0,0,0,-169.305,-463.027,-0.0078125,-0.00787402,55.8862,0
     0,0,0,0,0,0,0,0,0,-175.988,-451.549,-0.0078125,-0.00787402,55.9057,0
     0,0,0,0,0,0,0,0,0,-182.668,-450.694,-0.0078125,-0.00787402,55.9257,0
     0,0,0,0,0,0,0,0,0,-200.959,-495.712,-0.0078125,-0.00787402,55.9457,0
     0,0,0,0,0,0,0,0,0,-192.795,-455.311,-0.0078125,-0.00787402,55.9662,0
     0,0,0,0,0,0,0,0,0,-204.275,-527.635,-0.0078125,-0.00787402,55.9861,0
     0,0,0,0,0,0,0,0,0,-199.31,-465.192,-0.0078125,-0.00787402,56.0053,0
     0,0,0,0,0,0,0,0,0,-187.012,-513.703,-0.0078125,-0.00787402,56.025,0
     0,0,0,0,0,0,0,0,0,-208.203,-456.017,-0.0078125,-0.00787402,56.0469,0
     0,0,0,0,0,0,0,0,0,-212.355,-436.7,-0.0078125,-0.00787402,56.0651,0
     0,0,0,0,0,0,0,0,0,-210.281,-496.537,-0.0078125,-0.00787402,56.086,0
     0,0,0,0,0,0,0,0,0,-209.393,-423.971,-0.0078125,-0.00787402,56.1067,0
     0,0,0,0,0,0,0,0,0,-216.861,-418.927,-0.0078125,-0.00787402,56.1504,0
     0,0,0,0,0,0,0,0,0,-254.79,-485.991,-0.0078125,-0.00787402,56.1654,0
     0,0,0,0,0,0,0,0,0,-250.759,-406.719,-0.0078125,-0.00787402,56.1852,0
     0,0,0,0,0,0,0,0,0,-269.346,-353.501,-0.0078125,-0.00787402,56.2273,0
     0,0,0,0,0,0,0,0,0,-265.171,-364.511,-0.0078125,-0.00787402,56.2303,0
     0,0,0,0,0,0,0,0,0,-308.019,-411.311,-0.0078125,-0.00787402,56.2453,0
     0,0,0,0,0,0,0,0,0,-299.625,-441.228,-0.0078125,-0.00787402,56.2657,0
     0,0,0,0,0,0,0,0,0,-296.776,-378.444,-0.0078125,-0.00787402,56.2857,0
     0,0,0,0,0,0,0,0,0,-317.647,-368.99,-0.0078125,-0.00787402,56.3057,0
     0,0,0,0,0,0,0,0,0,-297.385,-442.978,-0.0078125,-0.00787402,56.3258,0
     0,0,0,0,0,0,0,0,0,-325.383,-455.104,-0.0078125,-0.00787402,56.3458,0
     0,0,0,0,0,0,0,0,0,-350.594,-429.129,-0.0078125,-0.00787402,56.3654,0
     0,0,0,0,0,0,0,0,0,-351.315,-478.08,-0.0078125,-0.00787402,56.3856,0
     0,0,0,0,0,0,0,0,0,-400.432,-471.999,-0.0078125,-0.00787402,56.4107,0
     0,0,0,0,0,0,0,0,0,-347.307,-465.214,-0.0078125,-0.00787402,56.4269,0
     0,0,0,0,0,0,0,0,0,-373.979,-419.375,-0.0078125,-0.00787402,56.446,0
     0,0,0,0,0,0,0,0,0,-379.997,-389.727,-0.0078125,-0.00787402,56.4652,0
     0,0,0,0,0,0,0,0,0,-357.558,-452.642,-0.0078125,-0.00787402,56.485,0
     0,0,0,0,0,0,0,0,0,-370.837,-419.851,-0.0078125,-0.00787402,56.5053,0
     0,0,0,0,0,0,0,0,0,-367.891,-545.286,-0.0078125,-0.00787402,56.5253,0
     0,0,0,0,0,0,0,0,0,-351.42,-478.973,-0.0078125,-0.00787402,56.5456,0
     0,0,0,0,0,0,0,0,0,-328.106,-455.456,-0.0078125,-0.00787402,56.5654,0
     0,0,0,0,0,0,0,0,0,-343.189,-454.711,-0.0078125,-0.00787402,56.5856,0
     0,0,0,0,0,0,0,0,0,-293.066,-530.209,-0.0078125,-0.00787402,56.6088,0
     0,0,0,0,0,0,0,0,0,-308.166,-496.944,-0.0078125,-0.00787402,56.6483,0
     0,0,0,0,0,0,0,0,0,-283.805,-507.64,-0.0078125,-0.00787402,56.6513,0
     0,0,0,0,0,0,0,0,0,-238.121,-587.492,-0.0078125,-0.00787402,56.6657,0
     0,0,0,0,0,0,0,0,0,-294.85,-461.872,-0.0078125,-0.00787402,56.686,0
     0,0,0,0,0,0,0,0,0,-266.937,-464.306,-0.0078125,-0.00787402,56.7139,0
     0,0,0,0,0,0,0,0,0,-309.737,-441.969,-0.0078125,-0.00787402,56.7366,0
     0,0,0,0,0,0,0,0,0,-317.561,-451.091,-0.0078125,-0.00787402,56.7591,0
     0,0,0,0,0,0,0,0,0,-266.88,-448.139,-0.0078125,-0.00787402,56.7655,0
     0,0,0,0,0,0,0,0,0,-288.809,-290.854,-0.0078125,-0.00787402,56.7858,0
     0,0,0,0,0,0,0,0,0,-304.692,-453.762,-0.0078125,-0.00787402,56.8059,0
     0,0,0,0,0,0,0,0,0,-295.382,-513.163,-0.0078125,-0.00787402,56.8258,0
     0,0,0,0,0,0,0,0,0,-317.465,-454.638,-0.0078125,-0.00787402,56.8459,0
     0,0,0,0,0,0,0,0,0,-320.072,-411.015,-0.0078125,-0.00787402,56.866,0
     0,0,0,0,0,0,0,0,0,-333.561,-438.76,-0.0078125,-0.00787402,56.8867,0
     0,0,0,0,0,0,0,0,0,-325.781,-411.896,-0.0078125,-0.00787402,56.9102,0
     0,0,0,0,0,0,0,0,0,-288.725,-489.021,-0.0078125,-0.00787402,56.9358,0
     0,0,0,0,0,0,0,0,0,-375.34,-348.87,-0.0078125,-0.00787402,56.9462,0
     0,0,0,0,0,0,0,0,0,-292.535,-464.005,-0.0078125,-0.00787402,56.9655,0
     0,0,0,0,0,0,0,0,0,-304.025,-419.032,-0.0078125,-0.00787402,56.9855,0
     0,0,0,0,0,0,0,0,0,-347.856,-559.566,-0.0078125,-0.00787402,57.0053,0
     0,0,0,0,0,0,0,0,0,-296.864,-431.183,-0.0078125,-0.00787402,57.0257,0
     0,0,0,0,0,0,0,0,0,-277.331,-447.457,-0.0078125,-0.00787402,57.0455,0
     0,0,0,0,0,0,0,0,0,-318.735,-425.677,-0.0078125,-0.00787402,57.0658,0
     0,0,0,0,0,0,0,0,0,-348.614,-395.319,-0.0078125,-0.00787402,57.0862,0
     0,0,0,0,0,0,0,0,0,-298.24,-433.351,-0.0078125,-0.00787402,57.106,0
     0,0,0,0,0,0,0,0,0,-322.773,-419.393,-0.0078125,-0.00787402,57.1259,0
     0,0,0,0,0,0,0,0,0,-353.089,-427.414,-0.0078125,-0.00787402,57.1452,0
     0,0,0,0,0,0,0,0,0,-387.604,-465.864,-0.0078125,-0.00787402,57.1653,0
     0,0,0,0,0,0,0,0,0,-333.578,-409.157,-0.0078125,-0.00787402,57.1854,0
     0,0,0,0,0,0,0,0,0,-349.54,-463.929,-0.0078125,-0.00787402,57.2053,0
     0,0,0,0,0,0,0,0,0,-336.231,-465.766,-0.0078125,-0.00787402,57.2264,0
     0,0,0,0,0,0,0,0,0,-334.37,-478.206,-0.0078125,-0.00787402,57.2456,0
     0,0,0,0,0,0,0,0,0,-335.723,-440.102,-0.0078125,-0.00787402,57.2658,0
     0,0,0,0,0,0,0,0,0,-320.482,-439.647,-0.0078125,-0.00787402,57.2859,0
     0,0,0,0,0,0,0,0,0,-329.614,-382.673,-0.0078125,-0.00787402,57.3059,0
     0,0,0,0,0,0,0,0,0,-351.481,-452.376,-0.0078125,-0.00787402,57.3262,0
     0,0,0,0,0,0,0,0,0,-195.276,-358.764,-0.0078125,-0.00787402,57.3461,0
     0,0,0,0,0,0,0,0,0,-139.283,-257.699,-0.0078125,-0.00787402,57.366,0
     0,0,0,0,0,0,0,0,0,13.0014,-392.257,-0.0078125,-0.00787402,57.3862,0
     0,0,0,0,0,0,0,0,0,115.825,-417.58,-0.0078125,-0.00787402,57.4061,0
     0,0,0,0,0,0,0,0,0,87.0606,-366.636,-0.0078125,-0.00787402,57.4261,0
     0,0,0,0,0,0,0,0,0,123.202,-434.301,-0.0078125,-0.00787402,57.4464,0
     0,0,0,0,0,0,0,0,0,191.428,-299.864,-0.0078125,-0.00787402,57.4654,0
     0,0,0,0,0,0,0,0,0,201.175,-398.391,-0.0078125,-0.00787402,57.4854,0
     0,0,0,0,0,0,0,0,0,244.741,-333.156,-0.0078125,-0.00787402,57.5055,0
     0,0,0,0,0,0,0,0,0,255.715,-355.492,-0.0078125,-0.00787402,57.5259,0
     0,0,0,0,0,0,0,0,0,268.911,-370.22,-0.0078125,-0.00787402,57.5456,0
     0,0,0,0,0,0,0,0,0,315.816,-351.321,-0.0078125,-0.00787402,57.5658,0
     0,0,0,0,0,0,0,0,0,348.784,-392.85,-0.0078125,-0.00787402,57.5858,0
     0,0,0,0,0,0,0,0,0,325.855,-326.568,-0.0078125,-0.00787402,57.6059,0
     0,0,0,0,0,0,0,0,0,398.541,-447.457,-0.0078125,-0.00787402,57.6283,0
     0,0,0,0,0,0,0,0,0,389.689,-385.015,-0.0078125,-0.00787402,57.6462,0
     0,0,0,0,0,0,0,0,0,378.594,-387.935,-0.0078125,-0.00787402,57.6654,0
     0,0,0,0,0,0,0,0,0,397.03,-358.404,-0.0078125,-0.00787402,57.6858,0
     0,0,0,0,0,0,0,0,0,467.738,-377.85,-0.0078125,-0.00787402,57.7132,0
     0,0,0,0,0,0,0,0,0,398.812,-370.062,-0.0078125,-0.00787402,57.7257,0
     0,0,0,0,0,0,0,0,0,457.938,-422.77,-0.0078125,-0.00787402,57.746,0
     0,0,0,0,0,0,0,0,0,404.22,-449.418,-0.0078125,-0.00787402,57.7651,0
     0,0,0,0,0,0,0,0,0,413.42,-420,-0.0078125,-0.00787402,57.7856,0
     0,0,0,0,0,0,0,0,0,405.507,-482.94,-0.0078125,-0.00787402,57.8057,0
     0,0,0,0,0,0,0,0,0,392.072,-386.242,-0.0078125,-0.00787402,57.8258,0
     0,0,0,0,0,0,0,0,0,417.519,-455.82,-0.0078125,-0.00787402,57.8458,0
     0,0,0,0,0,0,0,0,0,423.917,-388.682,-0.0078125,-0.00787402,57.8661,0
     0,0,0,0,0,0,0,0,0,423.765,-434.226,-0.0078125,-0.00787402,57.8857,0
     0,0,0,0,0,0,0,0,0,449.59,-396.589,-0.0078125,-0.00787402,57.9056,0
     0,0,0,0,0,0,0,0,0,441.287,-412.499,-0.0078125,-0.00787402,57.9256,0
     0,0,0,0,0,0,0,0,0,445.444,-399.888,-0.0078125,-0.00787402,57.9456,0
     0,0,0,0,0,0,0,0,0,462.652,-429.618,-0.0078125,-0.00787402,57.9658,0
     0,0,0,0,0,0,0,0,0,420.53,-436.367,-0.0078125,-0.00787402,57.9858,0
     0,0,0,0,0,0,0,0,0,459.074,-323.834,-0.0078125,-0.00787402,58.0059,0
     0,0,0,0,0,0,0,0,0,420.53,-403.291,-0.0078125,-0.00787402,58.0258,0
     0,0,0,0,0,0,0,0,0,431.081,-485.095,-0.0078125,-0.00787402,58.0455,0
     0,0,0,0,0,0,0,0,0,447.828,-401.606,-0.0078125,-0.00787402,58.0654,0
     0,0,0,0,0,0,0,0,0,453.309,-379.773,-0.0078125,-0.00787402,58.0861,0
     0,0,0,0,0,0,0,0,0,411.828,-422.458,-0.0078125,-0.00787402,58.1059,0
     0,0,0,0,0,0,0,0,0,427.332,-478.744,-0.0078125,-0.00787402,58.126,0
     0,0,0,0,0,0,0,0,0,412.925,-411.853,-0.0078125,-0.00787402,58.1454,0
     0,0,0,0,0,0,0,0,0,401.832,-444.919,-0.0078125,-0.00787402,58.1657,0
     0,0,0,0,0,0,0,0,0,403.055,-399.241,-0.0078125,-0.00787402,58.1852,0
     0,0,0,0,0,0,0,0,0,398.891,-456.861,-0.0078125,-0.00787402,58.2057,0
     0,0,0,0,0,0,0,0,0,386.556,-420.982,-0.0078125,-0.00787402,58.2257,0
     0,0,0,0,0,0,0,0,0,435.891,-428.734,-0.0078125,-0.00787402,58.2457,0
     0,0,0,0,0,0,0,0,0,390.808,-441.199,-0.0078125,-0.00787402,58.2659,0
     0,0,0,0,0,0,0,0,0,461.627,-394.384,-0.0078125,-0.00787402,58.2859,0
     0,0,0,0,0,0,0,0,0,474.203,-399.441,-0.0078125,-0.00787402,58.3056,0
     0,0,0,0,0,0,0,0,0,462.267,-405.589,-0.0078125,-0.00787402,58.3254,0
     0,0,0,0,0,0,0,0,0,402.885,-444.217,-0.0078125,-0.00787402,58.3455,0
     0,0,0,0,0,0,0,0,0,362.871,-430.932,-0.0078125,-0.00787402,58.3656,0
     0,0,0,0,0,0,0,0,0,426.303,-402.779,-0.0078125,-0.00787402,58.3922,0
     0,0,0,0,0,0,0,0,0,440.306,-482.474,-0.0078125,-0.00787402,58.4056,0
     0,0,0,0,0,0,0,0,0,444.178,-434.565,-0.0078125,-0.00787402,58.4253,0
     0,0,0,0,0,0,0,0,0,440.762,-467.979,-0.0078125,-0.00787402,58.4457,0
     0,0,0,0,0,0,0,0,0,413.189,-416.597,-0.0078125,-0.00787402,58.4653,0
     0,0,0,0,0,0,0,0,0,411.074,-436.767,-0.0078125,-0.00787402,58.4854,0
     0,0,0,0,0,0,0,0,0,425.405,-414.585,-0.0078125,-0.00787402,58.5054,0
     0,0,0,0,0,0,0,0,0,432.236,-405.244,-0.0078125,-0.00787402,58.5256,0
     0,0,0,0,0,0,0,0,0,461.712,-410.973,-0.0078125,-0.00787402,58.5456,0
     0,0,0,0,0,0,0,0,0,408.197,-431.267,-0.0078125,-0.00787402,58.5658,0
     0,0,0,0,0,0,0,0,0,422.155,-406.471,-0.0078125,-0.00787402,58.5858,0
     0,0,0,0,0,0,0,0,0,418.603,-287.431,-0.0078125,-0.00787402,58.606,0
     0,0,0,0,0,0,0,0,0,436.538,-444.682,-0.0078125,-0.00787402,58.6269,0
     0,0,0,0,0,0,0,0,0,432.255,-482.311,-0.0078125,-0.00787402,58.6457,0
     0,0,0,0,0,0,0,0,0,385.594,-410.408,-0.0078125,-0.00787402,58.6661,0
     0,0,0,0,0,0,0,0,0,441.657,-399.457,-0.0078125,-0.00787402,58.6873,0
     0,0,0,0,0,0,0,0,0,445.385,-402.139,-0.0078125,-0.00787402,58.7063,0
     0,0,0,0,0,0,0,0,0,421.754,-464.059,-0.0078125,-0.00787402,58.7263,0
     0,0,0,0,0,0,0,0,0,448.893,-411.726,-0.0078125,-0.00787402,58.7457,0
     0,0,0,0,0,0,0,0,0,433.013,-440.674,-0.0078125,-0.00787402,58.7656,0
     0,0,0,0,0,0,0,0,0,404.752,-404.449,-0.0078125,-0.00787402,58.7856,0
     0,0,0,0,0,0,0,0,0,435.502,-460.861,-0.0078125,-0.00787402,58.8054,0
     0,0,0,0,0,0,0,0,0,424.538,-454.99,-0.0078125,-0.00787402,58.8257,0
     0,0,0,0,0,0,0,0,0,391.573,-465.181,-0.0078125,-0.00787402,58.846,0
     0,0,0,0,0,0,0,0,0,427.369,-438.529,-0.0078125,-0.00787402,58.8658,0
     0,0,0,0,0,0,0,0,0,507.202,-455.498,-0.0078125,-0.00787402,58.8865,0
     0,0,0,0,0,0,0,0,0,473.799,-505.945,-0.0078125,-0.00787402,58.9059,0
     0,0,0,0,0,0,0,0,0,442.556,-431.09,-0.0078125,-0.00787402,58.9256,0
     0,0,0,0,0,0,0,0,0,445.563,-417.537,-0.0078125,-0.00787402,58.9459,0
     0,0,0,0,0,0,0,0,0,465.962,-475.206,-0.0078125,-0.00787402,58.9653,0
     0,0,0,0,0,0,0,0,0,434.509,-469.495,-0.0078125,-0.00787402,58.9928,0
     0,0,0,0,0,0,0,0,0,442.772,-428.266,-0.0078125,-0.00787402,59.0064,0
     0,0,0,0,0,0,0,0,0,416.328,-415.852,-0.0078125,-0.00787402,59.0253,0
     0,0,0,0,0,0,0,0,0,435.882,-420.106,-0.0078125,-0.00787402,59.0468,0
     0,0,0,0,0,0,0,0,0,416.884,-407.972,-0.0078125,-0.00787402,59.0926,0
     0,0,0,0,0,0,0,0,0,452.335,-409.123,-0.0078125,-0.00787402,59.0959,0
     0,0,0,0,0,0,0,0,0,400.529,-453.7,-0.0078125,-0.00787402,59.1062,0
     0,0,0,0,0,0,0,0,0,450.521,-389.993,-0.0078125,-0.00787402,59.1261,0
     0,0,0,0,0,0,0,0,0,425.559,-454.329,-0.0078125,-0.00787402,59.1451,0
     0,0,0,0,0,0,0,0,0,433.501,-406.785,-0.0078125,-0.00787402,59.1653,0
     0,0,0,0,0,0,0,0,0,435.227,-434.48,-0.0078125,-0.00787402,59.1853,0
     0,0,0,0,0,0,0,0,0,467.617,-319.939,-0.0078125,-0.00787402,59.2051,0
     0,0,0,0,0,0,0,0,0,454.04,-394.322,-0.0078125,-0.00787402,59.2255,0
     0,0,0,0,0,0,0,0,0,443.095,-501.316,-0.0078125,-0.00787402,59.246,0
     0,0,0,0,0,0,0,0,0,438.837,-416.884,-0.0078125,-0.00787402,59.2657,0
     0,0,0,0,0,0,0,0,0,447.297,-445.246,-0.0078125,-0.00787402,59.2855,0
     0,0,0,0,0,0,0,0,0,418.585,-450.796,-0.0078125,-0.00787402,59.306,0
     0,0,0,0,0,0,0,0,0,436.5,-462.77,-0.0078125,-0.00787402,59.326,0
     0,0,0,0,0,0,0,0,0,407.224,-468.516,-0.0078125,-0.00787402,59.346,0
     0,0,0,0,0,0,0,0,0,50.4403,-445.068,-0.0078125,-0.00787402,59.3815,0
     0,0,0,0,0,0,0,0,0,-32.4486,-585.257,-0.0078125,-0.00787402,59.3853,0
     0,0,0,0,0,0,0,0,0,-93.4283,-472.043,-0.0078125,-0.00787402,59.4051,0
     0,0,0,0,0,0,0,0,0,-100.757,-527.607,-0.0078125,-0.00787402,59.4251,0
     0,0,0,0,0,0,0,0,0,-54.4185,-449.853,-0.0078125,-0.00787402,59.4451,0
     0,0,0,0,0,0,0,0,0,-69.4387,-482.567,-0.0078125,-0.00787402,59.4653,0
     0,0,0,0,0,0,0,0,0,-90.8339,-438.654,-0.0078125,-0.00787402,59.4855,0
     0,0,0,0,0,0,0,0,0,-40.024,-438.818,-0.0078125,-0.00787402,59.5274,0
     0,0,0,0,0,0,0,0,0,-70.2825,-427.004,-0.0078125,-0.00787402,59.5458,0
     0,0,0,0,0,0,0,0,0,-85.2573,-433.557,-0.0078125,-0.00787402,59.5828,0
     0,0,0,0,0,0,0,0,0,-86.2813,-440.451,-0.0078125,-0.00787402,59.5865,0
     0,0,0,0,0,0,0,0,0,-95.3512,-367.931,-0.0078125,-0.00787402,59.6051,0
     0,0,0,0,0,0,0,0,0,-100.447,-430.775,-0.0078125,-0.00787402,59.6257,0
     0,0,0,0,0,0,0,0,0,-115.835,-390.389,-0.0078125,-0.00787402,59.6457,0
     0,0,0,0,0,0,0,0,0,-142.024,-348.742,-0.0078125,-0.00787402,59.6659,0
     0,0,0,0,0,0,0,0,0,-130.131,-388.417,-0.0078125,-0.00787402,59.6856,0
     0,0,0,0,0,0,0,0,0,-148.348,-350.514,-0.0078125,-0.00787402,59.7055,0
     0,0,0,0,0,0,0,0,0,-143.909,-389.241,-0.0078125,-0.00787402,59.7254,0
     0,0,0,0,0,0,0,0,0,-183.862,-328.434,-0.0078125,-0.00787402,59.7462,0
     0,0,0,0,0,0,0,0,0,-165.344,-360.549,-0.0078125,-0.00787402,59.7655,0
     0,0,0,0,0,0,0,0,0,-171.694,-363.049,-0.0078125,-0.00787402,59.7856,0
     0,0,0,0,0,0,0,0,0,-182.425,-290.124,-0.0078125,-0.00787402,59.8061,0
     0,0,0,0,0,0,0,0,0,-205.08,-232.482,-0.0078125,-0.00787402,59.8252,0
     0,0,0,0,0,0,0,0,0,-241.377,-365.811,-0.0078125,-0.00787402,59.8453,0
     0,0,0,0,0,0,0,0,0,-208.27,-350.385,-0.0078125,-0.00787402,59.8652,0
     0,0,0,0,0,0,0,0,0,-273.56,-363.339,-0.0078125,-0.00787402,59.8956,0
     0,0,0,0,0,0,0,0,0,-222.195,-401.252,-0.0078125,-0.00787402,59.9068,0
     0,0,0,0,0,0,0,0,0,-290.816,-380.192,-0.0078125,-0.00787402,59.9254,0
     0,0,0,0,0,0,0,0,0,-358.757,-369.74,-0.0078125,-0.00787402,59.9461,0
     0,0,0,0,0,0,0,0,0,-405.039,-377.636,-0.0078125,-0.00787402,59.9654,0
     0,0,0,0,0,0,0,0,0,-312.456,-348.299,-0.0078125,-0.00787402,59.9857,0
     0,0,0,0,0,0,0,0,0,-330.786,-398.899,-0.0078125,-0.00787402,60.0059,0
     0,0,0,0,0,0,0,0,0,-361.363,-357.175,-0.0078125,-0.00787402,60.026,0
     0,0,0,0,0,0,0,0,0,-352.373,-393.763,-0.0078125,-0.00787402,60.0468,0
     0,0,0,0,0,0,0,0,0,-377.316,-374.434,-0.0078125,-0.00787402,60.066,0
     0,0,0,0,0,0,0,0,0,-332.049,-403.991,-0.0078125,-0.00787402,60.0865,0
     0,0,0,0,0,0,0,0,0,-381.84,-376.223,-0.0078125,-0.00787402,60.1053,0
     0,0,0,0,0,0,0,0,0,-386.742,-353.245,-0.0078125,-0.00787402,60.1252,0
     0,0,0,0,0,0,0,0,0,-327.837,-379.831,-0.0078125,-0.00787402,60.1455,0
     0,0,0,0,0,0,0,0,0,-323.06,-376.4,-0.0078125,-0.00787402,60.1652,0
     0,0,0,0,0,0,0,0,0,-326.819,-395.664,-0.0078125,-0.00787402,60.1856,0
     0,0,0,0,0,0,0,0,0,-377.793,-409.601,-0.0078125,-0.00787402,60.212,0
     0,0,0,0,0,0,0,0,0,-305.236,-417.571,-0.0078125,-0.00787402,60.2496,0
     0,0,0,0,0,0,0,0,0,-293.053,-400.753,-0.0078125,-0.00787402,60.2555,0
     0,0,0,0,0,0,0,0,0,-370.247,-509.736,-0.0078125,-0.00787402,60.2665,0
     0,0,0,0,0,0,0,0,0,-297.34,-384.423,-0.0078125,-0.00787402,60.2854,0
     0,0,0,0,0,0,0,0,0,-299.137,-472.88,-0.0078125,-0.00787402,60.306,0
     0,0,0,0,0,0,0,0,0,-296.112,-443.292,-0.0078125,-0.00787402,60.326,0
     0,0,0,0,0,0,0,0,0,-263.484,-480.596,-0.0078125,-0.00787402,60.3461,0
     0,0,0,0,0,0,0,0,0,-267.548,-461.287,-0.0078125,-0.00787402,60.3656,0
     0,0,0,0,0,0,0,0,0,-194.588,-470.356,-0.0078125,-0.00787402,60.3855,0
     0,0,0,0,0,0,0,0,0,-247.899,-429.046,-0.0078125,-0.00787402,60.4067,0
     0,0,0,0,0,0,0,0,0,-212.382,-448.3,-0.0078125,-0.00787402,60.4311,0
     0,0,0,0,0,0,0,0,0,-225.086,-444.543,-0.0078125,-0.00787402,60.446,0
     0,0,0,0,0,0,0,0,0,-241.01,-273.004,-0.0078125,-0.00787402,60.466,0
     0,0,0,0,0,0,0,0,0,-210.973,-411.65,-0.0078125,-0.00787402,60.4929,0
     0,0,0,0,0,0,0,0,0,-214.721,-495.43,-0.0078125,-0.00787402,60.5055,0
     0,0,0,0,0,0,0,0,0,-165.448,-435.844,-0.0078125,-0.00787402,60.5275,0
     0,0,0,0,0,0,0,0,0,-189.2,-402.22,-0.0078125,-0.00787402,60.5473,0
     0,0,0,0,0,0,0,0,0,-190.558,-423.576,-0.0078125,-0.00787402,60.5653,0
     0,0,0,0,0,0,0,0,0,-192.628,-487.876,-0.0078125,-0.00787402,60.5852,0
     0,0,0,0,0,0,0,0,0,-181.79,-409.928,-0.0078125,-0.00787402,60.6058,0
     0,0,0,0,0,0,0,0,0,-224.899,-478.515,-0.0078125,-0.00787402,60.6257,0
     0,0,0,0,0,0,0,0,0,-222.405,-426.094,-0.0078125,-0.00787402,60.6458,0
     0,0,0,0,0,0,0,0,0,-206.537,-353.801,-0.0078125,-0.00787402,60.666,0
     0,0,0,0,0,0,0,0,0,-202.599,-424.791,-0.0078125,-0.00787402,60.6855,0
     0,0,0,0,0,0,0,0,0,-202.214,-405.49,-0.0078125,-0.00787402,60.7168,0
     0,0,0,0,0,0,0,0,0,-170.908,-428.412,-0.0078125,-0.00787402,60.7258,0
     0,0,0,0,0,0,0,0,0,-166.228,-376.025,-0.0078125,-0.00787402,60.7494,0
     0,0,0,0,0,0,0,0,0,-182.364,-440.849,-0.0078125,-0.00787402,60.766,0
     0,0,0,0,0,0,0,0,0,-207.082,-365.858,-0.0078125,-0.00787402,60.7859,0
     0,0,0,0,0,0,0,0,0,-198.639,-383.45,-0.0078125,-0.00787402,60.8051,0
     0,0,0,0,0,0,0,0,0,-192.898,-403.161,-0.0078125,-0.00787402,60.8255,0
     0,0,0,0,0,0,0,0,0,-188.327,-412.091,-0.0078125,-0.00787402,60.8455,0
     0,0,0,0,0,0,0,0,0,-215.448,-441.589,-0.0078125,-0.00787402,60.8654,0
     0,0,0,0,0,0,0,0,0,-193.351,-392.034,-0.0078125,-0.00787402,60.8866,0
     0,0,0,0,0,0,0,0,0,-222.754,-443.302,-0.0078125,-0.00787402,60.9051,0
     0,0,0,0,0,0,0,0,0,-185.24,-395.757,-0.0078125,-0.00787402,60.9262,0
     0,0,0,0,0,0,0,0,0,-57.1651,-187.485,-0.0078125,-0.00787402,60.9489,0
     0,0,0,0,0,0,0,0,0,-85.993,-99.8303,-0.0078125,-0.00787402,60.965,0
     0,0,0,0,0,0,0,0,0,-68.7767,-110.324,-0.0078125,-0.00787402,60.9853,0
     0,0,0,0,0,0,0,0,0,-59.5756,-105.319,-0.0078125,-0.00787402,61.0053,0
     0,0,0,0,0,0,0,0,0,-63.2407,-97.0459,-0.0078125,-0.00787402,61.0257,0
     0,0,0,0,0,0,0,0,0,-42.8268,-58.9522,-0.0078125,-0.00787402,61.0457,0
     0,0,0,0,0,0,0,0,0,-42.8268,-48.1875,-0.0078125,-0.00787402,61.0658,0
     0,0,0,0,0,0,0,0,0,-42.8268,-19.61,-0.0078125,-0.00787402,61.0865,0
     0,0,0,0,0,0,0,0,0,-7.77184,-19.61,-0.0078125,-0.00787402,61.1059,0
     0,0,0,0,0,0,0,0,0,-7.77184,-19.61,-0.0078125,-0.00787402,61.1258,0
     0,0,0,0,0,0,0,0,0,-7.77184,-19.61,-0.0078125,-0.00787402,61.1454,0
     0,0,0,0,0,0,0,0,0,-7.77184,-19.61,-0.0078125,-0.00787402,61.1651,0
     0,0,0,0,0,0,0,0,0,-7.77184,-19.61,-0.0078125,-0.00787402,61.1855,0
     0,0,0,0,0,0,0,0,0,-7.77184,-19.61,-0.0078125,-0.00787402,61.2058,0
     0,0,0,0,0,0,0,0,0,-7.77184,-19.61,-0.0078125,-0.00787402,61.2259,0
     0,0,0,0,0,0,0,0,0,-7.77184,-19.61,-0.0078125,-0.00787402,61.246,0
     0,0,0,0,0,0,0,0,0,-7.77184,-19.61,-0.0078125,-0.00787402,61.266,0
     0,0,0,0,0,0,0,0,0,-7.77184,-19.61,-0.0078125,-0.00787402,61.286,0
     0,0,0,0,0,0,0,0,0,-7.77184,-19.61,-0.0078125,-0.00787402,61.3064,0
     0,0,0,0,0,0,0,0,0,-7.77184,-19.61,-0.0078125,-0.00787402,61.3252,0
     0,0,0,0,0,0,0,0,0,-7.77184,-19.61,-0.0078125,-0.00787402,61.3456,0
     0,0,0,0,0,0,0,0,0,-7.77184,-19.61,-0.0078125,-0.00787402,61.3659,0
     0,0,0,0,0,0,0,0,0,-7.77184,-19.61,-0.0078125,-0.00787402,61.3858,0
     0,0,0,0,0,0,0,0,0,-7.77184,-19.61,-0.0078125,-0.00787402,61.4059,0
     0,0,0,0,0,0,0,0,0,-7.77184,-19.61,-0.0078125,-0.00787402,61.4259,0
     0,0,0,0,0,0,0,0,0,-7.77184,-19.61,-0.0078125,-0.00787402,61.4452,0
     0,0,0,0,0,0,0,0,0,-7.77184,-19.61,-0.0078125,-0.00787402,61.4651,0
     0,0,0,0,0,0,0,0,0,-7.77184,-19.61,-0.0078125,-0.00787402,61.4854,0
     0,0,0,0,0,0,0,0,0,0,0,-0.0078125,-0.00787402,61.5059,0
     0,0,0,0,0,0,0,0,0,0,0,-0.0078125,-0.00787402,61.5259,0
     0,0,0,0,0,0,0,0,0,0,0,-0.0078125,-0.00787402,61.546,0
     0,0,0,0,0,0,0,0,0,0,0,-0.0078125,-0.00787402,61.5658,0
     0,0,0,0,0,0,0,0,0,0,-361.472,-0.0078125,-0.00787402,61.5858,0
     0,0,0,0,0,0,0,0,0,0,-657.268,-0.0078125,-0.00787402,61.6053,0
     0,0,0,0,0,0,0,0,0,104.982,-701.041,-0.0078125,-0.00787402,61.625,0
     0,0,0,0,0,0,0,0,0,97.3317,-600.799,-0.0078125,-0.00787402,61.6453,0
     0,0,0,0,0,0,0,0,0,145.964,-561.214,-0.0078125,-0.00787402,61.6651,0
     0,0,0,0,0,0,0,0,0,67.5904,-852.951,-0.0078125,-0.00787402,61.6854,0
     0,0,0,0,0,0,0,0,0,209.8,-805.218,-0.0078125,-0.00787402,61.7052,0
     0,0,0,0,0,0,0,0,0,235.139,-855.652,-0.0078125,-0.00787402,61.7254,0
     0,0,0,0,0,0,0,0,0,182.483,-803.277,-0.0078125,-0.00787402,61.7454,0
     0,0,0,0,0,0,0,0,0,200.232,-841.609,-0.0078125,-0.00787402,61.7652,0
     0,0,0,0,0,0,0,0,0,236.972,-847.961,-0.0078125,-0.00787402,61.7857,0
     0,0,0,0,0,0,0,0,0,265.855,-1079.74,-0.0078125,-0.00787402,61.8053,0
     0,0,0,0,0,0,0,0,0,264.403,-1071.24,-0.0078125,-0.00787402,61.8256,0
     0,0,0,0,0,0,0,0,0,286.549,-983.187,-0.0078125,-0.00787402,61.846,0
     0,0,0,0,0,0,0,0,0,314.406,-1110.49,-0.0078125,-0.00787402,61.8654,0
     0,0,0,0,0,0,0,0,0,268.478,-998.253,-0.0078125,-0.00787402,61.8862,0
     0,0,0,0,0,0,0,0,0,287.832,-997.357,-0.0078125,-0.00787402,61.9057,0
     0,0,0,0,0,0,0,0,0,328.456,-911.951,-0.0078125,-0.00787402,61.9262,0
     0,0,0,0,0,0,0,0,0,329.755,-921.829,-0.0078125,-0.00787402,61.9462,0
     0,0,0,0,0,0,0,0,0,349.718,-933.794,-0.0078125,-0.00787402,61.9663,0
     0,0,0,0,0,0,0,0,0,351.549,-1001,-0.0078125,-0.00787402,61.9861,0
     0,0,0,0,0,0,0,0,0,327.477,-1144.49,-0.0078125,-0.00787402,62.0072,0
     0,0,0,0,0,0,0,0,0,349.028,-925.626,-0.0078125,-0.00787402,62.0261,0
     0,0,0,0,0,0,0,0,0,345.781,-959.325,-0.0078125,-0.00787402,62.0452,0
     0,0,0,0,0,0,0,0,0,388.432,-879.817,-0.0078125,-0.00787402,62.0662,0
     0,0,0,0,0,0,0,0,0,323.698,-1099.14,-0.0078125,-0.00787402,62.0854,0
     0,0,0,0,0,0,0,0,0,311.274,-1038.37,-0.0078125,-0.00787402,62.1053,0
     0,0,0,0,0,0,0,0,0,340.46,-827.849,-0.0078125,-0.00787402,62.1253,0
     0,0,0,0,0,0,0,0,0,340.774,-988.875,-0.0078125,-0.00787402,62.1456,0
     0,0,0,0,0,0,0,0,0,463.704,-1143.71,-0.0078125,-0.00787402,62.1655,0
     0,0,0,0,0,0,0,0,0,379.025,-957.625,-0.0078125,-0.00787402,62.1857,0
     0,0,0,0,0,0,0,0,0,437.302,-668.628,-0.0078125,-0.00787402,62.206,0
     0,0,0,0,0,0,0,0,0,423.245,-1113.52,-0.0078125,-0.00787402,62.2279,0
     0,0,0,0,0,0,0,0,0,449.115,-1064.96,-0.0078125,-0.00787402,62.2451,0
     0,0,0,0,0,0,0,0,0,339.374,-1051.69,-0.0078125,-0.00787402,62.266,0
     0,0,0,0,0,0,0,0,0,311.677,-1133.72,-0.0078125,-0.00787402,62.2854,0
     0,0,0,0,0,0,0,0,0,332.187,-987.459,-0.0078125,-0.00787402,62.3055,0
     0,0,0,0,0,0,0,0,0,296.336,-1075.73,-0.0078125,-0.00787402,62.3256,0
     0,0,0,0,0,0,0,0,0,269.644,-1086.07,-0.0078125,-0.00787402,62.3457,0
     0,0,0,0,0,0,0,0,0,331.829,-1217.95,-0.0078125,-0.00787402,62.3667,0
     0,0,0,0,0,0,0,0,0,315.174,-1149.69,-0.0078125,-0.00787402,62.3881,0
     0,0,0,0,0,0,0,0,0,320.893,-1093.49,-0.0078125,-0.00787402,62.4211,0
     0,0,0,0,0,0,0,0,0,327.209,-1027.85,-0.0078125,-0.00787402,62.4377,0
     0,0,0,0,0,0,0,0,0,361.893,-718.236,-0.0078125,-0.00787402,62.4466,0
     0,0,0,0,0,0,0,0,0,352.299,-1022.86,-0.0078125,-0.00787402,62.4655,0
     0,0,0,0,0,0,0,0,0,341.688,-983.865,-0.0078125,-0.00787402,62.4856,0
     0,0,0,0,0,0,0,0,0,387.725,-1003.76,-0.0078125,-0.00787402,62.5054,0
     0,0,0,0,0,0,0,0,0,330,-1027.91,-0.0078125,-0.00787402,62.5255,0
     0,0,0,0,0,0,0,0,0,355.556,-957.533,-0.0078125,-0.00787402,62.5459,0
     0,0,0,0,0,0,0,0,0,320.241,-1005.63,-0.0078125,-0.00787402,62.5659,0
     0,0,0,0,0,0,0,0,0,348.414,-1032.36,-0.0078125,-0.00787402,62.5853,0
     0,0,0,0,0,0,0,0,0,429.221,-1009.03,-0.0078125,-0.00787402,62.6061,0
     0,0,0,0,0,0,0,0,0,371.609,-1060.9,-0.0078125,-0.00787402,62.6251,0
     0,0,0,0,0,0,0,0,0,297.606,-1114.39,-0.0078125,-0.00787402,62.6455,0
     0,0,0,0,0,0,0,0,0,233.095,-1138.17,-0.0078125,-0.00787402,62.6656,0
     0,0,0,0,0,0,0,0,0,352.305,-1009.18,-0.0078125,-0.00787402,62.6856,0
     0,0,0,0,0,0,0,0,0,218.152,-1474.06,-0.0078125,-0.00787402,62.7123,0
     0,0,0,0,0,0,0,0,0,209.521,-1077.06,-0.0078125,-0.00787402,62.7255,0
     0,0,0,0,0,0,0,0,0,213.844,-1092.66,-0.0078125,-0.00787402,62.7457,0
     0,0,0,0,0,0,0,0,0,451.141,-1270.08,-0.0078125,-0.00787402,62.766,0
     0,0,0,0,0,0,0,0,0,336.417,-902.039,-0.0078125,-0.00787402,62.7939,0
     0,0,0,0,0,0,0,0,0,395.828,-1039.12,-0.0078125,-0.00787402,62.8079,0
     0,0,0,0,0,0,0,0,0,382.658,-1088.67,-0.0078125,-0.00787402,62.8251,0
     0,0,0,0,0,0,0,0,0,423.325,-1053.35,-0.0078125,-0.00787402,62.8456,0
     0,0,0,0,0,0,0,0,0,417.058,-1048,-0.0078125,-0.00787402,62.8789,0
     0,0,0,0,0,0,0,0,0,453.042,-932.618,-0.0078125,-0.00787402,62.8863,0
     0,0,0,0,0,0,0,0,0,416.138,-975.039,-0.0078125,-0.00787402,62.9076,0
     0,0,0,0,0,0,0,0,0,358.051,-1188.78,-0.0078125,-0.00787402,62.9255,0
     0,0,0,0,0,0,0,0,0,438.068,-1008.47,-0.0078125,-0.00787402,62.9455,0
     0,0,0,0,0,0,0,0,0,412.635,-919.16,-0.0078125,-0.00787402,62.9654,0
     0,0,0,0,0,0,0,0,0,439.754,-842.602,-0.0078125,-0.00787402,62.9859,0
     0,0,0,0,0,0,0,0,0,440.8,-1091.05,-0.0078125,-0.00787402,63.0059,0
     0,0,0,0,0,0,0,0,0,444.415,-1187.51,-0.0078125,-0.00787402,63.0259,0
     0,0,0,0,0,0,0,0,0,427.387,-925.198,-0.0078125,-0.00787402,63.0464,0
     0,0,0,0,0,0,0,0,0,420.769,-1077.35,-0.0078125,-0.00787402,63.0657,0
     0,0,0,0,0,0,0,0,0,416.129,-1143.58,-0.0078125,-0.00787402,63.086,0
     0,0,0,0,0,0,0,0,0,399.872,-1136.3,-0.0078125,-0.00787402,63.1058,0
     0,0,0,0,0,0,0,0,0,492.065,-959.141,-0.0078125,-0.00787402,63.1258,0
     0,0,0,0,0,0,0,0,0,432.348,-950.841,-0.0078125,-0.00787402,63.1458,0
     0,0,0,0,0,0,0,0,0,445.504,-977.278,-0.0078125,-0.00787402,63.1657,0
     0,0,0,0,0,0,0,0,0,453.104,-1071.24,-0.0078125,-0.00787402,63.1863,0
     0,0,0,0,0,0,0,0,0,448.682,-972.621,-0.0078125,-0.00787402,63.2051,0
     0,0,0,0,0,0,0,0,0,400.986,-924.513,-0.0078125,-0.00787402,63.2252,0
     0,0,0,0,0,0,0,0,0,396.802,-968.335,-0.0078125,-0.00787402,63.2453,0
     0,0,0,0,0,0,0,0,0,355.923,-1149.95,-0.0078125,-0.00787402,63.265,0
     0,0,0,0,0,0,0,0,0,429.295,-1006.95,-0.0078125,-0.00787402,63.2853,0
     0,0,0,0,0,0,0,0,0,433.116,-1088.61,-0.0078125,-0.00787402,63.3054,0
     0,0,0,0,0,0,0,0,0,385.045,-956.389,-0.0078125,-0.00787402,63.345,0
     0,0,0,0,0,0,0,0,0,396.008,-1132.31,-0.0078125,-0.00787402,63.3485,0
     0,0,0,0,0,0,0,0,0,400.794,-1233.43,-0.0078125,-0.00787402,63.3653,0
     0,0,0,0,0,0,0,0,0,420.751,-1103.2,-0.0078125,-0.00787402,63.3857,0
     0,0,0,0,0,0,0,0,0,383.509,-1085.36,-0.0078125,-0.00787402,63.4069,0
     0,0,0,0,0,0,0,0,0,405.466,-1160.83,-0.0078125,-0.00787402,63.4259,0
     0,0,0,0,0,0,0,0,0,375.397,-1210.07,-0.0078125,-0.00787402,63.4456,0
     0,0,0,0,0,0,0,0,0,354.447,-1011.99,-0.0078125,-0.00787402,63.4655,0
     0,0,0,0,0,0,0,0,0,397.259,-1150.09,-0.0078125,-0.00787402,63.4856,0
     0,0,0,0,0,0,0,0,0,354.095,-1271.21,-0.0078125,-0.00787402,63.5056,0
     0,0,0,0,0,0,0,0,0,418.568,-1112.41,-0.0078125,-0.00787402,63.525,0
     0,0,0,0,0,0,0,0,0,381.716,-979.384,-0.0078125,-0.00787402,63.5451,0
     0,0,0,0,0,0,0,0,0,378.817,-1105.16,-0.0078125,-0.00787402,63.566,0
     0,0,0,0,0,0,0,0,0,435.958,-1203.01,-0.0078125,-0.00787402,63.5851,0
     0,0,0,0,0,0,0,0,0,391.535,-1099.99,-0.0078125,-0.00787402,63.6055,0
     0,0,0,0,0,0,0,0,0,429.203,-844.88,-0.0078125,-0.00787402,63.6252,0
     0,0,0,0,0,0,0,0,0,430.923,-1114.33,-0.0078125,-0.00787402,63.6455,0
     0,0,0,0,0,0,0,0,0,403.153,-1235.56,-0.0078125,-0.00787402,63.6659,0
     0,0,0,0,0,0,0,0,0,432.264,-1043.19,-0.0078125,-0.00787402,63.6854,0
     0,0,0,0,0,0,0,0,0,408.313,-958.727,-0.0078125,-0.00787402,63.7063,0
     0,0,0,0,0,0,0,0,0,457.865,-1132.25,-0.0078125,-0.00787402,63.7258,0
     0,0,0,0,0,0,0,0,0,422.003,-1205.91,-0.0078125,-0.00787402,63.7455,0
     0,0,0,0,0,0,0,0,0,403.698,-1080.91,-0.0078125,-0.00787402,63.7656,0
     0,0,0,0,0,0,0,0,0,413.882,-889.798,-0.0078125,-0.00787402,63.7857,0
     0,0,0,0,0,0,0,0,0,400.497,-1068.66,-0.0078125,-0.00787402,63.8056,0
     0,0,0,0,0,0,0,0,0,419.71,-1108.34,-0.0078125,-0.00787402,63.8256,0
     0,0,0,0,0,0,0,0,0,427.872,-1146.53,-0.0078125,-0.00787402,63.8451,0
     0,0,0,0,0,0,0,0,0,428.027,-1101.5,-0.0078125,-0.00787402,63.8654,0
     0,0,0,0,0,0,0,0,0,444.04,-1102.66,-0.0078125,-0.00787402,63.887,0
     0,0,0,0,0,0,0,0,0,381.119,-1278.53,-0.0078125,-0.00787402,63.9055,0
     0,0,0,0,0,0,0,0,0,420.239,-999.75,-0.0078125,-0.00787402,63.9255,0
     0,0,0,0,0,0,0,0,0,400.44,-917.894,-0.0078125,-0.00787402,63.9456,0
     0,0,0,0,0,0,0,0,0,412.95,-1023.59,-0.0078125,-0.00787402,63.9655,0
     0,0,0,0,0,0,0,0,0,376.011,-1237.01,-0.0078125,-0.00787402,63.9856,0
     0,0,0,0,0,0,0,0,0,383.597,-1193.1,-0.0078125,-0.00787402,64.0267,0
     0,0,0,0,0,0,0,0,0,415.697,-1072.9,-0.0078125,-0.00787402,64.0462,0
     0,0,0,0,0,0,0,0,0,420.76,-1155.8,-0.0078125,-0.00787402,64.0655,0
     0,0,0,0,0,0,0,0,0,428.835,-1064.57,-0.0078125,-0.00787402,64.0863,0
     0,0,0,0,0,0,0,0,0,510.856,-974.896,-0.0078125,-0.00787402,64.1052,0
     0,0,0,0,0,0,0,0,0,430.719,-1012.71,-0.0078125,-0.00787402,64.1254,0
     0,0,0,0,0,0,0,0,0,403.096,-1125.87,-0.0078125,-0.00787402,64.1453,0
     0,0,0,0,0,0,0,0,0,391.481,-1084.6,-0.0078125,-0.00787402,64.1655,0
     0,0,0,0,0,0,0,0,0,393.631,-996.165,-0.0078125,-0.00787402,64.1856,0
     0,0,0,0,0,0,0,0,0,427.908,-979.336,-0.0078125,-0.00787402,64.2055,0
     0,0,0,0,0,0,0,0,0,381.636,-1252.43,-0.0078125,-0.00787402,64.2307,0
     0,0,0,0,0,0,0,0,0,417.293,-896.66,-0.0078125,-0.00787402,64.2457,0
     0,0,0,0,0,0,0,0,0,442.84,-1259.76,-0.0078125,-0.00787402,64.2658,0
     0,0,0,0,0,0,0,0,0,408.63,-1077.7,-0.0078125,-0.00787402,64.2858,0
     0,0,0,0,0,0,0,0,0,396.936,-1194.24,-0.0078125,-0.00787402,64.3067,0
     0,0,0,0,0,0,0,0,0,387.943,-1070.15,-0.0078125,-0.00787402,64.326,0
     0,0,0,0,0,0,0,0,0,418.261,-947.733,-0.0078125,-0.00787402,64.3459,0
     0,0,0,0,0,0,0,0,0,411.565,-1192.46,-0.0078125,-0.00787402,64.3654,0
     0,0,0,0,0,0,0,0,0,429.479,-1196.1,-0.0078125,-0.00787402,64.3854,0
     0,0,0,0,0,0,0,0,0,450.045,-1086.6,-0.0078125,-0.00787402,64.4059,0
     0,0,0,0,0,0,0,0,0,435.796,-968.617,-0.0078125,-0.00787402,64.4258,0
     0,0,0,0,0,0,0,0,0,415.386,-1040.58,-0.0078125,-0.00787402,64.446,0
     0,0,0,0,0,0,0,0,0,379.226,-1173.02,-0.0078125,-0.00787402,64.4653,0
     0,0,0,0,0,0,0,0,0,399.64,-1077.82,-0.0078125,-0.00787402,64.4979,0
     0,0,0,0,0,0,0,0,0,400.256,-793.116,-0.0078125,-0.00787402,64.5055,0
     0,0,0,0,0,0,0,0,0,389.476,-933.75,-0.0078125,-0.00787402,64.5252,0
     0,0,0,0,0,0,0,0,0,323.264,-1093.49,-0.0078125,-0.00787402,64.5455,0
     0,0,0,0,0,0,0,0,0,356.151,-1070.55,-0.0078125,-0.00787402,64.5653,0
     0,0,0,0,0,0,0,0,0,384.734,-1067.63,-0.0078125,-0.00787402,64.5855,0
     0,0,0,0,0,0,0,0,0,364.047,-1030.72,-0.0078125,-0.00787402,64.6056,0
     0,0,0,0,0,0,0,0,0,381.526,-1167.82,-0.0078125,-0.00787402,64.6263,0
     0,0,0,0,0,0,0,0,0,357.411,-995.818,-0.0078125,-0.00787402,64.6457,0
     0,0,0,0,0,0,0,0,0,339.064,-1086.01,-0.0078125,-0.00787402,64.6656,0
     0,0,0,0,0,0,0,0,0,341.623,-1084.19,-0.0078125,-0.00787402,64.6859,0
     0,0,0,0,0,0,0,0,0,345.28,-1261.75,-0.0078125,-0.00787402,64.7058,0
     0,0,0,0,0,0,0,0,0,384.032,-1035.25,-0.0078125,-0.00787402,64.7251,0
     0,0,0,0,0,0,0,0,0,317.617,-995.421,-0.0078125,-0.00787402,64.7454,0
     0,0,0,0,0,0,0,0,0,404,-1024.28,-0.0078125,-0.00787402,64.7653,0
     0,0,0,0,0,0,0,0,0,349.4,-1161.04,-0.0078125,-0.00787402,64.7854,0
     0,0,0,0,0,0,0,0,0,357.788,-1028.54,-0.0078125,-0.00787402,64.8054,0
     0,0,0,0,0,0,0,0,0,370.041,-969.838,-0.0078125,-0.00787402,64.8253,0
     0,0,0,0,0,0,0,0,0,431.174,-1009.74,-0.0078125,-0.00787402,64.8455,0
     0,0,0,0,0,0,0,0,0,360.244,-1104.18,-0.0078125,-0.00787402,64.8654,0
     0,0,0,0,0,0,0,0,0,310.636,-915.877,-0.0078125,-0.00787402,64.8863,0
     0,0,0,0,0,0,0,0,0,368.311,-1004.27,-0.0078125,-0.00787402,64.9059,0
     0,0,0,0,0,0,0,0,0,395.577,-1070.43,-0.0078125,-0.00787402,64.9258,0
     0,0,0,0,0,0,0,0,0,383.399,-1233.05,-0.0078125,-0.00787402,64.9452,0
     0,0,0,0,0,0,0,0,0,456.819,-989.658,-0.0078125,-0.00787402,64.9662,0
     0,0,0,0,0,0,0,0,0,405.006,-1295.92,-0.0078125,-0.00787402,64.9855,0
     0,0,0,0,0,0,0,0,0,444.296,-1187.79,-0.0078125,-0.00787402,65.0055,0
     0,0,0,0,0,0,0,0,0,416.84,-1161.24,-0.0078125,-0.00787402,65.0257,0
     0,0,0,0,0,0,0,0,0,393.879,-1011.63,-0.0078125,-0.00787402,65.0457,0
     0,0,0,0,0,0,0,0,0,415.257,-880.165,-0.0078125,-0.00787402,65.0656,0
     0,0,0,0,0,0,0,0,0,455.373,-712.251,-0.0078125,-0.00787402,65.0862,0
     0,0,0,0,0,0,0,0,0,439.812,-1395.19,-0.0078125,-0.00787402,65.106,0
     0,0,0,0,0,0,0,0,0,435.625,-1135.2,-0.0078125,-0.00787402,65.1266,0
     0,0,0,0,0,0,0,0,0,423.765,-1146.53,-0.0078125,-0.00787402,65.1456,0
     0,0,0,0,0,0,0,0,0,440.849,-1270.89,-0.0078125,-0.00787402,65.1654,0
     0,0,0,0,0,0,0,0,0,363.974,-980.248,-0.0078125,-0.00787402,65.1851,0
     0,0,0,0,0,0,0,0,0,402.164,-1129.37,-0.0078125,-0.00787402,65.2052,0
     0,0,0,0,0,0,0,0,0,406.653,-1090.69,-0.0078125,-0.00787402,65.2253,0
     0,0,0,0,0,0,0,0,0,392.557,-1141.75,-0.0078125,-0.00787402,65.2451,0
     0,0,0,0,0,0,0,0,0,359.021,-925.155,-0.0078125,-0.00787402,65.2654,0
     0,0,0,0,0,0,0,0,0,366.32,-1351.81,-0.0078125,-0.00787402,65.2865,0
     0,0,0,0,0,0,0,0,0,343.814,-996.761,-0.0078125,-0.00787402,65.3067,0
     0,0,0,0,0,0,0,0,0,363.445,-925.712,-0.0078125,-0.00787402,65.3257,0
     0,0,0,0,0,0,0,0,0,414.044,-968.429,-0.0078125,-0.00787402,65.346,0
     0,0,0,0,0,0,0,0,0,355.177,-1106.56,-0.0078125,-0.00787402,65.3659,0
     0,0,0,0,0,0,0,0,0,374.511,-928.721,-0.0078125,-0.00787402,65.3863,0
     0,0,0,0,0,0,0,0,0,366.744,-1262.39,-0.0078125,-0.00787402,65.4057,0
     0,0,0,0,0,0,0,0,0,455.342,-1123.85,-0.0078125,-0.00787402,65.4256,0
     0,0,0,0,0,0,0,0,0,434.245,-962.371,-0.0078125,-0.00787402,65.4454,0
     0,0,0,0,0,0,0,0,0,438.673,-1132.12,-0.0078125,-0.00787402,65.4656,0
     0,0,0,0,0,0,0,0,0,385.015,-1149.76,-0.0078125,-0.00787402,65.4856,0
     0,0,0,0,0,0,0,0,0,389.075,-874.241,-0.0078125,-0.00787402,65.5055,0
     0,0,0,0,0,0,0,0,0,356.748,-963.948,-0.0078125,-0.00787402,65.5259,0
     0,0,0,0,0,0,0,0,0,405.499,-1182.1,-0.0078125,-0.00787402,65.5461,0
     0,0,0,0,0,0,0,0,0,407.972,-1150.48,-0.0078125,-0.00787402,65.5658,0
     0,0,0,0,0,0,0,0,0,346.368,-1124.61,-0.0078125,-0.00787402,65.5865,0
     0,0,0,0,0,0,0,0,0,358.102,-1043.46,-0.0078125,-0.00787402,65.6055,0
     0,0,0,0,0,0,0,0,0,374.581,-1136.3,-0.0078125,-0.00787402,65.6259,0
     0,0,0,0,0,0,0,0,0,445.157,-1242.08,-0.0078125,-0.00787402,65.646,0
     0,0,0,0,0,0,0,0,0,405.564,-935.235,-0.0078125,-0.00787402,65.6658,0
     0,0,0,0,0,0,0,0,0,490.112,-1168.09,-0.0078125,-0.00787402,65.6852,0
     0,0,0,0,0,0,0,0,0,382.9,-1046.52,-0.0078125,-0.00787402,65.7052,0
     0,0,0,0,0,0,0,0,0,424.692,-1132.37,-0.0078125,-0.00787402,65.7253,0
     0,0,0,0,0,0,0,0,0,423.442,-1137.72,-0.0078125,-0.00787402,65.7456,0
     0,0,0,0,0,0,0,0,0,449.519,-1118.07,-0.0078125,-0.00787402,65.7664,0
     0,0,0,0,0,0,0,0,0,409.802,-1027.49,-0.0078125,-0.00787402,65.7855,0
     0,0,0,0,0,0,0,0,0,328.715,-1275.1,-0.0078125,-0.00787402,65.8059,0
     0,0,0,0,0,0,0,0,0,352.808,-1160.03,-0.0078125,-0.00787402,65.8252,0
     0,0,0,0,0,0,0,0,0,406.141,-1115.39,-0.0078125,-0.00787402,65.8456,0
     0,0,0,0,0,0,0,0,0,367.62,-1228.05,-0.0078125,-0.00787402,65.8658,0
     0,0,0,0,0,0,0,0,0,408.388,-1094.21,-0.0078125,-0.00787402,65.8866,0
     0,0,0,0,0,0,0,0,0,414.946,-1012.09,-0.0078125,-0.00787402,65.9051,0
     0,0,0,0,0,0,0,0,0,390.739,-1092.66,-0.0078125,-0.00787402,65.9252,0
     0,0,0,0,0,0,0,0,0,427.743,-1160.9,-0.0078125,-0.00787402,65.9463,0
     0,0,0,0,0,0,0,0,0,357.871,-945.537,-0.0078125,-0.00787402,65.9655,0
     0,0,0,0,0,0,0,0,0,395.531,-944.02,-0.0078125,-0.00787402,65.9856,0
     0,0,0,0,0,0,0,0,0,439.638,-1244.79,-0.0078125,-0.00787402,66.0059,0
     0,0,0,0,0,0,0,0,0,389.727,-712.86,-0.0078125,-0.00787402,66.026,0
     0,0,0,0,0,0,0,0,0,395.624,-1144.75,-0.0078125,-0.00787402,66.0451,0
     0,0,0,0,0,0,0,0,0,400.818,-1127.08,-0.0078125,-0.00787402,66.066,0
     0,0,0,0,0,0,0,0,0,401.962,-1122.27,-0.0078125,-0.00787402,66.0858,0
     0,0,0,0,0,0,0,0,0,441.921,-1174.81,-0.0078125,-0.00787402,66.1069,0
     0,0,0,0,0,0,0,0,0,419.56,-1007.66,-0.0078125,-0.00787402,66.1259,0
     0,0,0,0,0,0,0,0,0,374.953,-1114.58,-0.0078125,-0.00787402,66.1458,0
     0,0,0,0,0,0,0,0,0,421.977,-1047.07,-0.0078125,-0.00787402,66.1658,0
     0,0,0,0,0,0,0,0,0,467.224,-1046.24,-0.0078125,-0.00787402,66.1859,0
     0,0,0,0,0,0,0,0,0,408.222,-1253.92,-0.0078125,-0.00787402,66.2122,0
     0,0,0,0,0,0,0,0,0,468.242,-1189.84,-0.0078125,-0.00787402,66.226,0
     0,0,0,0,0,0,0,0,0,417.397,-1091.46,-0.0078125,-0.00787402,66.246,0
     0,0,0,0,0,0,0,0,0,425.595,-846.346,-0.0078125,-0.00787402,66.2658,0
     0,0,0,0,0,0,0,0,0,444.583,-919.709,-0.0078125,-0.00787402,66.2853,0
     0,0,0,0,0,0,0,0,0,476.417,-1110.8,-0.0078125,-0.00787402,66.3054,0
     0,0,0,0,0,0,0,0,0,456.423,-1105.58,-0.0078125,-0.00787402,66.3253,0
     0,0,0,0,0,0,0,0,0,391.504,-822.47,-0.0078125,-0.00787402,66.3454,0
     0,0,0,0,0,0,0,0,0,426.312,-971.865,-0.0078125,-0.00787402,66.3657,0
     0,0,0,0,0,0,0,0,0,400.978,-1294.67,-0.0078125,-0.00787402,66.3856,0
     0,0,0,0,0,0,0,0,0,423.424,-1075.15,-0.0078125,-0.00787402,66.4065,0
     0,0,0,0,0,0,0,0,0,359.492,-1127.52,-0.0078125,-0.00787402,66.4256,0
     0,0,0,0,0,0,0,0,0,377.75,-1156.74,-0.0078125,-0.00787402,66.4456,0
     0,0,0,0,0,0,0,0,0,344.887,-1125.18,-0.0078125,-0.00787402,66.4657,0
     0,0,0,0,0,0,0,0,0,380.793,-1062.25,-0.0078125,-0.00787402,66.4856,0
     0,0,0,0,0,0,0,0,0,385.394,-844.916,-0.0078125,-0.00787402,66.5056,0
     0,0,0,0,0,0,0,0,0,379.845,-1115.7,-0.0078125,-0.00787402,66.5257,0
     0,0,0,0,0,0,0,0,0,344.578,-1186.1,-0.0078125,-0.00787402,66.5457,0
     0,0,0,0,0,0,0,0,0,372.752,-1152.8,-0.0078125,-0.00787402,66.5663,0
     0,0,0,0,0,0,0,0,0,324.091,-997.556,-0.0078125,-0.00787402,66.5859,0
     0,0,0,0,0,0,0,0,0,334.891,-1099.08,-0.0078125,-0.00787402,66.6051,0
     0,0,0,0,0,0,0,0,0,344.281,-1077.06,-0.0078125,-0.00787402,66.6251,0
     0,0,0,0,0,0,0,0,0,403.161,-1170.21,-0.0078125,-0.00787402,66.6558,0
     0,0,0,0,0,0,0,0,0,348.171,-1065.13,-0.0078125,-0.00787402,66.6657,0
     0,0,0,0,0,0,0,0,0,400.577,-1199.11,-0.0078125,-0.00787402,66.6857,0
     0,0,0,0,0,0,0,0,0,385.03,-1006.29,-0.0078125,-0.00787402,66.7059,0
     0,0,0,0,0,0,0,0,0,406.967,-1048.77,-0.0078125,-0.00787402,66.7259,0
     0,0,0,0,0,0,0,0,0,351.05,-1164.62,-0.0078125,-0.00787402,66.7464,0
     0,0,0,0,0,0,0,0,0,390.114,-1053.91,-0.0078125,-0.00787402,66.7661,0
     0,0,0,0,0,0,0,0,0,351.019,-1004.02,-0.0078125,-0.00787402,66.786,0
     0,0,0,0,0,0,0,0,0,465.354,-1124.1,-0.0078125,-0.00787402,66.8051,0
     0,0,0,0,0,0,0,0,0,441.969,-1271.54,-0.0078125,-0.00787402,66.8253,0
     0,0,0,0,0,0,0,0,0,459.897,-939.496,-0.0078125,-0.00787402,66.8453,0
     0,0,0,0,0,0,0,0,0,343.466,-1214.4,-0.0078125,-0.00787402,66.8655,0
     0,0,0,0,0,0,0,0,0,479.835,-1211.9,-0.0078125,-0.00787402,66.887,0
     0,0,0,0,0,0,0,0,0,421.87,-1118.13,-0.0078125,-0.00787402,66.9056,0
     0,0,0,0,0,0,0,0,0,390.45,-1211.31,-0.0078125,-0.00787402,66.9337,0
     0,0,0,0,0,0,0,0,0,442.605,-1235.71,-0.0078125,-0.00787402,66.9454,0
     0,0,0,0,0,0,0,0,0,469.384,-878.387,-0.0078125,-0.00787402,66.9657,0
     0,0,0,0,0,0,0,0,0,425.414,-986.826,-0.0078125,-0.00787402,66.9855,0
     0,0,0,0,0,0,0,0,0,385.008,-1048.55,-0.0078125,-0.00787402,67.0058,0
     0,0,0,0,0,0,0,0,0,399.05,-1245.95,-0.0078125,-0.00787402,67.0252,0
     0,0,0,0,0,0,0,0,0,425.641,-873.706,-0.0078125,-0.00787402,67.0452,0
     0,0,0,0,0,0,0,0,0,427.405,-1125.18,-0.0078125,-0.00787402,67.0659,0
     0,0,0,0,0,0,0,0,0,437.905,-1147.58,-0.0078125,-0.00787402,67.0872,0
     0,0,0,0,0,0,0,0,0,466.973,-1333.6,-0.0078125,-0.00787402,67.1202,0
     0,0,0,0,0,0,0,0,0,483.77,-942.774,-0.0078125,-0.00787402,67.1272,0
     0,0,0,0,0,0,0,0,0,455.187,-1014.66,-0.0078125,-0.00787402,67.1452,0
     0,0,0,0,0,0,0,0,0,407.266,-1090.45,-0.0078125,-0.00787402,67.1655,0
     0,0,0,0,0,0,0,0,0,451.651,-1025.8,-0.0078125,-0.00787402,67.1861,0
     0,0,0,0,0,0,0,0,0,389.014,-781.555,-0.0078125,-0.00787402,67.206,0
     0,0,0,0,0,0,0,0,0,446.17,-923.617,-0.0078125,-0.00787402,67.2259,0
     0,0,0,0,0,0,0,0,0,405.482,-1177.3,-0.0078125,-0.00787402,67.2459,0
     0,0,0,0,0,0,0,0,0,427.826,-1201.85,-0.0078125,-0.00787402,67.2661,0
     0,0,0,0,0,0,0,0,0,555.602,-1041.02,-0.0078125,-0.00787402,67.286,0
     0,0,0,0,0,0,0,0,0,428.651,-1116.94,-0.0078125,-0.00787402,67.3054,0
     0,0,0,0,0,0,0,0,0,382.914,-1189.27,-0.0078125,-0.00787402,67.3253,0
     0,0,0,0,0,0,0,0,0,425.514,-1233.35,-0.0078125,-0.00787402,67.3454,0
     0,0,0,0,0,0,0,0,0,398.454,-1028.44,-0.0078125,-0.00787402,67.3657,0
     0,0,0,0,0,0,0,0,0,371.948,-920.514,-0.0078125,-0.00787402,67.3857,0
     0,0,0,0,0,0,0,0,0,419.895,-1145.61,-0.0078125,-0.00787402,67.4066,0
     0,0,0,0,0,0,0,0,0,330.95,-1021.09,-0.0078125,-0.00787402,67.4259,0
     0,0,0,0,0,0,0,0,0,395.554,-1098,-0.0078125,-0.00787402,67.4503,0
     0,0,0,0,0,0,0,0,0,363.326,-1243.78,-0.0078125,-0.00787402,67.4669,0
     0,0,0,0,0,0,0,0,0,370.982,-1147.78,-0.0078125,-0.00787402,67.4881,0
     0,0,0,0,0,0,0,0,0,379.507,-1034.29,-0.0078125,-0.00787402,67.506,0
     0,0,0,0,0,0,0,0,0,389.219,-1008.01,-0.0078125,-0.00787402,67.5252,0
     0,0,0,0,0,0,0,0,0,400.449,-1121.2,-0.0078125,-0.00787402,67.5452,0
     0,0,0,0,0,0,0,0,0,383.083,-848.428,-0.0078125,-0.00787402,67.5652,0
     0,0,0,0,0,0,0,0,0,421.834,-1018.38,-0.0078125,-0.00787402,67.5856,0
     0,0,0,0,0,0,0,0,0,337.171,-1169.45,-0.0078125,-0.00787402,67.6058,0
     0,0,0,0,0,0,0,0,0,383.208,-1131.99,-0.0078125,-0.00787402,67.6268,0
     0,0,0,0,0,0,0,0,0,338.495,-1013.33,-0.0078125,-0.00787402,67.646,0
     0,0,0,0,0,0,0,0,0,341.863,-1180.01,-0.0078125,-0.00787402,67.6652,0
     0,0,0,0,0,0,0,0,0,354.736,-1323.54,-0.0078125,-0.00787402,67.6857,0
     0,0,0,0,0,0,0,0,0,321.471,-1321.44,-0.0078125,-0.00787402,67.7067,0
     0,0,0,0,0,0,0,0,0,322.077,-1115.7,-0.0078125,-0.00787402,67.7268,0
     0,0,0,0,0,0,0,0,0,338.175,-1187.3,-0.0078125,-0.00787402,67.7455,0
     0,0,0,0,0,0,0,0,0,354.321,-997.755,-0.0078125,-0.00787402,67.7655,0
     0,0,0,0,0,0,0,0,0,373.608,-1260.08,-0.0078125,-0.00787402,67.7855,0
     0,0,0,0,0,0,0,0,0,345.483,-1203.66,-0.0078125,-0.00787402,67.8052,0
     0,0,0,0,0,0,0,0,0,338.96,-984.397,-0.0078125,-0.00787402,67.8258,0
     0,0,0,0,0,0,0,0,0,362.878,-1055.97,-0.0078125,-0.00787402,67.8454,0
     0,0,0,0,0,0,0,0,0,367.067,-1173.09,-0.0078125,-0.00787402,67.8661,0
     0,0,0,0,0,0,0,0,0,325.908,-931.966,-0.0078125,-0.00787402,67.9015,0
     0,0,0,0,0,0,0,0,0,357.769,-1203.66,-0.0078125,-0.00787402,67.9073,0
     0,0,0,0,0,0,0,0,0,366.724,-1228.05,-0.0078125,-0.00787402,67.9282,0
     0,0,0,0,0,0,0,0,0,324.16,-1165.09,-0.0078125,-0.00787402,67.9463,0
     0,0,0,0,0,0,0,0,0,402.39,-1078.87,-0.0078125,-0.00787402,67.9654,0
     0,0,0,0,0,0,0,0,0,340.716,-1301.74,-0.0078125,-0.00787402,68.0004,0
     0,0,0,0,0,0,0,0,0,310.034,-1201.63,-0.0078125,-0.00787402,68.0062,0
     0,0,0,0,0,0,0,0,0,387.484,-1092.78,-0.0078125,-0.00787402,68.0259,0
     0,0,0,0,0,0,0,0,0,333.667,-1211.68,-0.0078125,-0.00787402,68.0553,0
     0,0,0,0,0,0,0,0,0,383.848,-1189.34,-0.0078125,-0.00787402,68.066,0
     0,0,0,0,0,0,0,0,0,447.698,-1309.67,-0.0078125,-0.00787402,68.0862,0
     0,0,0,0,0,0,0,0,0,415.507,-1250.16,-0.0078125,-0.00787402,68.1053,0
     0,0,0,0,0,0,0,0,0,410.585,-1191.19,-0.0078125,-0.00787402,68.1264,0
     0,0,0,0,0,0,0,0,0,440.713,-1197.25,-0.0078125,-0.00787402,68.1463,0
     0,0,0,0,0,0,0,0,0,450.207,-976.419,-0.0078125,-0.00787402,68.1654,0
     0,0,0,0,0,0,0,0,0,496.13,-1168.36,-0.0078125,-0.00787402,68.1855,0
     0,0,0,0,0,0,0,0,0,478.389,-1249.22,-0.0078125,-0.00787402,68.2055,0
     0,0,0,0,0,0,0,0,0,504.452,-934.23,-0.0078125,-0.00787402,68.2255,0
     0,0,0,0,0,0,0,0,0,569.444,-1146.39,-0.0078125,-0.00787402,68.2475,0
     0,0,0,0,0,0,0,0,0,425.885,-1142.92,-0.0078125,-0.00787402,68.2666,0
     0,0,0,0,0,0,0,0,0,535.174,-1182.38,-0.0078125,-0.00787402,68.2856,0
     0,0,0,0,0,0,0,0,0,518.041,-1195.74,-0.0078125,-0.00787402,68.3072,0
     0,0,0,0,0,0,0,0,0,450.035,-1329.79,-0.0078125,-0.00787402,68.3263,0
     0,0,0,0,0,0,0,0,0,501.115,-877.693,-0.0078125,-0.00787402,68.3453,0
     0,0,0,0,0,0,0,0,0,479.651,-1299.46,-0.0078125,-0.00787402,68.3676,0
     0,0,0,0,0,0,0,0,0,472.11,-1028.07,-0.0078125,-0.00787402,68.3856,0
     0,0,0,0,0,0,0,0,0,422.431,-1143.51,-0.0078125,-0.00787402,68.4055,0
     0,0,0,0,0,0,0,0,0,444.583,-1148.3,-0.0078125,-0.00787402,68.4255,0
     0,0,0,0,0,0,0,0,0,402.325,-1171.1,-0.0078125,-0.00787402,68.4459,0
     0,0,0,0,0,0,0,0,0,476.349,-1204.09,-0.0078125,-0.00787402,68.4657,0
     0,0,0,0,0,0,0,0,0,375.354,-1153.2,-0.0078125,-0.00787402,68.4864,0
     0,0,0,0,0,0,0,0,0,489.464,-898.109,-0.0078125,-0.00787402,68.505,0
     0,0,0,0,0,0,0,0,0,433.642,-1041.5,-0.0078125,-0.00787402,68.5253,0
     0,0,0,0,0,0,0,0,0,368.888,-1142.27,-0.0078125,-0.00787402,68.5456,0
     0,0,0,0,0,0,0,0,0,440.17,-976.562,-0.0078125,-0.00787402,68.5666,0
     0,0,0,0,0,0,0,0,0,383.032,-894.694,-0.0078125,-0.00787402,68.586,0
     0,0,0,0,0,0,0,0,0,410.391,-896.74,-0.0078125,-0.00787402,68.6059,0
     0,0,0,0,0,0,0,0,0,449.681,-1170.55,-0.0078125,-0.00787402,68.6264,0
     0,0,0,0,0,0,0,0,0,475.805,-1081.72,-0.0078125,-0.00787402,68.646,0
     0,0,0,0,0,0,0,0,0,459.116,-1101.2,-0.0078125,-0.00787402,68.6662,0
     0,0,0,0,0,0,0,0,0,402.18,-1051.41,-0.0078125,-0.00787402,68.6861,0
     0,0,0,0,0,0,0,0,0,486.819,-1102.11,-0.0078125,-0.00787402,68.706,0
     0,0,0,0,0,0,0,0,0,393.879,-1185.11,-0.0078125,-0.00787402,68.7255,0
     0,0,0,0,0,0,0,0,0,428.899,-1047.07,-0.0078125,-0.00787402,68.7459,0
     0,0,0,0,0,0,0,0,0,454.504,-951.701,-0.0078125,-0.00787402,68.7655,0
     0,0,0,0,0,0,0,0,0,474.744,-1030.34,-0.0078125,-0.00787402,68.7851,0
     0,0,0,0,0,0,0,0,0,412.006,-998.801,-0.0078125,-0.00787402,68.8056,0
     0,0,0,0,0,0,0,0,0,443.066,-959.923,-0.0078125,-0.00787402,68.8258,0
     0,0,0,0,0,0,0,0,0,397.804,-1046.24,-0.0078125,-0.00787402,68.8453,0
     0,0,0,0,0,0,0,0,0,448.863,-1319.26,-0.0078125,-0.00787402,68.8654,0
     0,0,0,0,0,0,0,0,0,438.866,-1117.69,-0.0078125,-0.00787402,68.8859,0
     0,0,0,0,0,0,0,0,0,427.177,-1028.7,-0.0078125,-0.00787402,68.9055,0
     0,0,0,0,0,0,0,0,0,408.973,-1235.79,-0.0078125,-0.00787402,68.9255,0
     0,0,0,0,0,0,0,0,0,454.225,-1141.88,-0.0078125,-0.00787402,68.9456,0
     0,0,0,0,0,0,0,0,0,418.13,-1042.92,-0.0078125,-0.00787402,68.9653,0
     0,0,0,0,0,0,0,0,0,478.103,-854.628,-0.0078125,-0.00787402,68.9857,0
     0,0,0,0,0,0,0,0,0,454.091,-1137.79,-0.0078125,-0.00787402,69.0058,0
     0,0,0,0,0,0,0,0,0,498.728,-1051.41,-0.0078125,-0.00787402,69.0255,0
     0,0,0,0,0,0,0,0,0,522.071,-1117.32,-0.0078125,-0.00787402,69.0453,0
     0,0,0,0,0,0,0,0,0,469.197,-1162.93,-0.0078125,-0.00787402,69.0651,0
     0,0,0,0,0,0,0,0,0,452.059,-1263.26,-0.0078125,-0.00787402,69.0854,0
     0,0,0,0,0,0,0,0,0,376.06,-1053.07,-0.0078125,-0.00787402,69.1057,0
     0,0,0,0,0,0,0,0,0,772.32,-1026.01,-0.0078125,-0.00787402,69.126,0
     0,0,0,0,0,0,0,0,0,337.707,-1023.38,-0.0078125,-0.00787402,69.1452,0
     0,0,0,0,0,0,0,0,0,485.708,-1135.91,-0.0078125,-0.00787402,69.1652,0
     0,0,0,0,0,0,0,0,0,369.87,-1108.65,-0.0078125,-0.00787402,69.1851,0
     0,0,0,0,0,0,0,0,0,431.751,-1110.93,-0.0078125,-0.00787402,69.2053,0
     0,0,0,0,0,0,0,0,0,444.998,-1247.82,-0.0078125,-0.00787402,69.2254,0
     0,0,0,0,0,0,0,0,0,553.649,-985.076,-0.0078125,-0.00787402,69.2457,0
     0,0,0,0,0,0,0,0,0,425.333,-1107.91,-0.0078125,-0.00787402,69.2657,0
     0,0,0,0,0,0,0,0,0,474.89,-740.001,-0.0078125,-0.00787402,69.2857,0
     0,0,0,0,0,0,0,0,0,404.016,-1254.23,-0.0078125,-0.00787402,69.3058,0
     0,0,0,0,0,0,0,0,0,491.509,-888.139,-0.0078125,-0.00787402,69.3256,0
     0,0,0,0,0,0,0,0,0,457.875,-973.094,-0.0078125,-0.00787402,69.3459,0
     0,0,0,0,0,0,0,0,0,406.454,-1054.63,-0.0078125,-0.00787402,69.3656,0
     0,0,0,0,0,0,0,0,0,424.349,-1136.56,-0.0078125,-0.00787402,69.3855,0
     0,0,0,0,0,0,0,0,0,429.212,-883.861,-0.0078125,-0.00787402,69.4059,0
     0,0,0,0,0,0,0,0,0,452.468,-1151.74,-0.0078125,-0.00787402,69.4253,0
     0,0,0,0,0,0,0,0,0,442.87,-1124.42,-0.0078125,-0.00787402,69.4454,0
     0,0,0,0,0,0,0,0,0,425.985,-1184.27,-0.0078125,-0.00787402,69.4653,0
     0,0,0,0,0,0,0,0,0,420.751,-1101.62,-0.0078125,-0.00787402,69.4854,0
     0,0,0,0,0,0,0,0,0,312.3,-1253.53,-0.0078125,-0.00787402,69.5059,0
     0,0,0,0,0,0,0,0,0,397.472,-885.661,-0.0078125,-0.00787402,69.5253,0
     0,0,0,0,0,0,0,0,0,324.128,-1479.18,-0.0078125,-0.00787402,69.5451,0
     0,0,0,0,0,0,0,0,0,292.791,-1261.51,-0.0078125,-0.00787402,69.5652,0
     0,0,0,0,0,0,0,0,0,325.055,-1175.92,-0.0078125,-0.00787402,69.5852,0
     0,0,0,0,0,0,0,0,0,325.145,-1098.36,-0.0078125,-0.00787402,69.6056,0
     0,0,0,0,0,0,0,0,0,252.742,-1045.59,-0.0078125,-0.00787402,69.6257,0
     0,0,0,0,0,0,0,0,0,240.868,-893.975,-0.0078125,-0.00787402,69.6463,0
     0,0,0,0,0,0,0,0,0,319.775,-781.708,-0.0078125,-0.00787402,69.6653,0
     0,0,0,0,0,0,0,0,0,380.59,-668.74,-0.0078125,-0.00787402,69.6856,0
     0,0,0,0,0,0,0,0,0,424.674,-644.351,-0.0078125,-0.00787402,69.7063,0
     0,0,0,0,0,0,0,0,0,506.727,-644.081,-0.0078125,-0.00787402,69.7253,0
     0,0,0,0,0,0,0,0,0,577.384,-540.599,-0.0078125,-0.00787402,69.7457,0
     0,0,0,0,0,0,0,0,0,542.697,-543.818,-0.0078125,-0.00787402,69.7658,0
     0,0,0,0,0,0,0,0,0,544.262,-538.793,-0.0078125,-0.00787402,69.7866,0
     0,0,0,0,0,0,0,0,0,464.177,-473.406,-0.0078125,-0.00787402,69.8059,0
     0,0,0,0,0,0,0,0,0,384.106,-459.569,-0.0078125,-0.00787402,69.8259,0
     0,0,0,0,0,0,0,0,0,477.179,-409.609,-0.0078125,-0.00787402,69.8451,0
     0,0,0,0,0,0,0,0,0,448.823,-343,-0.0078125,-0.00787402,69.8674,0
     0,0,0,0,0,0,0,0,0,422.538,-369.864,-0.0078125,-0.00787402,69.8886,0
     0,0,0,0,0,0,0,0,0,415.196,-451.651,-0.0078125,-0.00787402,69.9055,0
     0,0,0,0,0,0,0,0,0,389.173,-373.218,-0.0078125,-0.00787402,69.9253,0
     0,0,0,0,0,0,0,0,0,381.876,-410.813,-0.0078125,-0.00787402,69.9455,0
     0,0,0,0,0,0,0,0,0,399.632,-342.636,-0.0078125,-0.00787402,69.9657,0
     0,0,0,0,0,0,0,0,0,362.503,-366.441,-0.0078125,-0.00787402,69.986,0
     0,0,0,0,0,0,0,0,0,327.842,-327.643,-0.0078125,-0.00787402,70.0062,0
     0,0,0,0,0,0,0,0,0,313.612,-359.538,-0.0078125,-0.00787402,70.0259,0
     0,0,0,0,0,0,0,0,0,340.287,-326.942,-0.0078125,-0.00787402,70.0453,0
     0,0,0,0,0,0,0,0,0,312.832,-245.185,-0.0078125,-0.00787402,70.0656,0
     0,0,0,0,0,0,0,0,0,287.332,-317.753,-0.0078125,-0.00787402,70.0858,0
     0,0,0,0,0,0,0,0,0,290.368,-293.221,-0.0078125,-0.00787402,70.1056,0
     0,0,0,0,0,0,0,0,0,260.563,-280.812,-0.0078125,-0.00787402,70.1254,0
     0,0,0,0,0,0,0,0,0,238.217,-256.591,-0.0078125,-0.00787402,70.1461,0
     0,0,0,0,0,0,0,0,0,232.175,-266.791,-0.0078125,-0.00787402,70.1661,0
     0,0,0,0,0,0,0,0,0,234.684,-227.928,-0.0078125,-0.00787402,70.1861,0
     0,0,0,0,0,0,0,0,0,199.661,-213.301,-0.0078125,-0.00787402,70.2062,0
     0,0,0,0,0,0,0,0,0,172.843,-191.049,-0.0078125,-0.00787402,70.2536,0
     0,0,0,0,0,0,0,0,0,175.585,-159.338,-0.0078125,-0.00787402,70.2657,0
     0,0,0,0,0,0,0,0,0,165.42,-151.532,-0.0078125,-0.00787402,70.2876,0
     0,0,0,0,0,0,0,0,0,137.222,-151.221,-0.0078125,-0.00787402,70.3168,0
     0,0,0,0,0,0,0,0,0,125.578,-134.593,-0.0078125,-0.00787402,70.329,0
     0,0,0,0,0,0,0,0,0,108.463,-136.942,-0.0078125,-0.00787402,70.346,0
     0,0,0,0,0,0,0,0,0,100.312,-101.453,-0.0078125,-0.00787402,70.3656,0
     0,0,0,0,0,0,0,0,0,92.3515,-89.2965,-0.0078125,-0.00787402,70.3863,0
     0,0,0,0,0,0,0,0,0,82.1669,-85.0499,-0.0078125,-0.00787402,70.4059,0
     0,0,0,0,0,0,0,0,0,73.3713,-67.3426,-0.0078125,-0.00787402,70.4261,0
     0,0,0,0,0,0,0,0,0,63.3386,-60.0707,-0.0078125,-0.00787402,70.446,0
     0,0,0,0,0,0,0,0,0,50.0289,-48.1039,-0.0078125,-0.00787402,70.4661,0
     0,0,0,0,0,0,0,0,0,43.1978,-39.8201,-0.0078125,-0.00787402,70.4855,0
     0,0,0,0,0,0,0,0,0,21.5981,-28.3992,-0.0078125,-0.00787402,70.5201,0
     0,0,0,0,0,0,0,0,0,21.5981,-28.3992,-0.0078125,-0.00787402,70.5255,0
     0,0,0,0,0,0,0,0,0,21.5981,-28.3992,-0.0078125,-0.00787402,70.5455,0
     0,0,0,0,0,0,0,0,0,21.5981,-28.3992,-0.0078125,-0.00787402,70.5655,0
     0,0,0,0,0,0,0,0,0,21.5981,-28.3992,-0.0078125,-0.00787402,70.5856,0
     0,0,0,0,0,0,0,0,0,0,0,-0.0078125,-0.00787402,70.6055,0
     0,0,0,0,0,0,0,0,0,-9.62475,3.88442,-0.0078125,-0.00787402,70.6262,0
     0,0,0,0,0,0,0,0,0,-21.5986,7.79869,-0.0078125,-0.00787402,70.6462,0
     0,0,0,0,0,0,0,0,0,-21.5986,15.8514,-0.0078125,-0.00787402,70.6663,0
     0,0,0,0,0,0,0,0,0,-17.0099,15.3428,-0.0078125,-0.00787402,70.6857,0
     0,0,0,0,0,0,0,0,0,-17.0099,14.0998,-0.0078125,-0.00787402,70.7118,0
     0,0,0,0,0,0,0,0,0,-13.0092,14.0998,-0.0078125,-0.00787402,70.7262,0
     0,0,0,0,0,0,0,0,0,-11.9666,11.8804,-0.0078125,-0.00787402,70.7636,0
     0,0,0,0,0,0,0,0,0,-11.9666,11.8804,-0.0078125,-0.00787402,70.7818,0
     0,0,0,0,0,0,0,0,0,-11.9666,11.8804,-0.0078125,-0.00787402,70.7872,0
     0,0,0,0,0,0,0,0,0,-11.9666,11.8804,-0.0078125,-0.00787402,70.8057,0
     0,0,0,0,0,0,0,0,0,-11.9666,11.8804,-0.0078125,-0.00787402,70.8263,0
     0,0,0,0,0,0,0,0,0,-11.9666,11.8804,-0.0078125,-0.00787402,70.8453,0
     0,0,0,0,0,0,0,0,0,-11.9666,11.8804,-0.0078125,-0.00787402,70.8652,0
     0,0,0,0,0,0,0,0,0,-11.9666,11.8804,-0.0078125,-0.00787402,70.8861,0
     0,0,0,0,0,0,0,0,0,-11.9666,11.8804,-0.0078125,-0.00787402,70.9056,0
     0,0,0,0,0,0,0,0,0,-11.9666,11.8804,-0.0078125,-0.00787402,70.9259,0
     0,0,0,0,0,0,0,0,0,-11.9666,11.8804,-0.0078125,-0.00787402,70.9457,0
     0,0,0,0,0,0,0,0,0,-11.9666,11.8804,-0.0078125,-0.00787402,70.9659,0
     0,0,0,0,0,0,0,0,0,-11.9666,11.8804,-0.0078125,-0.00787402,70.9861,0
     0,0,0,0,0,0,0,0,0,-11.9666,11.8804,-0.0078125,-0.00787402,71.006,0
     0,0,0,0,0,0,0,0,0,-11.9666,11.8804,-0.0078125,-0.00787402,71.0259,0
     0,0,0,0,0,0,0,0,0,-11.9666,11.8804,-0.0078125,-0.00787402,71.0462,0
     0,0,0,0,0,0,0,0,0,-11.9666,11.8804,-0.0078125,-0.00787402,71.066,0
     0,0,0,0,0,0,0,0,0,-11.9666,11.8804,-0.0078125,-0.00787402,71.0862,0
     0,0,0,0,0,0,0,0,0,-11.9666,11.8804,-0.0078125,-0.00787402,71.1058,0
     0,0,0,0,0,0,0,0,0,-11.9666,11.8804,-0.0078125,-0.00787402,71.1283,0
     0,0,0,0,0,0,0,0,0,0,11.8804,-0.0078125,-0.00787402,71.1463,0
     0,0,0,0,0,0,0,0,0,0,0,-0.0078125,-0.00787402,71.1705,0
     0,0,0,0,0,0,0,0,0,0,0,-0.0078125,-0.00787402,71.1963,0
     0,0,0,0,0,0,0,0,0,0,0,-0.0078125,-0.00787402,71.2055,0
     0,0,0,0,0,0,0,0,0,0,0,-0.0078125,-0.00787402,71.2254,0
     0,0,0,0,0,0,0,0,0,0,0,-0.0078125,-0.00787402,71.2457,0
     0,0,0,0,0,0,0,0,0,0,0,-0.0078125,-0.00787402,71.266,0
     0,0,0,0,0,0,0,0,0,0,0,-0.0078125,-0.00787402,71.286,0
     0,0,0,0,0,0,0,0,0,0,0,-0.0078125,-0.00787402,71.3062,0
     0,0,0,0,0,0,0,0,0,0,0,-0.0078125,-0.00787402,71.3255,0
     0,0,0,0,0,0,0,0,0,0,0,-0.0078125,-0.00787402,71.3454,0
     0,0,0,0,0,0,0,0,0,0,0,-0.0078125,-0.00787402,71.3653,0
     0,0,0,0,0,0,0,0,0,0,0,-0.0078125,-0.00787402,71.3853,0
     0,0,0,0,0,0,0,0,0,0,0,-0.0078125,-0.00787402,71.4055,0
     0,0,0,0,0,0,0,0,0,0,0,-0.0078125,-0.00787402,71.4259,0
     0,0,0,0,0,0,0,0,0,0,0,-0.0078125,-0.00787402,71.446,0
     0,0,0,0,0,0,0,0,0,0,0,-0.0078125,-0.00787402,71.4659,0
     0,0,0,0,0,0,0,0,0,0,0,-0.0078125,-0.00787402,71.486,0
     0,0,0,0,0,0,0,0,0,0,0,-0.0078125,-0.00787402,71.5059,0
     0,0,0,0,0,0,0,0,0,0,0,-0.0078125,-0.00787402,71.526,0
     0,0,0,0,0,0,0,0,0,0,0,-0.0078125,-0.00787402,71.546,0
     0,0,0,0,0,0,0,0,0,0,0,-0.0078125,-0.00787402,71.566,0
     0,0,0,0,0,0,0,0,0,0,0,-0.0078125,-0.00787402,71.5859,0
     0,0,0,0,0,0,0,0,0,0,0,-0.0078125,-0.00787402,71.6053,0
     0,0,0,0,0,0,0,0,0,0,0,-0.0078125,-0.00787402,71.6254,0
     0,0,0,0,0,0,0,0,0,0,0,-0.0078125,-0.00787402,71.6465,0
     0,0,0,0,0,0,0,0,0,0,0,-0.0078125,-0.00787402,71.6759,0
     0,0,0,0,0,0,0,0,0,0,0,-0.0078125,-0.00787402,71.6855,0
     0,0,0,0,0,0,0,0,0,0,0,-0.0078125,-0.00787402,71.7054,0
     0,0,0,0,0,0,0,0,0,0,0,-0.0078125,-0.00787402,71.7259,0
     0,0,0,0,0,0,0,0,0,0,0,-0.0078125,-0.00787402,71.7455,0
     0,0,0,0,0,0,0,0,0,0,0,-0.0078125,-0.00787402,71.7652,0
     0,0,0,0,0,0,0,0,0,0,0,-0.0078125,-0.00787402,71.7852,0
     0,0,0,0,0,0,0,0,0,0,0,-0.0078125,-0.00787402,71.8054,0
     0,0,0,0,0,0,0,0,0,0,0,-0.0078125,-0.00787402,71.8255,0
     0,0,0,0,0,0,0,0,0,0,0,-0.0078125,-0.00787402,71.8456,0
     0,0,0,0,0,0,0,0,0,0,0,-0.0078125,-0.00787402,71.8656,0
     0,0,0,0,0,0,0,0,0,0,0,-0.0078125,-0.00787402,71.887,0
     0,0,0,0,0,0,0,0,0,0,0,-0.0078125,-0.00787402,71.9051,0
     0,0,0,0,0,0,0,0,0,0,0,-0.0078125,-0.00787402,71.9256,0
     0,0,0,0,0,0,0,0,0,0,0,-0.0078125,-0.00787402,71.9462,0
     0,0,0,0,0,0,0,0,0,0,0,-0.0078125,-0.00787402,71.966,0
     0,0,0,0,0,0,0,0,0,0,0,-0.0078125,-0.00787402,71.9973,0
     0,0,0,0,0,0,0,0,0,0,0,-0.0078125,-0.00787402,72.0058,0
     0,0,0,0,0,0,0,0,0,0,0,-0.0078125,-0.00787402,72.0258,0
     0,0,0,0,0,0,0,0,0,0,0,-0.0078125,-0.00787402,72.0459,0
     0,0,0,0,0,0,0,0,0,0,0,-0.0078125,-0.00787402,72.0658,0
     0,0,0,0,0,0,0,0,0,0,0,-0.0078125,-0.00787402,72.0863,0
     0,0,0,0,0,0,0,0,0,0,0,-0.0078125,-0.00787402,72.1053,0
     0,0,0,0,0,0,0,0,0,0,0,-0.0078125,-0.00787402,72.1254,0
     0,0,0,0,0,0,0,0,0,0,0,-0.0078125,-0.00787402,72.1462,0
     0,0,0,0,0,0,0,0,0,0,0,-0.0078125,-0.00787402,72.1654,0
     0,0,0,0,0,0,0,0,0,0,0,-0.0078125,-0.00787402,72.1855,0
     0,0,0,0,0,0,0,0,0,0,0,-0.0078125,-0.00787402,72.2063,0
     0,0,0,0,0,0,0,0,0,0,0,-0.0078125,-0.00787402,72.2255,0
     0,0,0,0,0,0,0,0,0,0,0,-0.0078125,-0.00787402,72.2454,0
     0,0,0,0,0,0,0,0,0,0,0,-0.0078125,-0.00787402,72.2663,0
     0,0,0,0,0,0,0,0,0,0,0,-0.0078125,-0.00787402,72.2855,0
     0,0,0,0,0,0,0,0,0,0,0,-0.0078125,-0.00787402,72.3059,0
     0,0,0,0,0,0,0,0,0,0,0,-0.0078125,-0.00787402,72.3257,0
     0,0,0,0,0,0,0,0,0,0,0,-0.0078125,-0.00787402,72.346,0
     0,0,0,0,0,0,0,0,0,0,0,-0.0078125,-0.00787402,72.3668,0
     0,0,0,0,0,0,0,0,0,0,0,-0.0078125,-0.00787402,72.3867,0
     0,0,0,0,0,0,0,0,0,0,0,-0.0078125,-0.00787402,72.4059,0
     0,0,0,0,0,0,0,0,0,0,0,-0.0078125,-0.00787402,72.4252,0
     0,0,0,0,0,0,0,0,0,0,0,-0.0078125,-0.00787402,72.4454,0
     0,0,0,0,0,0,0,0,0,0,0,-0.0078125,-0.00787402,72.4654,0
     0,0,0,0,0,0,0,0,0,0,0,-0.0078125,-0.00787402,72.4854,0
     0,0,0,0,0,0,0,0,0,0,0,-0.0078125,-0.00787402,72.5056,0
     0,0,0,0,0,0,0,0,0,0,0,-0.0078125,-0.00787402,72.5257,0
     0,0,0,0,0,0,0,0,0,0,0,-0.0078125,-0.00787402,72.5459,0
     0,0,0,0,0,0,0,0,0,0,0,-0.0078125,-0.00787402,72.5658,0
     0,0,0,0,0,0,0,0,0,0,0,-0.0078125,-0.00787402,72.5857,0
     0,0,0,0,0,0,0,0,0,0,0,-0.0078125,-0.00787402,72.606,0
     0,0,0,0,0,0,0,0,0,0,0,-0.0078125,-0.00787402,72.6258,0
     0,0,0,0,0,0,0,0,0,0,0,-0.0078125,-0.00787402,72.6451,0
     0,0,0,0,0,0,0,0,0,0,0,-0.0078125,-0.00787402,72.6655,0
     0,0,0,0,0,0,0,0,0,0,0,-0.0078125,-0.00787402,72.6855,0
     0,0,0,0,0,0,0,0,0,0,0,-0.0078125,-0.00787402,72.7063,0
     0,0,0,0,0,0,0,0,0,0,0,-0.0078125,-0.00787402,72.7255,0
     0,0,0,0,0,0,0,0,0,0,0,-0.0078125,-0.00787402,72.7457,0
     0,0,0,0,0,0,0,0,0,0,0,-0.0078125,-0.00787402,72.7659,0
     0,0,0,0,0,0,0,0,0,0,0,-0.0078125,-0.00787402,72.7857,0
     0,0,0,0,0,0,0,0,0,0,0,-0.0078125,-0.00787402,72.8056,0
     0,0,0,0,0,0,0,0,0,0,0,-0.0078125,-0.00787402,72.8255,0
     0,0,0,0,0,0,0,0,0,0,0,-0.0078125,-0.00787402,72.8455,0
     0,0,0,0,0,0,0,0,0,0,0,-0.0078125,-0.00787402,72.8654,0
     0,0,0,0,0,0,0,0,0,0,0,-0.0078125,-0.00787402,72.8862,0
     0,0,0,0,0,0,0,0,0,0,0,-0.0078125,-0.00787402,72.9055,0
     0,0,0,0,0,0,0,0,0,0,0,-0.0078125,-0.00787402,72.9255,0
     0,0,0,0,0,0,0,0,0,0,0,-0.0078125,-0.00787402,72.9456,0
     0,0,0,0,0,0,0,0,0,0,0,-0.0078125,-0.00787402,72.9654,0
     0,0,0,0,0,0,0,0,0,0,0,-0.0078125,-0.00787402,72.9858,0
     0,0,0,0,0,0,0,0,0,0,0,-0.0078125,-0.00787402,73.0058,0
     0,0,0,0,0,0,0,0,0,0,0,-0.0078125,-0.00787402,73.026,0
     0,0,0,0,0,0,0,0,0,0,0,-0.0078125,-0.00787402,73.0458,0
     0,0,0,0,0,0,0,0,0,0,0,-0.0078125,-0.00787402,73.0662,0
     0,0,0,0,0,0,0,0,0,0,0,-0.0078125,-0.00787402,73.0862,0
     0,0,0,0,0,0,0,0,0,0,0,-0.0078125,-0.00787402,73.1059,0
     0,0,0,0,0,0,0,0,0,0,0,-0.0078125,-0.00787402,73.1257,0
     0,0,0,0,0,0,0,0,0,0,0,-0.0078125,-0.00787402,73.1459,0
