raw_accel_x,raw_accel_y,raw_accel_zworld_accel_x,world_accel_yyaw,fused_headingx,y,z,left_encoder_rate,right_encoder_rate,left_input,right_input,fpga time,navx time
0.0230713,0.0183716,0.94928,0.002,0,-0.6,359.39,0,0,0,0,0,-0.0078125,0.0078125,1208.71,1238112
0.017395,0.0206909,0.946472,-0.002,0.002,0,0,0,0,0,0,0,-0.0078125,0.0078125,1208.73,1238127
0.0172729,0.0193481,0.952759,-0.003,0.001,0,0,0,0,0,0,0,-0.0078125,0.0078125,1208.75,1238142
0.0199585,0.0203247,0.939697,0,0.002,0,0,0,0,0,0,0,-0.0078125,0.0078125,1208.76,1238157
0.022583,0.0158691,0.938904,0.002,-0.002,0,0,0,0,0,0,0,-0.0078125,0.0078125,1208.78,1238187
0.0216064,0.0209961,0.948059,0.001,0.002,0,0,0,0,0,0,0,-0.0078125,0.0078125,1208.81,1238202
0.0202026,0.0205688,0.951965,0,0.002,0,0,0,0,0,0,0,-0.0078125,0.0078125,1208.83,1238217
0.0214233,0.0171509,0.953308,0,-0.001,0,0,0,0,0,0,0,-0.0078125,0.0078125,1208.85,1238247
0.0216675,0.0164185,0.940674,0.001,-0.001,0,0,0,0,0,0,0,-0.0078125,0.0078125,1208.87,1238262
0.0209351,0.0160522,0.950256,0,-0.002,0,0,0,0,0,0,0,-0.0078125,0.0078125,1208.89,1238277
0.022522,0.0205688,0.952209,0.002,0.002,0,0,0,0,0,0,0,-0.0078125,0.0078125,1208.91,1238307
0.0200806,0.0197144,0.954956,0,0.001,0,0,0,0,0,0,0,-0.0078125,0.0078125,1208.93,1238322
0.0219727,0.0178223,0.948792,0.001,0,0,0,0,0,0,0,0,-0.0078125,0.0078125,1208.95,1238337
0.0198364,0.0205688,0.944397,0,0.002,0,0,0,0,0,0,0,-0.0078125,0.0078125,1208.97,1238366
0.0224609,0.0181885,0.951233,0.001,0,0,0,0,0,0,0,0,-0.0078125,0.0078125,1208.98,1238381
0.0189209,0.0184326,0.945435,-0.001,0,0,0,0,0,0,0,0,-0.0078125,0.0078125,1209.01,1238396
0.017395,0.0158081,0.949951,-0.003,-0.002,0,0,0,0,0,0,0,-0.0078125,0.0078125,1209.03,1238426
0.0194092,0.017395,0.944702,0,0,0,0,0,0,0,0,0,-0.0078125,0.0078125,1209.05,1238442
0.0197754,0.0189819,0.952148,0,0,0,0,0,0,0,0,0,-0.0078125,0.0078125,1209.09,1238486
0.0234985,0.015686,0.94519,0.003,-0.002,0,0,0,0,0,0,0,-0.0078125,0.0078125,1209.1,1238501
0.0234985,0.015686,0.94519,0.003,-0.002,0,0,0,0,0,0,0,-0.0078125,0.0078125,1209.11,1238501
0.022644,0.020874,0.950012,0.002,0.002,0,0,0,0,0,0,0,-0.0078125,0.0078125,1209.13,1238516
0.0209351,0.0175171,0.94574,0,0,0,359.99,0,0,0,0,0,-0.0078125,0.0078125,1209.15,1238546
0.0231323,0.0155029,0.947388,0.002,-0.002,0,359.99,0,0,0,0,0,-0.0078125,0.0078125,1209.17,1238561
0.0214844,0.0189209,0.95166,0,0,0,359.99,0,0,0,0,0,-0.0078125,0.0078125,1209.19,1238576
0.0178833,0.0171509,0.952698,-0.002,-0.001,0,359.99,0,0,0,0,0,-0.0078125,0.0078125,1209.2,1238606
0.0202637,0.0184937,0.946472,0,0,0,359.99,0,0,0,0,0,-0.0078125,0.0078125,1209.22,1238621
0.019165,0.0177002,0.948669,-0.001,0,0,359.99,0,0,0,0,0,-0.0078125,0.0078125,1209.24,1238636
0.0206909,0.0187378,0.949402,0,0,0,359.99,0,0,0,0,0,-0.0078125,0.0078125,1209.29,1238681
0.0184326,0.0194702,0.94104,-0.001,0.001,0,359.99,0,0,0,0,0,-0.0078125,0.0078125,1209.31,1238696
0.0200195,0.0147705,0.935486,0,-0.003,0,359.99,0,0,0,0,0,-0.0078125,0.0078125,1209.33,1238726
0.0184937,0.0180664,0.954895,-0.002,0,0,359.99,0,0,0,0,0,-0.0078125,0.0078125,1209.34,1238741
0.0233154,0.0185547,0.937561,0.002,0,0,359.99,0,0,0,0,0,-0.0078125,0.0078125,1209.37,1238756
0.0215454,0.0175171,0.939514,0.001,0,0,359.99,0,0,0,0,0,-0.0078125,0.0078125,1209.39,1238786
0.0178223,0.0192261,0.946716,-0.002,0.001,0,359.99,0,0,0,0,0,-0.0078125,0.0078125,1209.41,1238801
0.0211792,0.0175171,0.950317,0,0,0,359.99,0,0,0,0,0,-0.0078125,0.0078125,1209.43,1238816
0.0210571,0.017395,0.954102,0,0,0,359.99,0,0,0,0,0,-0.0078125,0.0078125,1209.45,1238846
0.0206909,0.0150146,0.954102,0,-0.003,0,359.99,0,0,0,0,0,-0.0078125,0.0078125,1209.46,1238861
0.0220337,0.0164185,0.943359,0.001,-0.001,0,359.99,0,0,0,0,0,-0.0078125,0.0078125,1209.48,1238876
0.0205688,0.0178223,0.947937,0,0,0,359.99,0,0,0,0,0,-0.0078125,0.0078125,1209.51,1238906
0.0180054,0.0192261,0.945862,-0.002,0.001,0,359.99,0,0,0,0,0,-0.0078125,0.0078125,1209.53,1238921
0.0175781,0.0189209,0.953735,-0.003,0,0,359.99,0,0,0,0,0,-0.0078125,0.0078125,1209.55,1238952
0.0239258,0.0146484,0.940125,0.003,-0.003,0,359.99,0,0,0,0,0,-0.0078125,0.0078125,1209.57,1238966
0.0177612,0.020813,0.950256,-0.002,0.002,0,359.99,0,0,0,0,0,-0.0078125,0.0078125,1209.59,1238981
0.0237427,0.0172729,0.949036,0.003,0,0,359.99,0,0,0,0,0,-0.0078125,0.0078125,1209.61,1238996
0.0202637,0.0167236,0.945068,0,-0.001,0,359.99,0,0,0,0,0,-0.0078125,0.0078125,1209.62,1239026
0.022522,0.0186157,0.954895,0.001,0,0,359.99,0,0,0,0,0,-0.0078125,0.0078125,1209.65,1239041
0.0228271,0.0227051,0.946106,0.002,0.004,0,359.99,0,0,0,0,0,-0.0078125,0.0078125,1209.67,1239056
0.0165405,0.019043,0.952209,-0.004,0,0,359.99,0,0,0,0,0,-0.0078125,0.0078125,1209.69,1239086
0.0211792,0.0195312,0.951172,0,0.001,0,359.99,0,0,0,0,0,-0.0078125,0.0078125,1209.71,1239101
0.0159302,0.0193481,0.94989,-0.004,0.001,0,359.99,0,0,0,0,0,-0.0078125,0.0078125,1209.73,1239116
0.024353,0.0161133,0.948792,0.003,-0.002,0,359.99,0,0,0,0,0,-0.0078125,0.0078125,1209.74,1239146
0.0185547,0.0197144,0.9505,-0.001,0.001,0,359.99,0,0,0,0,0,-0.0078125,0.0078125,1209.76,1239161
0.0214233,0.0172119,0.943115,0.001,0,0,359.99,0,0,0,0,0,-0.0078125,0.0078125,1209.78,1239176
0.0202637,0.0184326,0.947693,0,0,0,359.99,0,0,0,0,0,-0.0078125,0.0078125,1209.8,1239206
0.0180054,0.0212402,0.954224,-0.002,0.002,0,359.99,0,0,0,0,0,-0.0078125,0.0078125,1209.82,1239221
0.0234375,0.0178223,0.94458,0.003,0,0,359.99,0,0,0,0,0,-0.0078125,0.0078125,1209.84,1239236
0.0198975,0.0167236,0.944397,0,-0.001,0,359.99,0,0,0,0,0,-0.0078125,0.0078125,1209.86,1239266
0.0219116,0.0170898,0.949158,0.001,-0.001,0,359.99,0,0,0,0,0,-0.0078125,0.0078125,1209.88,1239281
0.0223999,0.0186768,0.942017,0.002,0,0,359.99,0,0,0,0,0,-0.0078125,0.0078125,1209.91,1239296
0.0234985,0.0187988,0.946167,0.003,0,0,359.99,0,0,0,0,0,-0.0078125,0.0078125,1209.93,1239326
0.0179443,0.0166016,0.962891,-0.002,-0.002,0,359.99,0,0,0,0,0,-0.0078125,0.0078125,1209.95,1239341
0.024292,0.0174561,0.937744,0.004,0,0,359.99,0,0,0,0,0,-0.0078125,0.0078125,1209.98,1239386
0.024292,0.0174561,0.937744,0.004,0,0,359.99,0,0,0,0,0,-0.0078125,0.0078125,1209.99,1239386
0.0197754,0.019104,0.95282,0,0,0,359.99,0,0,0,0,0,-0.0078125,0.0078125,1210,1239401
0.020813,0.0143433,0.935669,0,-0.003,0,359.99,0,0,0,0,0,-0.0078125,0.0078125,1210.03,1239416
0.020813,0.0192871,0.943604,0,0.001,0,359.99,0,0,0,0,0,-0.0078125,0.0078125,1210.05,1239446
0.0177612,0.0206299,0.959045,-0.002,0.002,0,359.99,0,0,0,0,0,-0.0078125,0.0078125,1210.07,1239461
0.0214233,0.0145264,0.937073,0.001,-0.003,0,359.99,0,0,0,0,0,-0.0078125,0.0078125,1210.08,1239476
0.015625,0.0223999,0.958252,-0.005,0.003,0,359.99,0,0,0,0,0,-0.0078125,0.0078125,1210.12,1239521
0.015625,0.0223999,0.958252,-0.005,0.003,0,359.99,0,0,0,0,0,-0.0078125,0.0078125,1210.13,1239521
0.0218506,0.0175781,0.942749,0.001,0,0,359.99,0,0,0,0,0,-0.0078125,0.0078125,1210.15,1239536
0.0167236,0.0189819,0.957764,-0.003,0,0,359.99,0,0,0,0,0,-0.0078125,0.0078125,1210.18,1239581
0.0167236,0.0189819,0.957764,-0.003,0,0,359.99,0,0,0,0,0,-0.0078125,0.0078125,1210.19,1239581
0.0211792,0.0178833,0.942566,0,0,0,359.99,0,0,0,0,0,-0.0078125,0.0078125,1210.21,1239596
0.0183716,0.0202637,0.946594,-0.002,0.001,0,359.99,0,0,0,0,0,-0.0078125,0.0078125,1210.22,1239626
0.0231934,0.0214233,0.948853,0.002,0.003,-0.01,359.98,0,0,0,0,0,-0.0078125,0.0078125,1210.24,1239641
0.0177612,0.0202637,0.946899,-0.002,0.001,0,359.99,0,0,0,0,0,-0.0078125,0.0078125,1210.26,1239656
0.0211792,0.0206299,0.946106,0,0.002,-0.01,359.98,0,0,0,0,0,-0.0078125,0.0078125,1210.28,1239686
0.0244141,0.0184326,0.943787,0.004,0,-0.01,359.98,0,0,0,0,0,-0.0078125,0.0078125,1210.31,1239701
0.0206909,0.019043,0.946289,0,0,-0.01,359.98,0,0,0,0,0,-0.0078125,0.0078125,1210.33,1239716
0.0236206,0.0200195,0.945679,0.003,0.001,-0.01,359.98,0,0,0,0,0,-0.0078125,0.0078125,1210.34,1239746
0.0171509,0.0187378,0.951294,-0.003,0,-0.01,359.98,0,0,0,0,0,-0.0078125,0.0078125,1210.36,1239761
0.020813,0.0201416,0.941467,0,0.001,-0.01,359.98,0,0,0,0,0,-0.0078125,0.0078125,1210.39,1239776
0.022644,0.0178833,0.938904,0.002,0,-0.01,359.98,0,0,0,0,0,-0.0078125,0.0078125,1210.41,1239806
0.0215454,0.0175171,0.952087,0.001,0,-0.01,359.98,0,0,0,0,0,-0.0078125,0.0078125,1210.42,1239821
0.0197754,0.0154419,0.934753,0,-0.002,-0.01,359.98,0,0,0,0,0,-0.0078125,0.0078125,1210.44,1239836
0.0200195,0.0177002,0.942017,0,0,-0.01,359.98,0,0,0,0,0,-0.0078125,0.0078125,1210.46,1239866
0.0194092,0.0186157,0.960632,-0.001,0,-0.01,359.98,0,0,0,0,0,-0.0078125,0.0078125,1210.48,1239881
0.0195312,0.0183716,0.940796,0,0,-0.01,359.98,0,0,0,0,0,-0.0078125,0.0078125,1210.51,1239896
0.022583,0.0189209,0.944702,0.002,0,-0.01,359.98,0,0,0,0,0,-0.0078125,0.0078125,1210.53,1239926
0.0196533,0.0185547,0.950562,0,0,-0.01,359.98,0,0,0,0,0,-0.0078125,0.0078125,1210.55,1239941
0.0177612,0.0202026,0.950989,-0.002,0.001,-0.01,359.98,0,0,0,0,0,-0.0078125,0.0078125,1210.57,1239971
0.0211792,0.0209961,0.954956,0,0.002,0,359.99,0,0,0,0,0,-0.0078125,0.0078125,1210.64,1240031
0.0200806,0.0172729,0.942017,0,-0.001,0,359.99,0,0,0,0,0,-0.0078125,0.0078125,1210.64,1240046
0.0189209,0.0175781,0.954346,-0.001,-0.001,0,359.99,0,0,0,0,0,-0.0078125,0.0078125,1210.67,1240061
0.0221558,0.0189819,0.942688,0.002,0,0,359.99,0,0,0,0,0,-0.0078125,0.0078125,1210.69,1240076
0.020752,0.015625,0.944092,0,-0.002,0,359.99,0,0,0,0,0,-0.0078125,0.0078125,1210.71,1240106
0.0185547,0.0197754,0.949585,-0.001,0.001,0,359.99,0,0,0,0,0,-0.0078125,0.0078125,1210.73,1240120
0.0198975,0.019104,0.955688,0,0,0,359.99,0,0,0,0,0,-0.0078125,0.0078125,1210.75,1240135
0.0217896,0.0205688,0.94928,0.001,0.002,0,359.99,0,0,0,0,0,-0.0078125,0.0078125,1210.77,1240165
0.0223999,0.0164185,0.94104,0.002,-0.001,0,359.99,0,0,0,0,0,-0.0078125,0.0078125,1210.79,1240180
0.0183105,0.022644,0.945251,-0.001,0.004,0,359.99,0,0,0,0,0,-0.0078125,0.0078125,1210.81,1240195
0.0164185,0.0164795,0.946838,-0.003,-0.001,-0.01,359.98,0,0,0,0,0,-0.0078125,0.0078125,1210.83,1240225
0.0187988,0.0205688,0.957764,-0.001,0.001,-0.01,359.98,0,0,0,0,0,-0.0078125,0.0078125,1210.85,1240240
0.0194092,0.0177612,0.946045,0,0,0,359.99,0,0,0,0,0,-0.0078125,0.0078125,1210.87,1240255
0.0212402,0.017395,0.941223,0.001,0,0,359.99,0,0,0,0,0,-0.0078125,0.0078125,1210.89,1240285
0.0177002,0.0196533,0.941589,-0.002,0.001,0,359.99,0,0,0,0,0,-0.0078125,0.0078125,1210.91,1240300
0.0220337,0.0179443,0.950684,0.001,0,0,359.99,0,0,0,0,0,-0.0078125,0.0078125,1210.93,1240315
0.0205688,0.0131836,0.958679,0,-0.005,0,359.99,0,0,0,0,0,-0.0078125,0.0078125,1210.94,1240345
0.0203247,0.0175781,0.940308,0,0,0,359.99,0,0,0,0,0,-0.0078125,0.0078125,1210.97,1240360
0.0202026,0.0183716,0.946045,0,0,0,359.99,0,0,0,0,0,-0.0078125,0.0078125,1210.99,1240391
0.0189819,0.0209351,0.950439,-0.001,0.002,0,359.99,0,0,0,0,0,-0.0078125,0.0078125,1211,1240405
0.0254517,0.0174561,0.946228,0.005,0,0,359.99,0,0,0,0,0,-0.0078125,0.0078125,1211.03,1240420
0.019104,0.0186157,0.952515,-0.001,0,0,359.99,0,0,0,0,0,-0.0078125,0.0078125,1211.05,1240451
0.0196533,0.0197144,0.949646,0,0.001,0,359.99,0,0,0,0,0,-0.0078125,0.0078125,1211.07,1240465
0.0184937,0.0206299,0.944885,-0.001,0.002,0,359.99,0,0,0,0,0,-0.0078125,0.0078125,1211.09,1240480
0.020874,0.0206909,0.950256,0,0.002,0,359.99,0,0,0,0,0,-0.0078125,0.0078125,1211.11,1240495
0.0227661,0.0171509,0.955017,0.002,-0.001,-0.01,359.98,0,0,0,0,0,-0.0078125,0.0078125,1211.12,1240525
0.017334,0.0200195,0.9422,-0.002,0.001,-0.01,359.98,0,0,0,0,0,-0.0078125,0.0078125,1211.15,1240540
0.0186768,0.0206909,0.942383,-0.001,0.002,-0.01,359.98,0,0,0,0,0,-0.0078125,0.0078125,1211.17,1240571
0.0187378,0.0181274,0.948975,-0.001,0,-0.01,359.98,0,0,0,0,0,-0.0078125,0.0078125,1211.18,1240585
0.0237427,0.0186768,0.942505,0.003,0,-0.01,359.98,0,0,0,0,0,-0.0078125,0.0078125,1211.2,1240600
0.0186157,0.0166016,0.948242,-0.001,-0.001,-0.01,359.98,0,0,0,0,0,-0.0078125,0.0078125,1211.22,1240615
0.0188599,0.0168457,0.953857,-0.001,-0.001,-0.01,359.98,0,0,0,0,0,-0.0078125,0.0078125,1211.24,1240645
0.0197754,0.0165405,0.945984,0,-0.001,-0.01,359.98,0,0,0,0,0,-0.0078125,0.0078125,1211.26,1240660
0.024231,0.017395,0.942505,0.004,0,-0.01,359.98,0,0,0,0,0,-0.0078125,0.0078125,1211.28,1240675
0.0192871,0.0172729,0.947998,0,-0.001,-0.01,359.98,0,0,0,0,0,-0.0078125,0.0078125,1211.3,1240705
0.0161133,0.0195312,0.951599,-0.004,0,-0.01,359.98,0,0,0,0,0,-0.0078125,0.0078125,1211.32,1240720
0.0212402,0.0189209,0.941406,0.001,0,-0.01,359.98,0,0,0,0,0,-0.0078125,0.0078125,1211.35,1240735
0.0211792,0.0177612,0.935913,0.001,0,-0.01,359.98,0,0,0,0,0,-0.0078125,0.0078125,1211.37,1240765
0.0255127,0.0180664,0.953247,0.005,0,-0.01,359.98,0,0,0,0,0,-0.0078125,0.0078125,1211.39,1240780
0.0159912,0.0175171,0.939941,-0.004,0,-0.01,359.98,0,0,0,0,0,-0.0078125,0.0078125,1211.41,1240795
0.0194092,0.017334,0.941528,0,-0.001,-0.01,359.98,0,0,0,0,0,-0.0078125,0.0078125,1211.43,1240825
0.0227661,0.0202026,0.955933,0.002,0.001,-0.01,359.98,0,0,0,0,0,-0.0078125,0.0078125,1211.45,1240840
0.0202637,0.0184937,0.940674,0,0,-0.01,359.98,0,0,0,0,0,-0.0078125,0.0078125,1211.47,1240855
0.0187988,0.0161133,0.943115,-0.001,-0.002,-0.01,359.98,0,0,0,0,0,-0.0078125,0.0078125,1211.49,1240885
0.020813,0.0196533,0.955017,0,0.001,-0.01,359.98,0,0,0,0,0,-0.0078125,0.0078125,1211.51,1240900
0.0189819,0.0177612,0.947144,-0.001,0,-0.01,359.98,0,0,0,0,0,-0.0078125,0.0078125,1211.53,1240930
0.0184326,0.017395,0.952881,-0.001,-0.001,-0.01,359.98,0,0,0,0,0,-0.0078125,0.0078125,1211.54,1240945
0.0227661,0.0193481,0.951599,0.002,0,-0.01,359.98,0,0,0,0,0,-0.0078125,0.0078125,1211.56,1240960
0.0221558,0.020874,0.945251,0.002,0.002,-0.01,359.98,0,0,0,0,0,-0.0078125,0.0078125,1211.58,1240975
0.019104,0.0171509,0.943787,-0.001,-0.001,-0.01,359.98,0,0,0,0,0,-0.0078125,0.0078125,1211.6,1241005
0.0213013,0.0186157,0.950317,0.001,0,-0.01,359.98,0,0,0,0,0,-0.0078125,0.0078125,1211.63,1241020
0.0179443,0.0161133,0.94574,-0.002,-0.002,-0.01,359.98,0,0,0,0,0,-0.0078125,0.0078125,1211.64,1241035
0.0172119,0.0177002,0.948486,-0.003,0,-0.01,359.98,0,0,0,0,0,-0.0078125,0.0078125,1211.67,1241065
0.0192261,0.0216675,0.952454,-0.001,0.003,-0.01,359.98,0,0,0,0,0,-0.0078125,0.0078125,1211.69,1241080
0.0218506,0.0159302,0.942566,0.001,-0.002,-0.01,359.98,0,0,0,0,0,-0.0078125,0.0078125,1211.71,1241095
0.0209351,0.0195923,0.943787,0,0.001,-0.01,359.98,0,0,0,0,0,-0.0078125,0.0078125,1211.73,1241125
0.0195923,0.0197144,0.950928,0,0.001,-0.01,359.98,0,0,0,0,0,-0.0078125,0.0078125,1211.75,1241140
0.0214844,0.0181885,0.939697,0.001,0,-0.01,359.98,0,0,0,0,0,-0.0078125,0.0078125,1211.77,1241155
0.0195923,0.0161133,0.945557,0,-0.002,-0.02,359.97,0,0,0,0,0,-0.0078125,0.0078125,1211.79,1241185
0.0192871,0.020752,0.945557,0,0.002,-0.01,359.98,0,0,0,0,0,-0.0078125,0.0078125,1211.81,1241200
0.0182495,0.0200806,0.949585,-0.001,0.001,-0.01,359.98,0,0,0,0,0,-0.0078125,0.0078125,1211.83,1241215
0.0204468,0.0214844,0.946167,0,0.003,-0.02,359.97,0,0,0,0,0,-0.0078125,0.0078125,1211.84,1241245
0.0230713,0.0171509,0.941406,0.003,-0.001,-0.01,359.98,0,0,0,0,0,-0.0078125,0.0078125,1211.86,1241260
0.0196533,0.0175781,0.952881,0,0,-0.02,359.97,0,0,0,0,0,-0.0078125,0.0078125,1211.89,1241275
0.019165,0.0217285,0.956177,-0.001,0.003,-0.02,359.97,0,0,0,0,0,-0.0078125,0.0078125,1211.91,1241305
0.0213013,0.0183105,0.946777,0.001,0,-0.02,359.97,0,0,0,0,0,-0.0078125,0.0078125,1211.93,1241320
0.0206909,0.0178833,0.945801,0,0,-0.02,359.97,0,0,0,0,0,-0.0078125,0.0078125,1211.95,1241350
0.0181885,0.0174561,0.94458,-0.002,0,-0.02,359.97,0,0,0,0,0,-0.0078125,0.0078125,1211.96,1241365
0.0202026,0.0211792,0.949707,0,0.002,-0.02,359.97,0,0,0,0,0,-0.0078125,0.0078125,1211.99,1241380
0.0211792,0.0187988,0.948608,0,0,-0.02,359.97,0,0,0,0,0,-0.0078125,0.0078125,1212,1241395
0.0206909,0.015625,0.942322,0,-0.002,-0.02,359.97,0,0,0,0,0,-0.0859375,0.0078125,1212.02,1241425
0.0209351,0.0192871,0.943787,0,0,-0.02,359.97,0,0,0,0,0,-0.195312,0.0078125,1212.05,1241440
0.0106812,0.0131226,0.949463,-0.009,-0.005,-0.02,359.97,0,0,0,0,0,-0.359375,0.0078125,1212.06,1241455
-0.0297241,-0.0500488,0.945984,-0.049,-0.068,-0.02,359.97,-3.05176e-05,-4.57764e-05,0,52.8962,0,-0.398438,0.0078125,1212.09,1241485
0.0214844,-0.190247,0.913086,0.003,-0.206,0,0,-9.15527e-05,-0.000274658,0,80.8293,-43.4005,-0.539062,0.0078125,1212.11,1241500
0.00256348,-0.242737,0.98468,-0.017,-0.257,0.04,0.04,-0.000167847,-0.000823975,0,130.352,-69.6689,-0.648438,0.0078125,1212.13,1241515
-0.223755,-0.003479,0.944519,-0.242,-0.013,0.1,0.1,-0.000442505,-0.00267029,0,237.784,-72.0523,-0.78125,0.0078125,1212.15,1241545
-0.207642,-0.166138,1.05261,-0.228,-0.176,0.19,0.19,-0.000961304,-0.00378418,0,284.986,-98.0243,-0.882812,0.0078125,1212.17,1241560
-0.142578,-0.204529,0.9021,-0.158,-0.211,0.31,0.31,-0.00175476,-0.00515747,0,412.856,-77.4863,-0.929688,0.0078125,1212.18,1241575
-0.183899,-0.209717,1.00262,-0.199,-0.209,0.7,0.7,-0.00422668,-0.0090332,0,516.529,-79.1136,-0.976562,0.0078125,1212.21,1241605
-0.168274,-0.135315,0.854736,-0.179,-0.131,0.96,0.96,-0.00588989,-0.0113831,0,630.159,-139.799,-1,-0.0944882,1212.22,1241620
-0.202698,-0.246582,0.927856,-0.214,-0.235,1.64,1.64,-0.00985718,-0.0168457,0,682.547,-145.333,-1,-0.102362,1212.25,1241650
-0.249512,-0.097229,0.860596,-0.255,-0.081,2.07,2.07,-0.0122833,-0.019928,0,837.346,-126.031,-1,-0.102362,1212.26,1241665
-0.255188,-0.0812988,1.0155,-0.257,-0.061,2.55,2.55,-0.0150452,-0.0231171,0,702.914,-112.414,-1,-0.102362,1212.29,1241680
-0.367981,-0.027771,0.982788,-0.365,0.001,3.11,3.11,-0.0182495,-0.0263367,0,856.568,-117.877,-1,-0.102362,1212.3,1241695
-0.0880127,0.0106201,1.08319,-0.077,0.028,4.4,4.4,-0.0256195,-0.0327301,0,816.293,-116.448,-1,-0.102362,1212.33,1241725
-0.155762,-0.0192871,1.06274,-0.144,0.006,5.12,5.12,-0.0295563,-0.0358887,0,871.688,-123.818,-1,-0.102362,1212.35,1241740
-0.231628,0.0422363,0.913635,-0.213,0.075,5.86,5.86,-0.0337219,-0.0389862,0,877.155,-107.685,-1,-0.102362,1212.37,1241755
-0.305542,0.015625,0.904297,-0.284,0.066,7.47,7.47,-0.0431519,-0.0449829,0,856.348,-113.971,-1,-0.165354,1212.39,1241785
-0.194092,0.0360107,0.923035,-0.167,0.074,8.33,8.33,-0.0483551,-0.0478516,0,891.782,-97.0229,-1,-0.244094,1212.4,1241800
-0.153076,0.0714111,1.00793,-0.116,0.106,9.23,9.23,-0.053772,-0.0505981,0,992.014,-75.7843,-1,-0.259843,1212.43,1241815
-0.0170898,0.127441,0.926086,0.037,0.134,13.1,13.1,-0.077179,-0.0599365,0,1200.84,-75.7843,-1,-0.259843,1212.48,1241874
-0.0170898,0.127441,0.926086,0.037,0.134,13.1,13.1,-0.077179,-0.0599365,0,1013.84,-75.7843,-1,-0.259843,1212.49,1241874
-0.0606079,0.222412,0.903564,0.02,0.235,14.15,14.15,-0.0830841,-0.0617523,0,1027.75,-75.7843,-1,-0.259843,1212.49,1241890
0.134583,0.174744,0.997986,0.202,0.136,15.22,15.22,-0.0888214,-0.0633087,0,1101.14,-75.7843,-1,-0.259843,1212.51,1241904
-0.0787964,0.233093,0.966919,0.013,0.248,16.29,16.29,-0.0944214,-0.0646057,0,1131.8,-75.7843,-1,-0.259843,1212.52,1241919
-0.0880737,0.177795,1.08582,-0.003,0.197,17.36,17.36,-0.100021,-0.0656128,0,1318.13,-8.59055,-1,-0.259843,1212.54,1241934
-0.052124,0.111633,1.01605,0.015,0.117,19.57,19.57,-0.110901,-0.0667267,0,1087.78,-8.59055,-1,-0.259843,1212.57,1241964
-0.173706,0.138977,1.02032,-0.084,0.184,20.68,20.68,-0.116333,-0.0669708,0,1126.82,-8.59055,-1,-0.259843,1212.58,1241979
-0.249634,0.0838623,0.65033,-0.181,0.166,21.82,21.82,-0.121933,-0.0669556,0,1095.89,-8.59055,-1,-0.291339,1212.6,1241994
-0.129395,0.0557251,1.03516,-0.059,0.091,24.19,24.19,-0.133682,-0.0661469,0,840.901,-8.59055,-1,-0.393701,1212.63,1242024
-0.155457,0.17865,1.13428,-0.023,0.213,25.41,25.41,-0.139664,-0.0654144,0,966.37,-8.59055,-1,-0.472441,1212.64,1242039
-0.12616,0.0722656,0.574585,-0.059,0.113,26.65,26.65,-0.145706,-0.0644684,0,1035.14,7.28328,-1,-0.543307,1212.66,1242054
-0.166382,0.201111,0.948975,-0.011,0.239,29.21,29.21,-0.15802,-0.0617981,0,1112.16,74.6052,-1,-0.559055,1212.68,1242084
-0.258606,0.210571,1.03864,-0.075,0.291,30.53,30.53,-0.164276,-0.0599518,0,957.579,169.255,-1,-0.559055,1212.7,1242099
-0.192871,0.273315,0.905762,0.023,0.312,33.26,33.26,-0.176712,-0.0552216,0,1018.43,234.601,-1,-0.559055,1212.73,1242130
-0.0457153,0.141663,0.559021,0.064,0.127,34.66,34.66,-0.182846,-0.0523834,0,985.464,226.734,-1,-0.559055,1212.75,1242144
-0.137207,0.306458,1.21979,0.115,0.291,36.11,36.11,-0.188858,-0.0492554,0,1066.38,235.997,-1,-0.559055,1212.77,1242159
-0.15332,0.191528,0.960693,0.029,0.215,37.56,37.56,-0.194763,-0.0457764,0,1092.42,178.271,-1,-0.559055,1212.79,1242174
0.0890503,0.043335,0.340515,0.107,-0.036,40.53,40.53,-0.206009,-0.0381775,0,998.602,144.458,-1,-0.559055,1212.81,1242204
-0.161255,0.155151,0.550903,0.007,0.202,43.53,43.53,-0.217041,-0.0291138,0,1042.81,308.594,-1,-0.559055,1212.84,1242234
-0.223694,0.273315,1.69495,0.09,0.284,45.08,45.08,-0.222504,-0.0239716,0,1049.81,335.892,-1,-0.559055,1212.86,1242250
0.0800781,0.256348,1.2926,0.282,0.059,48.17,48.17,-0.232635,-0.0132141,0,1069.52,308.79,-1,-0.559055,1212.89,1242279
-0.0160522,0.158203,1.05243,0.138,0.071,49.71,49.71,-0.237228,-0.00772095,0,1076.54,294.507,-1,-0.456693,1212.91,1242294
-0.132812,0.275024,1.10779,0.166,0.226,52.8,52.8,-0.245712,0.00341797,0,1114.02,234.513,-1,-0.456693,1212.93,1242324
-0.299866,0.217896,0.585266,0.016,0.345,54.36,54.36,-0.24971,0.00946045,0,1132.37,218.617,-1,-0.267717,1212.95,1242339
-0.182739,0.168152,1.12524,0.066,0.195,57.45,57.45,-0.257065,0.0218658,0,1163.6,171.77,-1,-0.133858,1212.97,1242370
-0.252319,0.0413208,0.464783,-0.084,0.217,58.96,58.96,-0.26062,0.0283813,0,1099.51,99.4555,-1,-0.00787402,1212.99,1242384
-0.0802612,0.114807,1.35004,0.088,0.068,60.47,60.47,-0.264191,0.0350952,0,1170.69,99.4555,-1,0.0078125,1213.01,1242399
0.0159912,0.0718994,1.02094,0.092,-0.023,61.94,61.94,-0.267624,0.0418243,0,1007.86,-119.192,-1,0.0078125,1213.02,1242414
-0.210388,-0.0410156,1.0531,-0.101,0.127,64.72,64.72,-0.274582,0.05513,0,1221.75,-162.41,-1,0.0078125,1213.04,1242444
-0.100586,0.0524902,1.23743,0.036,0.063,66.05,66.05,-0.278152,0.0619202,0,1099.44,-172.756,-1,0.0078125,1213.07,1242459
0.298401,-0.16626,0.573059,-0.031,-0.361,68.66,68.66,-0.285263,0.0753479,0,1199.54,-197.431,-1,0.0078125,1213.09,1242490
0.372253,0.0288696,1.80347,0.2,-0.41,69.96,69.96,-0.288712,0.0814362,0,1185.75,-189.218,-1,0.0078125,1213.1,1242504
0.0699463,-0.00482178,0.575806,0.032,-0.088,71.22,71.22,-0.291992,0.0871735,0,1200.12,-255.565,-1,0.0078125,1213.12,1242519
0.235474,0.0719604,1.65247,0.176,-0.266,73.78,73.78,-0.298355,0.0981293,0,1144.56,-285.816,-1,0.0078125,1213.15,1242549
0.0352783,0.0202026,0.892395,0.051,-0.058,74.99,74.99,-0.301315,0.103256,0,1169.04,-229.484,-1,0.0078125,1213.17,1242564
-0.0675659,0.0686035,0.617798,0.066,0.061,76.21,76.21,-0.304184,0.108383,0,1127.52,-337.941,-1,0.0078125,1213.19,1242579
0.340942,-0.057373,1.42999,0.053,-0.393,77.42,77.42,-0.306976,0.113297,0,1244.17,-167.998,-1,0.0078125,1213.21,1242594
0.0325928,0.00915527,1.19293,0.046,-0.068,79.74,79.74,-0.312363,0.121933,0,1259.21,-352.671,-1,0.0078125,1213.23,1242624
0.167725,0.0444336,0.763428,0.091,-0.182,80.88,80.88,-0.314926,0.125961,0,1227.3,-433.351,-1,0.0078125,1213.25,1242639
-0.0552368,-0.0245972,1.22089,0,0.012,82,82,-0.317429,0.129883,0,1275.43,-524.027,-1,0.0078125,1213.27,1242654
-0.213562,0.0664673,1.25098,0.076,0.183,84.16,84.16,-0.322281,0.137436,0,1193.32,-470.079,-1,0.0078125,1213.29,1242684
-0.169922,-0.0248413,0.811646,-0.017,0.145,85.21,85.21,-0.324631,0.141434,0,1215.21,-413.745,-1,0.0078125,1213.31,1242699
0.0115967,0.0856934,1.30023,0.121,-0.039,87.22,87.22,-0.324554,0.149536,0,1239.23,-553.22,-1,0.0078125,1213.33,1242729
0.0587769,0.0598145,0.659241,0.08,-0.072,88.15,88.15,-0.324326,0.153473,0,1238.08,-473.664,-1,0.0078125,1213.35,1242744
0.2005,0.00512695,0.731079,0.028,-0.218,89.08,89.08,-0.324036,0.157227,0,1130.14,-671.659,-1,0.0078125,1213.37,1242759
0.222717,0.0197144,1.70404,0.065,-0.261,89.99,89.99,-0.323685,0.160645,0,1224.59,-585.189,-1,0.0078125,1213.38,1242774
0.25946,0.0262451,1.13293,0.052,-0.283,91.67,91.67,-0.322922,0.166885,0,1200.84,-636.578,-1,0.0078125,1213.41,1242804
0.175598,-0.0925903,0.826782,-0.074,-0.187,92.49,92.49,-0.32254,0.169586,0,1271.29,-560.13,-1,0.0078125,1213.43,1242819
0.0455322,-0.186523,0.638489,-0.168,-0.047,93.29,93.29,-0.322327,0.172119,0,1219.74,-707.364,-1,0.0078125,1213.45,1242834
0.200317,-0.0592041,0.803467,-0.049,-0.208,94.83,94.83,-0.322296,0.176758,0,1246.81,-701.878,-1,-0.401575,1213.47,1242864
0.0592651,-0.0842285,0.701965,-0.066,-0.062,95.56,95.56,-0.322403,0.178787,0,1234.64,-493.913,-1,-0.653543,1213.49,1242879
-0.307495,0.371399,1.18213,0.444,0.242,96.99,96.99,-0.322662,0.182175,0,1229.94,-128.345,-1,-0.88189,1213.51,1242909
-0.0884399,0.137207,0.407532,0.159,0.062,97.73,97.73,-0.322281,0.184021,0,1099.81,331.005,-1,-1,1213.53,1242924
0.0953979,0.271484,1.46075,0.291,-0.159,98.52,98.52,-0.321579,0.185806,0,1170.48,561.75,-1,-1,1213.55,1242939
-0.0526733,0.264404,1.1214,0.291,-0.012,100.09,100.09,-0.318893,0.189697,0,1207.15,683.807,-1,-1,1213.57,1242969
-0.0245972,0.106384,0.552002,0.118,-0.005,100.92,100.92,-0.317062,0.191711,0,1082.08,783.269,-1,-1,1213.58,1242984
-0.0299683,0.334473,1.12598,0.351,-0.06,101.75,101.75,-0.314896,0.19368,0,1251.41,782.32,-1,-1,1213.61,1242999
-0.362183,0.385498,0.901672,0.467,0.244,103.48,103.48,-0.308975,0.198044,0,1163.47,845.952,-1,-1,1213.63,1243029
-0.122375,0.0809326,0.603333,0.112,0.085,104.42,104.42,-0.305313,0.200592,0,1091.35,994.678,-1,-1,1213.64,1243044
-0.0560303,0.178162,0.572632,0.188,-0.009,106.36,106.36,-0.296967,0.20607,0,1118.13,736.296,-1,-1,1213.68,1243074
-0.18457,0.371765,0.966614,0.409,0.042,107.36,107.36,-0.292191,0.208878,0,1124.35,873.248,-1,-1,1213.69,1243089
-0.0159302,0.336548,1.19366,0.317,-0.12,108.39,108.39,-0.286926,0.211624,0,1096.97,839.736,-1,-1,1213.7,1243104
-0.072876,0.0949097,0.732483,0.107,0.018,109.45,109.45,-0.281372,0.21431,0,1064.62,846.418,-1,-1,1213.72,1243119
-0.225769,0.386719,0.870422,0.432,0.053,110.52,110.52,-0.275436,0.217041,0,1130.58,974.421,-1,-1,1213.74,1243134
-0.232605,0.307129,0.978455,0.358,0.07,112.74,112.74,-0.262527,0.222733,0,1093.85,961.03,-1,-1,1213.77,1243164
-0.111511,0.152954,0.385681,0.178,0.029,113.87,113.87,-0.255539,0.225693,0,1058.43,992.802,-1,-1,1213.79,1243179
-0.127014,0.193909,0.762878,0.213,0.007,116.2,116.2,-0.240387,0.231842,0,1017.4,966.837,-1,-1,1213.81,1243209
-0.177917,0.216309,0.907471,0.251,0.031,117.37,117.37,-0.232285,0.23497,0,1045.1,965.717,-1,-1,1213.83,1243224
0.0440674,0.0629272,0.729004,0.014,-0.09,118.57,118.57,-0.224014,0.238068,0,1075.67,939.805,-1,-1,1213.85,1243239
-0.420227,0.262451,0.964233,0.412,0.196,120.98,120.98,-0.20694,0.244125,0,995.421,932.097,-1,-1,1213.87,1243269
-0.185547,0.15686,0.759155,0.206,0.05,122.22,122.22,-0.197815,0.247375,0,1085.95,994.629,-1,-1,1213.89,1243284
0.0875854,0.184265,1.0318,0.068,-0.206,123.49,123.49,-0.188492,0.250504,0,1077.99,853.534,-1,-1,1213.91,1243299
0.121643,0.222595,0.951172,0.078,-0.254,124.78,124.78,-0.179077,0.253326,0,1029.12,723.327,-1,-1,1213.93,1243314
-0.103455,0.242554,0.772461,0.224,-0.086,127.43,127.43,-0.159683,0.258255,0,995.173,1015.9,-1,-1,1213.95,1243344
-0.199524,0.179688,0.899048,0.227,0.018,128.78,128.78,-0.149551,0.26059,0,1023.17,1036.27,-1,-1,1213.97,1243359
-0.0703735,0.229126,1.1217,0.17,-0.128,131.51,131.51,-0.128815,0.264923,0,1089.86,1057.19,-1,-1,1213.98,1243389
-0.154846,0.242126,0.683838,0.253,-0.068,132.88,132.88,-0.118088,0.266861,0,1171.37,1058.93,-1,-0.566929,1214.01,1243404
0.138306,0.19574,1.14844,-0.007,-0.261,134.27,134.27,-0.107193,0.26857,0,1148.63,908.76,-0.929688,-0.314961,1214.03,1243419
0.147949,0.303955,1.01337,0.061,-0.341,135.68,135.68,-0.0962677,0.269882,0,1048.6,595.096,-0.578125,0.0390625,1214.05,1243434
-0.019165,0.381592,1.22705,0.21,-0.295,138.54,138.54,-0.0743866,0.271317,0,987.118,292.167,-0.203125,0.0390625,1214.06,1243464
0.0558472,0.0639038,0.854858,-0.041,-0.098,139.97,139.97,-0.0632782,0.271591,0,794.913,0,-0.0078125,0.0390625,1214.09,1243479
0.4552,-0.0393066,0.94342,-0.427,-0.258,142.55,142.55,-0.0417175,0.271454,0,720.046,-147.617,-0.0078125,0.0390625,1214.11,1243509
0.377808,0.224915,0.993469,-0.212,-0.415,143.56,143.56,-0.0315552,0.270782,0,572.656,-171.68,-0.0078125,0.0390625,1214.13,1243524
0.274963,0.172058,0.518799,-0.144,-0.303,144.42,144.42,-0.0216522,0.269623,0,585.463,-170.323,-0.0078125,0.0390625,1214.15,1243539
0.500061,0.244873,1.03375,-0.313,-0.482,145.99,145.99,-0.0027771,0.265656,0,634.659,-155.735,-0.0078125,0.0390625,1214.17,1243569
0.432251,0.0163574,0.496338,-0.367,-0.249,146.74,146.74,0.00596619,0.262863,0,559.707,-166.261,-0.0078125,0.0390625,1214.19,1243584
0.33313,0.123657,1.18964,-0.25,-0.276,147.43,147.43,0.0143127,0.259705,0,512.531,-130.189,-0.0078125,0.0390625,1214.21,1243599
0.253906,0.187256,1.42719,-0.152,-0.276,148.56,148.56,0.0300903,0.252502,0,466.919,-160.46,-0.0078125,0.0390625,1214.23,1243629
0.151672,0.140869,0.757446,-0.072,-0.188,149.01,149.01,0.0376892,0.248444,0,390.137,-190.927,-0.0078125,0.0390625,1214.24,1243643
0.287903,0.108887,0.808838,-0.206,-0.227,149.42,149.42,0.0450897,0.24408,0,344.673,-196.821,-0.164062,0.0390625,1214.27,1243658
0.302734,0.0845947,0.885559,-0.231,-0.206,150.08,150.08,0.0590515,0.234467,0,309.1,-208.32,-0.257812,0.0390625,1214.29,1243689
0.375122,0.108582,0.97998,-0.282,-0.257,150.32,150.32,0.0655365,0.229187,0,283.134,-175.282,-0.40625,0.0390625,1214.31,1243703
0.279419,0.0421143,0.917236,-0.229,-0.151,150.5,150.5,0.0716705,0.223618,0,348.882,-204.742,-0.492188,0.0859375,1214.33,1243718
0.0214844,-0.130554,0.935364,-0.083,0.126,150.96,150.96,0.0946503,0.201111,0,376.124,-277.312,-0.492188,0.0859375,1214.38,1243778
0.0214844,-0.130554,0.935364,-0.083,0.126,150.96,150.96,0.0946503,0.201111,0,365.764,-211.86,-0.492188,0.0859375,1214.38,1243778
0.0214844,-0.130554,0.935364,-0.083,0.126,150.96,150.96,0.0946503,0.201111,0,367.884,-241.118,-0.726562,0.117188,1214.39,1243778
0.0829468,0.0449829,0.886719,-0.05,-0.059,151.16,151.16,0.105499,0.190506,0,427.661,-271.095,-0.78125,0.117188,1214.41,1243809
0.151428,-0.136169,1.12775,-0.197,0.072,151.26,151.26,0.110703,0.185211,0,482.905,-201.221,-0.804688,0.117188,1214.42,1243823
-0.120239,-0.120728,0.919312,0.049,0.182,151.36,151.36,0.115799,0.180099,0,553.051,-221.371,-0.859375,0.117188,1214.44,1243838
-0.0701294,-0.182922,0.887634,-0.022,0.209,151.67,151.67,0.126114,0.170471,0,637.328,-312.047,-0.859375,0.117188,1214.47,1243869
-0.0866089,-0.0872192,1.02197,0.037,0.133,151.88,151.88,0.131271,0.165985,0,692.137,-336.315,-0.945312,0.015625,1214.48,1243883
-0.0955811,-0.159363,0.929749,0.011,0.197,152.11,152.11,0.136459,0.161743,0,785.546,-323.008,-0.992188,0.0078125,1214.51,1243898
0.0609131,-0.183472,1.01361,-0.136,0.144,152.67,152.67,0.146713,0.153931,0,869.868,-357.13,-1,0.0078125,1214.52,1243929
-0.141724,-0.143372,0.809753,0.063,0.197,152.97,152.97,0.151733,0.15036,0,938.042,-388.478,-1,0.0078125,1214.55,1243943
-0.117981,-0.195679,0.944153,0.022,0.23,153.61,153.61,0.161713,0.144043,0,999.051,-462.642,-1,0.0078125,1214.57,1243973
0.0767822,-0.158081,0.879883,-0.134,0.109,153.93,153.93,0.166595,0.141251,0,957.213,-387.034,-1,0.0078125,1214.59,1243989
-0.233459,-0.100952,1.24371,0.172,0.191,154.26,154.26,0.171509,0.138672,0,1021.19,-553.879,-1,0.0078125,1214.61,1244003
-0.0215454,-0.212524,0.90686,-0.066,0.198,154.6,154.6,0.176498,0.136368,0,1069,-471.642,-1,0.0078125,1214.63,1244018
-0.0678101,-0.18573,0.9245,-0.011,0.19,155.3,155.3,0.181427,0.132294,0,1153.47,-610.389,-1,0.0078125,1214.65,1244049
-0.0493164,-0.141418,1.22382,-0.007,0.138,155.66,155.66,0.181427,0.130569,0,1046.57,-595.61,-1,0.0078125,1214.67,1244063
-0.182739,-0.0901489,0.73175,0.135,0.148,156.02,156.02,0.181519,0.129044,0,1002.61,-636.578,-1,0.0078125,1214.69,1244078
0.0620728,-0.181091,1.10577,-0.121,0.126,156.8,156.8,0.181793,0.126648,0,1086.48,-522.644,-1,0.0078125,1214.71,1244109
-0.0918579,-0.0633545,1.01086,0.067,0.078,157.16,157.16,0.181839,0.125687,0,1106.62,-716.23,-1,0.0078125,1214.72,1244123
-0.10614,-0.177246,0.588989,0.035,0.193,157.53,157.53,0.181961,0.124908,0,1020.1,-712.251,-1,0.0078125,1214.75,1244138
0.121277,-0.0637207,1.04053,-0.125,-0.004,158.24,158.24,0.181595,0.123535,0,1076.37,-743.356,-0.9375,0.0078125,1214.77,1244169
-0.0289307,-0.169495,0.716248,-0.027,0.154,158.59,158.59,0.181183,0.122925,0,1099.02,-705.667,-0.4375,0.0078125,1214.79,1244183
0.360474,0.0422974,0.903259,-0.309,-0.183,159.59,159.59,0.178741,0.121185,0,873.744,-802.955,-0.195312,0.0078125,1214.84,1244229
0.332581,0.135803,1.20007,-0.243,-0.262,159.81,159.81,0.177261,0.120178,0,810.209,-745.184,-0.0078125,0.0078125,1214.85,1244243
0.368958,0.211121,0.706543,-0.259,-0.335,159.94,159.94,0.17543,0.118774,0,791.296,-796.178,-0.0078125,0.0078125,1214.86,1244258
0.349365,0.0292969,0.995911,-0.294,-0.16,160,160,0.173233,0.11702,0,741.977,-371.071,-0.0078125,0.0078125,1214.88,1244273
-0.0910034,0.144409,0.776001,0.156,-0.11,159.97,159.97,0.1689,0.112762,0,808.048,-800,-0.0078125,0.0078125,1214.9,1244303
-0.168701,0.14325,0.428467,0.219,-0.079,159.96,159.96,0.167114,0.110382,0,791.578,-693.794,-0.0078125,0.0078125,1214.92,1244318
-0.0668335,0.307312,1.99994,0.216,-0.265,159.96,159.96,0.164398,0.105011,0,694.276,-720.357,-0.0078125,0.0078125,1214.95,1244348
0.231934,0.19519,0.532471,-0.137,-0.262,159.95,159.95,0.163254,0.101837,0,711.491,-659.848,-0.0078125,0.0078125,1214.97,1244363
0.0328979,0.0131836,-0.0875244,-0.028,-0.023,159.92,159.92,0.161987,0.0984497,0,638.814,-706.339,-0.0078125,0.0078125,1214.99,1244378
0.0183716,0.146729,1.4118,0.067,-0.137,159.88,159.88,0.160004,0.091156,0,607.312,-654.772,-0.0078125,0.0078125,1215.01,1244409
0.0519409,0.148499,0.686523,0.018,-0.154,159.86,159.86,0.159195,0.0871887,0,650.618,-715.333,-0.0078125,0.0078125,1215.03,1244423
0.0216064,0.244934,0.857666,0.083,-0.231,159.82,159.82,0.158447,0.082962,0,625.039,-647.731,-0.0078125,0.0078125,1215.04,1244438
0.0142212,0.0427856,0.914062,0.021,-0.035,159.74,159.74,0.156937,0.0737915,0,632.751,-600.98,-0.0078125,0.0078125,1215.07,1244468
-0.0681763,0.209839,1.18225,0.162,-0.16,159.68,159.68,0.156281,0.0690002,0,580.434,-614.987,-0.0078125,0.0078125,1215.09,1244483
-0.0576172,0.125244,0.868347,0.115,-0.087,159.63,159.63,0.155823,0.0640411,0,579.71,-688.279,-0.0078125,0.0078125,1215.1,1244498
0.024353,0.0595093,0.96228,0.018,-0.049,159.58,159.58,0.155106,0.0536041,0,601.993,-572.41,-0.0078125,0.0078125,1215.12,1244528
0.0419312,0.154846,0.944946,0.035,-0.144,159.55,159.55,0.154785,0.048172,0,560.146,-507.112,0.023622,-0,1215.15,1244543
0.136169,0.0911255,0.933167,-0.076,-0.116,159.53,159.53,0.154449,0.0425568,0,531.576,-503.449,0.110236,-0.023622,1215.17,1244558
-0.020752,0.130798,0.877869,0.083,-0.097,159.45,159.45,0.153885,0.0309601,0,403.055,-564.956,0.204724,-0.125984,1215.19,1244588
0.260376,0.189087,0.982605,-0.157,-0.246,159.41,159.41,0.153625,0.0248566,0,202.91,-392.858,0.346457,-0.354331,1215.21,1244603
-0.022583,0.427734,0.726196,0.187,-0.373,159.33,159.33,0.153366,0.0183411,0,116.32,-162.698,0.464567,-0.503937,1215.23,1244618
-0.169983,0.984131,1.23706,0.529,-0.818,159.28,159.28,0.15361,0.0110016,0,85.7317,-99.1277,0.535433,-0.661417,1215.24,1244633
-0.0802612,0.803711,1.04297,0.369,-0.668,159.31,159.31,0.155624,-0.00689697,0,-119.747,111.002,0.645669,-0.692913,1215.27,1244663
0.0117798,0.548218,0.711365,0.186,-0.474,159.37,159.37,0.157227,-0.0171509,0,-180.637,213.511,0.732283,-0.700787,1215.28,1244678
-0.0774536,0.801514,1.03491,0.359,-0.654,159.41,159.41,0.15921,-0.0281677,0,-287.505,340.044,0.771654,-0.700787,1215.3,1244693
-0.0935669,0.728882,1.19745,0.342,-0.554,159.49,159.49,0.164047,-0.0525665,0,-392.711,338.404,0.795276,-0.700787,1215.33,1244723
0.0356445,0.663574,0.815857,0.196,-0.562,159.51,159.51,0.166992,-0.0659027,0,-407.972,397.204,0.811024,-0.700787,1215.34,1244738
-0.0142822,0.542419,0.903748,0.198,-0.414,159.51,159.51,0.173492,-0.0945282,0,-555.17,435.834,0.826772,-0.700787,1215.36,1244768
0.166199,0.470825,0.855835,0.002,-0.41,159.49,159.49,0.176971,-0.109695,0,-596.072,587.734,0.84252,-0.700787,1215.38,1244783
-0.0505371,0.46283,1.11572,0.2,-0.295,159.46,159.46,0.180603,-0.125351,0,-766.518,687.238,0.858268,-0.700787,1215.41,1244798
-0.110962,0.398254,1.08868,0.233,-0.209,159.38,159.38,0.188553,-0.157867,0,-708.592,641.108,0.866142,-0.700787,1215.43,1244828
-0.0198975,0.458862,0.860779,0.171,-0.32,159.32,159.32,0.192932,-0.174667,0,-791.515,665.402,0.866142,-0.700787,1215.45,1244843
-0.0531006,0.398926,0.958618,0.18,-0.238,159.25,159.25,0.19754,-0.191833,0,-729.262,759.417,0.874016,-0.716535,1215.47,1244858
0.131165,0.275391,1.09149,-0.038,-0.167,159.09,159.09,0.207474,-0.226944,0,-822.774,929.282,0.889764,-0.724409,1215.49,1244888
-0.0264893,0.311768,0.682007,0.127,-0.193,158.99,158.99,0.212585,-0.244858,0,-900.779,930.665,0.889764,-0.724409,1215.51,1244903
-0.0709229,0.311096,1.17029,0.16,-0.112,158.88,158.88,0.217865,-0.262985,0,-940.911,1036.59,0.929134,-0.779528,1215.53,1244918
0.164429,0.123718,1.48358,-0.132,0.022,158.65,158.65,0.228745,-0.299515,0,-1021.03,1095.71,0.929134,-0.787402,1215.55,1244948
-0.0494995,0.182373,0.594421,0.104,-0.071,158.54,158.54,0.234146,-0.317841,0,-974.801,935.41,0.937008,-0.787402,1215.57,1244963
0.215698,0.124084,0.809265,-0.165,-0.084,158.43,158.43,0.239502,-0.336273,0,-1106.32,894.374,0.937008,-0.787402,1215.59,1244978
0.280884,0.2146,1.02643,-0.197,-0.161,158.22,158.22,0.249619,-0.373749,0,-1061.01,999.45,0.937008,-0.787402,1215.61,1245008
0.29126,0.122375,0.97522,-0.24,-0.087,158.12,158.12,0.254272,-0.392776,0,-1278.28,892.658,0.937008,-0.787402,1215.63,1245023
-0.0602417,0.161072,1.26782,0.095,0.048,158.04,158.04,0.25882,-0.411835,0,-1182.87,927.644,0.937008,-0.661417,1215.65,1245038
0.190125,0.101624,0.151367,-0.141,-0.143,157.93,157.93,0.267807,-0.450394,0,-1184.48,1100.17,0.937008,-0.393701,1215.67,1245068
0.168335,0.232178,1.14709,-0.094,-0.116,157.86,157.86,0.272064,-0.469986,0,-1191.47,1031.46,0.937008,-0.11811,1215.68,1245083
-0.0228271,0.221619,1.50031,0.066,0.011,157.8,157.8,0.276306,-0.489639,0,-1169.18,699.913,0.937008,-0.00787402,1215.7,1245098
0.469543,-0.505615,1.41449,-0.658,0.477,157.6,157.6,0.283859,-0.5289,0,-1127.71,888.573,0.937008,0.0078125,1215.72,1245128
0.290344,-0.147156,0.516602,-0.334,0.091,157.37,157.37,0.286652,-0.548019,0,-1304.89,1009.34,0.937008,0.0078125,1215.74,1245143
0.102539,0.0960083,0.683228,-0.068,-0.037,157.13,157.13,0.289169,-0.567108,0,-1226.99,932.444,0.937008,0.0078125,1215.76,1245158
-0.00744629,0.114746,1.74353,0.019,0.127,156.66,156.66,0.294266,-0.605087,0,-1180.71,1077.76,0.944882,0.0078125,1215.78,1245188
-0.0581665,0.202759,0.551575,0.124,-0.088,156.48,156.48,0.296951,-0.623978,0,-1273.89,1261.59,0.952756,0.0078125,1215.8,1245203
-0.367004,0.0709839,1.22083,0.344,0.243,156.3,156.3,0.299957,-0.642761,0,-1360.73,983.961,0.968504,0.015625,1215.82,1245218
-0.322021,0.13092,1.14868,0.322,0.159,156.02,156.02,0.306747,-0.679596,0,-1221.82,980.44,0.992126,0.125,1215.84,1245248
-0.0876465,-0.0480957,0.722778,0.044,0.171,155.9,155.9,0.310516,-0.697678,0,-1217.36,552.395,1,0.234375,1215.87,1245263
0.0695801,-0.0825806,0.699402,-0.112,0.134,155.77,155.77,0.314224,-0.715561,0,-1225.26,440.393,1,0.234375,1215.89,1245278
0.0675659,-0.144531,1.01343,-0.136,0.226,155.24,155.24,0.320526,-0.750778,0,-1369.68,180.892,1,0.4375,1215.91,1245308
0.300049,-0.252136,0.419678,-0.381,0.145,154.36,154.36,0.325623,-0.78479,0,-1192.04,23.1238,1,0.546875,1215.93,1245338
0.300049,-0.252136,0.419678,-0.381,0.145,154.36,154.36,0.325623,-0.78479,0,-1301.74,-87.624,1,0.703125,1215.95,1245338
0.185974,-0.290771,1.01074,-0.294,0.29,153.19,153.19,0.329376,-0.817871,0,-1151.87,-251.607,1,0.765625,1215.97,1245368
0.206421,-0.262756,1.10211,-0.296,0.26,152.5,152.5,0.330719,-0.833893,0,-1139.21,-359.131,1,0.828125,1215.99,1245383
0.169556,-0.379089,0.863159,-0.318,0.346,151.72,151.72,0.33165,-0.849503,0,-1149.49,-381.592,1,0.914062,1216.01,1245397
0.198486,-0.378052,0.881165,-0.342,0.319,149.97,149.97,0.33197,-0.879593,0,-1132.37,-353.694,1,0.953125,1216.03,1245428
0.460022,-0.339233,0.68158,-0.552,0.123,149,149,0.331268,-0.89415,0,-1135.59,-600.114,1,0.992188,1216.05,1245442
0.334106,-0.174011,1.22449,-0.339,0.084,146.86,146.86,0.328308,-0.922791,0,-1168.16,-678.748,1,1,1216.08,1245472
0.363831,-0.191223,0.920654,-0.377,0.044,145.72,145.72,0.326126,-0.936951,0,-1135.4,-831.497,1,1,1216.09,1245488
0.365845,-0.273193,0.357239,-0.443,0.046,144.52,144.52,0.32338,-0.95105,0,-1229.11,-861.104,1,1,1216.11,1245502
0.149353,-0.304932,1.57794,-0.245,0.295,141.92,141.92,0.317001,-0.978546,0,-1052.19,-686.507,1,1,1216.13,1245532
0.336914,-0.34082,0.523376,-0.451,0.098,140.49,140.49,0.313248,-0.991852,0,-1116.69,-633.593,1,1,1216.14,1245548
0.36377,-0.19104,0.368958,-0.379,-0.058,138.95,138.95,0.308914,-1.00513,0,-1174.12,-792.33,1,1,1216.16,1245562
0.207458,-0.206665,0.706543,-0.253,0.077,137.36,137.36,0.304153,-1.01839,0,-1088.38,-816.127,1,1,1216.19,1245577
0.179199,-0.247437,0.425293,-0.276,0.084,134.02,134.02,0.293488,-1.04488,0,-1143.25,-619.502,1,1,1216.21,1245608
0.19104,-0.0770264,1.1261,-0.112,0.018,132.23,132.23,0.287689,-1.05804,0,-1121.2,-835.422,1,1,1216.23,1245622
0.0678711,-0.0635376,0.653137,-0.05,0.052,130.43,130.43,0.281784,-1.07115,0,-1143.25,-1036.86,1,1,1216.25,1245637
0.353882,-0.297668,0.701233,-0.403,-0.033,126.72,126.72,0.27005,-1.09732,0,-1036.91,-745.24,1,1,1216.27,1245668
0.209961,0.117981,1.026,0.046,-0.136,124.78,124.78,0.26387,-1.11052,0,-965.624,-1040.37,1,1,1216.29,1245682
0.174072,0.0130615,0.753113,-0.032,-0.075,122.84,122.84,0.25769,-1.12389,0,-1013.63,-819.001,1,1,1216.31,1245697
-0.237976,0.0627441,1.35651,0.255,0.317,118.91,118.91,0.245453,-1.15097,0,-806.127,-824.844,1,1,1216.33,1245728
0.0296631,0.0547485,1.01831,0.098,0.054,116.91,116.91,0.239655,-1.16425,0,-788.426,-983.091,1,1,1216.35,1245742
0.0827026,0.220886,0.895935,0.22,-0.072,114.88,114.88,0.23407,-1.17752,0,-851.1,-421.994,1,0.929688,1216.37,1245757
0.169067,0.050354,0.653992,0.024,-0.101,110.84,110.84,0.223663,-1.20435,0,-868.546,-850.557,1,0.929688,1216.39,1245788
0.069458,0.136597,1.78424,0.201,0.091,108.79,108.79,0.218689,-1.2178,0,-781.494,-896.459,1,0.929688,1216.4,1245802
0.0980835,0.198608,0.561218,0.189,-0.088,106.76,106.76,0.213974,-1.23128,0,-1050.42,-910.747,1,0.929688,1216.42,1245817
-0.00567627,0.0320435,1.31995,0.09,0.156,102.68,102.68,0.205093,-1.2589,0,-1070.89,-1030.66,1,0.929688,1216.44,1245848
-0.278442,0.300903,1.35992,0.402,0.374,100.69,100.69,0.20105,-1.2724,0,-1074,-1083.25,1,0.929688,1216.46,1245862
0.105591,0.15155,0.511475,0.153,-0.067,98.7,98.7,0.197403,-1.28571,0,-1074.06,-1037.56,1,0.992188,1216.49,1245877
0.0748291,0.19696,0.499451,0.205,-0.033,94.72,94.72,0.190872,-1.31264,0,-972.573,-825.764,1,0.992188,1216.51,1245908
0.24231,0.252197,0.758118,0.261,-0.163,92.73,92.73,0.188065,-1.32629,0,-913.868,-1025.54,1,0.992188,1216.52,1245922
-0.203064,0.195251,1.72571,0.237,0.403,90.72,90.72,0.185608,-1.33978,0,-1246.11,-1105.22,1,0.992188,1216.55,1245937
0.145264,0.122925,0.257874,0.135,-0.106,86.74,86.74,0.181503,-1.36629,0,-1146.26,-1056.97,1,0.992188,1216.57,1245968
0.0419312,0.0970459,0.95697,0.111,0.083,82.82,82.82,0.178329,-1.3927,0,-1054.13,-1020.04,1,0.992188,1216.6,1245997
0.0419312,0.0970459,0.95697,0.111,0.083,82.82,82.82,0.178329,-1.3927,0,-1101.69,-1106.93,1,0.992188,1216.61,1245997
0.206726,0.213135,1.26556,0.253,-0.013,78.91,78.91,0.176132,-1.41885,0,-1129.82,-726.375,1,0.929688,1216.63,1246028
0.369385,0.301208,0.814514,0.376,-0.194,76.97,76.97,0.175613,-1.43207,0,-1016.11,-1186.24,1,0.90625,1216.65,1246042
0.306946,0.219238,1.10339,0.285,-0.107,75.04,75.04,0.175552,-1.4455,0,-1062.25,-1068.83,1,0.882812,1216.67,1246057
0.234985,0.327576,0.717773,0.376,-0.033,71.24,71.24,0.176697,-1.47177,0,-861.66,-1023.23,1,0.820312,1216.69,1246087
0.117615,0.196289,0.260071,0.22,-0.009,69.37,69.37,0.177902,-1.48482,0,-1025.85,-1194.32,1,0.71875,1216.71,1246102
0.067688,0.303223,0.998108,0.282,0.168,67.49,67.49,0.179443,-1.49777,0,-996.562,-1064.91,1,0.546875,1216.73,1246117
-0.12207,0.530334,1.14636,0.389,0.465,63.87,63.87,0.183548,-1.52187,0,-979.768,-883.08,1,0.171875,1216.75,1246147
-0.0130615,0.374573,0.573425,0.304,0.246,62.13,62.13,0.186264,-1.53307,0,-995.619,-697.496,0.937008,0.0390625,1216.77,1246162
-0.543701,0.744934,1.99994,0.232,1.039,57.35,57.35,0.197693,-1.5638,0,-1000.55,-450.075,0.937008,0.0390625,1216.8,1246207
-0.543701,0.744934,1.99994,0.232,1.039,57.35,57.35,0.197693,-1.5638,0,-1008.47,-428.78,0.937008,0.0390625,1216.81,1246207
-0.445374,0.620117,0.917236,0.212,0.79,55.92,55.92,0.202377,-1.5722,0,-1022.02,-421.879,0.543307,0.0078125,1216.83,1246222
-0.158081,0.769104,0.348633,0.513,0.601,54.6,54.6,0.207565,-1.57965,0,-871.004,-515.344,0.102362,0.0078125,1216.85,1246237
-0.262085,0.480347,1.26465,0.132,0.573,52.25,52.25,0.219498,-1.59239,0,-525.017,-460.395,0.102362,0.0078125,1216.87,1246267
-0.177734,0.357361,0.658386,0.12,0.398,51.17,51.17,0.2258,-1.59775,0,-289.072,-322.966,-0.0078125,0.0078125,1216.89,1246282
-0.0878906,0.262268,0.773926,0.088,0.274,50.11,50.11,0.232254,-1.60265,0,-175.79,-409.727,-0.0078125,0.0078125,1216.91,1246297
-0.246521,0.105164,0.855774,-0.146,0.287,48.2,48.2,0.244904,-1.61098,0,-195.931,-285.111,-0.0078125,0.0078125,1216.92,1246327
-0.211792,-0.182434,0.843018,-0.334,0.062,47.38,47.38,0.250809,-1.61465,0,-163.115,-183.17,-0.0078125,0.0078125,1216.94,1246342
-0.367676,0.110107,0.873352,-0.229,0.371,46.6,46.6,0.256332,-1.61803,0,-138.315,-203.066,-0.0078125,0.0078125,1216.96,1246357
-0.366577,0.0741577,0.844543,-0.256,0.333,45.31,45.31,0.266342,-1.62318,0,-125.762,-180.476,-0.0078125,0.0078125,1216.98,1246387
-0.383057,0.112061,1.04425,-0.253,0.37,44.79,44.79,0.270828,-1.62503,0,-108.196,-138.854,-0.0078125,0.0078125,1217,1246402
-0.354065,0.131836,0.96167,-0.214,0.357,44.35,44.35,0.274979,-1.62637,0,-72.2116,-103.143,-0.0078125,0.0078125,1217.02,1246417
-0.330872,0.0828247,0.966248,-0.231,0.297,43.7,43.7,0.282379,-1.62769,0,-43.5806,-69.0107,-0.0078125,0.0078125,1217.05,1246447
-0.321289,0.081665,0.951355,-0.222,0.285,43.49,43.49,0.285614,-1.62773,0,-38.0686,-55.5101,-0.0078125,0.0078125,1217.07,1246462
-0.331665,0.0706177,0.952759,-0.236,0.281,43.35,43.35,0.288544,-1.6274,0,-38.0686,-37.131,-0.0078125,0.0078125,1217.09,1246477
-0.0521851,0.0490723,0.918518,-0.042,0.068,43.29,43.29,0.293579,-1.62573,0,-7.5002,-37.131,-0.0078125,0.078125,1217.11,1246507
0.170227,-0.0232544,0.874939,0.071,-0.136,43.32,43.32,0.296036,-1.62485,0,-7.5002,-19.9594,-0.0078125,0.148438,1217.13,1246522
0.136108,0.0120239,1.15863,0.057,-0.087,43.33,43.33,0.298584,-1.6241,0,0,-14.3302,-0.0078125,0.3125,1217.15,1246537
0.0785522,-0.0383911,0.923035,-0.008,-0.083,43.32,43.32,0.301147,-1.62277,0,4.57781,-120.89,-0.0078125,0.46875,1217.17,1246567
0.0979004,-0.271362,0.997253,-0.156,-0.264,43.31,43.31,0.301041,-1.62236,0,12.8212,-151.266,0.0629921,0.695312,1217.19,1246582
0.143372,-0.337769,0.950256,-0.164,-0.34,43.25,43.25,0.300705,-1.62238,0,22.5818,-271.499,0.15748,0.804688,1217.21,1246597
0.246216,-0.300781,0.855835,-0.057,-0.377,43.02,43.02,0.299637,-1.62398,0,22.5818,-272.799,0.204724,0.875,1217.23,1246627
0.381897,-0.24292,1.02429,0.075,-0.419,42.82,42.82,0.299072,-1.62561,0,22.5818,-442.292,0.228346,0.890625,1217.24,1246642
0.396057,-0.215149,0.847107,0.113,-0.407,42.52,42.52,0.29863,-1.62779,0,22.5818,-464.188,0.23622,0.898438,1217.26,1246657
0.364258,-0.184204,0.856628,0.114,-0.353,41.68,41.68,0.298004,-1.6335,0,22.5818,-633.052,0.299213,0.945312,1217.29,1246687
0.25647,-0.168945,1.05304,0.037,-0.26,41.16,41.16,0.297836,-1.63696,0,22.5818,-686.012,0.385827,0.96875,1217.3,1246702
0.350342,-0.197449,0.853333,0.1,-0.345,40.58,40.58,0.29776,-1.64085,0,3.65332,-688.184,0.440945,0.992188,1217.32,1246717
0.159058,-0.0686035,1.17267,0.025,-0.101,39.22,39.22,0.298019,-1.6497,0,-7.14128,-609.663,0.472441,1,1217.34,1246747
0.170898,-0.12085,0.730469,0.024,-0.166,38.46,38.46,0.298233,-1.65443,0,-88.0003,-880.747,0.472441,1,1217.37,1246762
0.313171,0.048645,0.876282,0.235,-0.11,37.66,37.66,0.298615,-1.65935,0,-145.458,-887.272,0.472441,1,1217.38,1246777
0.478271,-0.199219,1.09888,0.211,-0.383,35.88,35.88,0.300095,-1.66995,0,-200.296,-815.461,0.472441,1,1217.41,1246807
0.273132,-0.0891113,0.98114,0.118,-0.174,34.89,34.89,0.301163,-1.67583,0,-198.493,-759.388,0.354331,1,1217.43,1246822
0.269653,0.00982666,1.15057,0.163,-0.076,33.87,33.87,0.302429,-1.68187,0,-157.531,-780.793,0.244094,1,1217.45,1246837
0.241089,0.0665894,0.781555,0.19,-0.023,31.84,31.84,0.305725,-1.6945,0,-118.359,-918.485,0.125984,1,1217.47,1246867
0.183899,-0.0157471,1.01508,0.084,-0.047,30.78,30.78,0.307709,-1.70096,0,-95.2903,-850.412,0.015748,1,1217.49,1246882
0.234863,-0.103943,0.979553,0.087,-0.147,29.68,29.68,0.309799,-1.70753,0,-95.2903,-1018.8,-0.0078125,1,1217.51,1246897
0.0730591,-0.0396118,0.902283,-0.015,-0.014,27.46,27.46,0.311951,-1.72116,0,141.7,-991.818,-0.0078125,1,1217.53,1246927
0.09552,-0.0375977,0.918152,0.005,-0.02,26.37,26.37,0.311951,-1.72806,0,204.543,-1055.07,-0.0078125,1,1217.55,1246942
0.115479,-0.194519,0.741882,-0.03,-0.18,25.27,25.27,0.311935,-1.73509,0,252.675,-736.784,-0.0234375,1,1217.57,1246957
0.283264,-0.0214233,0.954102,0.182,-0.07,23.09,23.09,0.312408,-1.74956,0,296.736,-1013.43,-0.09375,1,1217.59,1246987
0.0321655,0.147339,1.99994,-0.053,0.242,22.02,22.02,0.312866,-1.75671,0,321.058,-997.855,-0.3125,1,1217.61,1247002
-0.022583,0.000366211,1.05786,-0.096,0.067,18.94,18.94,0.315353,-1.7785,0,468.22,-1213.3,-0.648438,1,1217.66,1247047
-0.00421143,-0.0623169,0.618713,-0.065,-0.022,17.95,17.95,0.316223,-1.78575,0,457.582,-1071.75,-0.976562,1,1217.67,1247062
0.386536,-0.0726318,0.759583,0.295,-0.137,17,17,0.317245,-1.79312,0,521.485,-1198.9,-0.976562,1,1217.68,1247077
-0.0710449,-0.0288086,1.33789,-0.166,0.064,15.2,15.2,0.319183,-1.808,0,860.511,-1341.2,-1,1,1217.7,1247107
-0.482605,-0.237427,0.701538,-0.57,-0.072,14.41,14.41,0.319519,-1.81543,0,959.923,-1252.66,-1,1,1217.72,1247122
-0.0834351,-0.28479,0.794556,-0.194,-0.211,13.73,13.73,0.319336,-1.82304,0,915.751,-1181.82,-1,1,1217.74,1247136
-0.625732,-0.164124,1.409,-0.717,0.06,12.6,12.6,0.316971,-1.83879,0,1079.39,-1130.71,-1,1,1217.76,1247167
-0.360352,-0.293945,0.92749,-0.454,-0.156,12.15,12.15,0.314545,-1.84677,0,1103.2,-1219.81,-1,1,1217.78,1247181
-0.431946,-0.174194,0.671997,-0.485,-0.041,11.81,11.81,0.311462,-1.85487,0,1121.77,-1593.63,-1,1,1217.81,1247197
-0.223694,-0.120361,1.41809,-0.29,0.015,11.34,11.34,0.30397,-1.87146,0,1143.45,-1280.9,-1,1,1217.83,1247227
-0.12384,-0.211304,0.978699,-0.189,-0.12,11.22,11.22,0.299728,-1.87988,0,1255.65,-1332.53,-1,1,1217.85,1247241
-0.0847778,-0.206726,0.566528,-0.137,-0.149,11.15,11.15,0.295242,-1.88847,0,1236.93,-1188.64,-1,0.921875,1217.87,1247257
-0.0853882,0.0934448,1.99994,-0.11,0.24,11.08,11.08,0.285736,-1.90617,0,1150.28,-1163.47,-1,0.875,1217.89,1247287
-0.0297241,-0.187561,-0.0184326,-0.064,-0.179,11.06,11.06,0.280777,-1.91496,0,1381.12,-1427.65,-1,0.859375,1217.91,1247301
0.128479,0.125,1.10339,0.125,0.174,11.07,11.07,0.275864,-1.92377,0,1331.56,-1212.42,-1,0.851562,1217.93,1247318
0.0339355,-0.132324,0.336243,0.001,-0.112,11.14,11.14,0.266022,-1.94102,0,1386.77,-1489.87,-1,0.851562,1217.95,1247347
-0.108765,-0.0166626,1.21472,-0.134,0.088,11.18,11.18,0.260971,-1.94969,0,1507.95,-1273.97,-1,0.851562,1217.96,1247361
-0.330261,0.0678711,1.57025,-0.342,0.236,11.23,11.23,0.255615,-1.95813,0,1481.04,-832.016,-1,0.929688,1217.98,1247376
-0.432678,0.143555,1.58429,-0.428,0.332,11.33,11.33,0.243958,-1.97459,0,1339.76,-1436.37,-1,0.984375,1218.01,1247407
-0.462402,-0.0522461,1.1922,-0.487,0.119,11.39,11.39,0.237335,-1.98244,0,1485.77,-1416.53,-1,1,1218.02,1247421
-0.161316,-0.182251,0.717041,-0.207,-0.097,11.43,11.43,0.23024,-1.99025,0,1536.81,-1695.35,-1,1,1218.05,1247436
-0.250122,-0.0447998,0.895447,-0.271,0.066,11.49,11.49,0.215103,-2.00604,0,1539.05,-1493.32,-1,1,1218.07,1247467
0.03125,-0.0831909,1.07471,-0.005,-0.014,11.52,11.52,0.207184,-2.01389,0,1380.07,-1333.51,-1,1,1218.08,1247481
-0.233276,-0.0912476,0.382263,-0.253,-0.016,11.52,11.52,0.199066,-2.02176,0,1492.65,-1419.95,-0.789062,1,1218.11,1247496
0.478821,-0.209839,0.225159,0.423,-0.283,11.5,11.5,0.175003,-2.04541,0,1502.97,-1400.66,-0.609375,1,1218.14,1247541
0.478821,-0.209839,0.225159,0.423,-0.283,11.5,11.5,0.175003,-2.04541,0,1358.23,-1626.55,-0.609375,1,1218.15,1247541
0.367554,0.0964966,1.99994,0.34,0.161,11.49,11.49,0.16777,-2.0535,0,1584.03,-1306.51,-0.289062,1,1218.16,1247556
0.118713,-0.0724487,0.497131,0.091,-0.058,11.4,11.4,0.154465,-2.0699,0,1281.23,-1674.48,-0.0234375,1,1218.18,1247587
0.119385,0.135071,1.43884,0.113,0.209,11.33,11.33,0.148087,-2.07809,0,1262.55,-1595.15,-0.0078125,1,1218.2,1247601
0.727966,0.170776,1.41394,0.713,0.119,11.18,11.18,0.142273,-2.08606,0,1300.47,-1375.71,-0.0078125,1,1218.23,1247616
0.0821533,0.0578613,0.865662,0.067,0.094,10.73,10.73,0.131668,-2.10135,0,1241.31,-1568.14,-0.0078125,1,1218.25,1247647
0.344666,-0.113281,1.69458,0.277,-0.073,10.51,10.51,0.126617,-2.10889,0,1272.67,-1652.35,-0.0078125,1,1218.27,1247661
-0.13623,0.147949,0.0236206,-0.108,0.17,10.35,10.35,0.121674,-2.11636,0,1249.84,-1626.94,-0.0078125,1,1218.29,1247676
-0.268616,0.010376,1.49371,-0.299,0.138,10.06,10.06,0.110184,-2.13033,0,1347.35,-1846.38,-0.0078125,1,1218.31,1247707
-0.0280151,0.00732422,0.0993042,-0.029,0.017,9.94,9.94,0.103897,-2.13704,0,1458.68,-826.617,-0.0078125,1,1218.33,1247721
0.220703,-0.159485,0.932007,0.168,-0.145,9.67,9.67,0.0908966,-2.14975,0,1486.88,-1472,0,1,1218.35,1247751
0.0932617,0.143677,1.49829,0.08,0.201,9.55,9.55,0.084549,-2.15598,0,1336.9,-1394.21,0.023622,1,1218.37,1247766
0.35083,-0.090332,0.208862,0.325,-0.134,9.44,9.44,0.0784607,-2.16216,0,1409.34,-1637.87,0.0944882,1,1218.39,1247781
-0.0603027,0.0839233,1.54803,-0.082,0.166,9.32,9.32,0.0725555,-2.16832,0,865.014,-1471.78,0.188976,1,1218.41,1247796
0.423462,0.0994263,0.58374,0.416,0.06,9.1,9.1,0.0607452,-2.17996,0,494.792,-1458.79,0.244094,1,1218.42,1247826
0.542419,0.390442,1.30835,0.558,0.358,8.91,8.91,0.0556183,-2.18539,0,385.356,-1459.53,0.267717,1,1218.45,1247841
0.333374,0.31488,0.288208,0.367,0.273,8.65,8.65,0.0511169,-2.19041,0,155.306,-1215.88,0.291339,1,1218.47,1247856
0.378906,0.336548,1.1806,0.373,0.322,7.85,7.85,0.0430756,-2.19951,0,72.2374,-1549.31,0.354331,1,1218.48,1247886
0.773621,0.389465,0.623962,0.787,0.308,7.38,7.38,0.0399933,-2.20346,0,72.2374,-1044.06,0.425197,1,1218.5,1247901
0.186401,0.231262,0.349304,0.195,0.217,6.85,6.85,0.0375977,-2.20705,0,-69.881,-1400.85,0.425197,1,1218.52,1247916
0.596313,0.312134,0.799438,0.583,0.269,5.73,5.73,0.0338593,-2.21312,0,-69.5744,-1317.35,0.527559,1,1218.55,1247946
0.284546,0.0817871,0.791016,0.246,0.07,5.1,5.1,0.0328217,-2.21573,0,-170.208,-1441.86,0.622047,1,1218.57,1247961
0.258789,0.241028,0.777832,0.223,0.233,3.13,3.13,0.0318909,-2.22197,0,-304.692,-1229.18,0.80315,1,1218.61,1248006
0.146973,0.180176,0.865906,0.097,0.178,2.41,2.41,0.0320435,-2.22343,0,-369.508,-1313.63,0.992126,1,1218.63,1248021
0.183105,0.200317,1.1521,0.111,0.197,1.67,1.67,0.0323334,-2.22464,0,-558.737,-1193.67,1,1,1218.65,1248036
0.37915,0.240723,1.02734,0.305,0.236,0.16,0.16,0.0334473,-2.22618,0,-764.234,-1319.52,1,1,1218.67,1248066
0.0189819,0.116821,0.8974,-0.049,0.11,-0.64,359.35,0.0343018,-2.22656,0,-636.395,-1313.11,1,1,1218.69,1248081
0.268555,0.218689,1.12024,0.177,0.214,-1.45,358.54,0.0352631,-2.22673,0,-1005.03,-1017.45,1,1,1218.71,1248096
0.391846,0.0530396,0.841187,0.318,0.06,-3.14,356.85,0.0383911,-2.22614,0,-984.591,-1123.66,1,1,1218.73,1248126
0.15741,0.163269,0.9505,0.065,0.156,-4.02,355.97,0.0404663,-2.22556,0,-992.556,-1378.36,1,1,1218.75,1248141
0.272583,0.074646,0.563171,0.216,0.086,-4.89,355.1,0.0427246,-2.22482,0,-963.763,-965.344,1,1,1218.77,1248156
0.354126,0.192749,1.05408,0.234,0.206,-6.71,353.28,0.0479431,-2.22272,0,-861.252,-1059.04,1,1,1218.78,1248186
0.493164,0.0315552,1.28448,0.367,0.061,-7.66,352.33,0.0510864,-2.22134,0,-906.125,-1162.25,1,1,1218.8,1248201
0.190247,0.323608,0.88678,0.058,0.323,-8.61,351.38,0.0545197,-2.21971,0,-993.888,-1062.02,1,1,1218.83,1248216
0.125122,0.149963,1.10883,-0.009,0.132,-10.59,349.4,0.0616302,-2.21556,0,-1012.97,-1142.4,1,1,1218.84,1248246
0.205505,0.0401611,1.16406,0.082,0.039,-11.6,348.39,0.0652466,-2.21326,0,-1143.9,-1172.26,1,1,1218.86,1248261
0.257202,0.117554,0.644165,0.163,0.146,-12.61,347.38,0.069046,-2.21083,0,-1104.91,-1030.13,1,1,1218.88,1248276
-0.0134277,0.0839844,0.472534,-0.08,0.059,-14.67,345.32,0.0773468,-2.20538,0,-1031.94,-1064.34,1,1,1218.91,1248306
0.492432,0.098877,1.92554,0.261,0.146,-15.71,344.28,0.0816803,-2.20244,0,-1067.07,-621.91,1,1,1218.93,1248321
0.214905,0.139771,0.923645,0.075,0.155,-16.74,343.25,0.0862579,-2.1993,0,-1010.76,-1254.55,1,1,1218.95,1248336
0.179199,0.0749512,0.609558,0.082,0.098,-18.93,341.06,0.0965118,-2.19214,0,-1030.34,-1057.25,1,1,1218.97,1248366
0.231018,0.225342,1.71301,-0.03,0.204,-20.06,339.93,0.101852,-2.18823,0,-939.805,-1083.19,1,1,1218.98,1248381
0.260498,0.171509,0.686279,0.111,0.217,-21.24,338.75,0.107269,-2.18402,0,-934.405,-1425.21,1,1,1219,1248396
0.146606,0.202454,0.799805,-0.026,0.197,-23.71,336.28,0.117981,-2.17464,0,-1009.13,-1223.09,1,1,1219.02,1248426
0.180115,0.243652,1.54669,-0.095,0.199,-25.02,334.97,0.123199,-2.16951,0,-890.393,-1177.09,1,1,1219.04,1248441
0.411438,0.109619,0.562195,0.261,0.241,-26.33,333.66,0.12854,-2.16408,0,-882.807,-1360.54,1,1,1219.06,1248456
0.37323,0.206665,0.863708,0.137,0.295,-29.03,330.96,0.139206,-2.15221,0,-950.435,-1162.86,1,1,1219.09,1248486
0.0770264,0.0935669,1.21021,-0.104,0.025,-30.38,329.61,0.144531,-2.14587,0,-919.033,-1217.29,1,1,1219.11,1248501
0.188049,0.155029,0.901611,-0.012,0.158,-31.71,328.28,0.149796,-2.13942,0,-828.878,-1155.94,1,1,1219.13,1248516
0.417053,0.154907,0.562134,0.197,0.312,-34.46,325.53,0.160507,-2.12556,0,-889.245,-998.353,1,1,1219.15,1248546
0.0350342,0.19104,1.12909,-0.198,0.074,-35.86,324.13,0.165955,-2.11819,0,-999.4,-1191.26,1,1,1219.17,1248561
0.254456,0.377075,1.63422,-0.199,0.299,-38.62,321.37,0.176422,-2.10289,0,-914.537,-1062.02,1,1,1219.19,1248591
0.27594,0.137756,1.31171,-0.007,0.15,-40.02,319.97,0.181442,-2.09479,0,-952.971,-1266.62,1,1,1219.21,1248606
-0.165283,0.141907,0.660461,-0.281,-0.067,-41.4,318.59,0.186264,-2.08664,0,-928.893,-922.254,1,1,1219.23,1248621
0.088501,0.194275,1.32495,-0.194,0.065,-42.78,317.21,0.19075,-2.07848,0,-948.857,-1016.42,1,1,1219.25,1248636
0.21051,0.353516,1.15228,-0.211,0.271,-45.54,314.45,0.199448,-2.06104,0,-991.572,-1098.84,1,1,1219.26,1248666
0.188293,0.17981,1.38281,-0.129,0.103,-46.94,313.05,0.203491,-2.05183,0,-1031.57,-1084.89,1,1,1219.29,1248681
0.211548,0.0771484,0.947937,-0.004,0.098,-48.33,311.66,0.207458,-2.04248,0,-1013.63,-1029.39,1,1,1219.31,1248696
0.116089,0.225769,0.994812,-0.19,0.115,-51.08,308.91,0.215012,-2.02321,0,-938.262,-1148.44,1,1,1219.32,1248726
0.190979,0.0985718,0.890564,-0.039,0.102,-52.49,307.5,0.218521,-2.01334,0,-1166.59,-1190.33,1,1,1219.34,1248741
0.164795,0.180481,1.48254,-0.175,0.057,-53.91,306.08,0.221893,-2.00334,0,-1023.28,-1047.56,0.692913,0.726562,1219.36,1248756
0.168213,0.322388,1.2243,-0.277,0.163,-56.79,303.2,0.228226,-1.98244,0,-809.16,-1021.61,0.314961,0.476562,1219.39,1248786
0.0333862,0.296997,0.75354,-0.292,0.089,-58.26,301.73,0.230896,-1.97162,0,-587.182,-1080.85,0.0708661,0.109375,1219.41,1248801
-0.0185547,0.316711,0.403381,-0.313,0.085,-61.17,298.82,0.234665,-1.94983,0,-299.616,-924.3,-0.0078125,-0.023622,1219.43,1248830
-0.145569,0.637329,1.43463,-0.725,-0.022,-62.57,297.42,0.23558,-1.93886,0,-114.01,-736.54,-0.0078125,-0.023622,1219.45,1248846
-0.319458,0.400391,1.14264,-0.562,-0.252,-63.75,296.24,0.235611,-1.92807,0,98.4233,-631.473,-0.0078125,-0.023622,1219.47,1248860
-0.453308,0.325623,1.3429,-0.544,-0.45,-65.78,294.21,0.233994,-1.90666,0,141.743,-522.098,-0.0078125,-0.023622,1219.49,1248890
-0.297363,0.155823,0.750061,-0.292,-0.303,-66.63,293.36,0.232346,-1.89655,0,153.799,-648.971,-0.0078125,-0.023622,1219.51,1248906
-0.253845,0.217102,1.08759,-0.339,-0.283,-67.41,292.58,0.230255,-1.88683,0,144.371,-568.15,-0.0078125,-0.023622,1219.53,1248920
-0.234497,0.10675,0.931885,-0.218,-0.289,-68.14,291.85,0.227798,-1.8775,0,145.171,-467.115,-0.0078125,-0.023622,1219.55,1248935
-0.194885,0.179077,0.745483,-0.256,-0.203,-69.45,290.54,0.221725,-1.86005,0,166.149,-538.604,-0.0078125,-0.023622,1219.57,1248966
-0.300415,0.225891,1.01569,-0.339,-0.316,-70.01,289.98,0.218079,-1.85184,0,172.28,-434.981,-0.0078125,-0.023622,1219.59,1248980
-0.269836,0.186279,1.04181,-0.286,-0.303,-70.47,289.52,0.214005,-1.84407,0,207.381,-454.442,-0.0078125,-0.023622,1219.61,1248995
-0.312988,0.204468,0.944702,-0.308,-0.326,-71.24,288.75,0.204956,-1.82968,0,211.191,-382.278,-0.0078125,-0.023622,1219.63,1249026
-0.287842,0.151306,1.17157,-0.247,-0.34,-71.54,288.45,0.19989,-1.82314,0,227.319,-432.629,-0.0078125,-0.023622,1219.65,1249040
-0.226929,0.134521,0.788025,-0.205,-0.247,-71.77,288.22,0.194519,-1.817,0,219.281,-392.103,-0.0078125,-0.023622,1219.67,1249055
-0.278748,0.116821,0.919922,-0.2,-0.31,-72.05,287.94,0.182877,-1.80586,0,226.454,-280.159,-0.0078125,-0.023622,1219.69,1249086
-0.31366,0.223755,1.08289,-0.309,-0.322,-72.1,287.89,0.176559,-1.80093,0,256.924,-227.317,-0.0078125,-0.023622,1219.71,1249100
0.0998535,0.151978,1.12439,-0.108,0.048,-72.04,287.95,0.16304,-1.79175,0,241.319,-241.342,-0.0078125,-0.023622,1219.73,1249130
0.147827,0.0663452,0.947876,-0.012,0.081,-72,287.99,0.156082,-1.78709,0,209.201,-181.734,-0.0078125,-0.023622,1219.75,1249146
0.0531616,0.105103,0.942932,-0.078,0.003,-72,287.99,0.149078,-1.78238,0,186.021,-214.234,-0.0078125,-0.023622,1219.76,1249160
-0.0230103,0.100037,0.9599,-0.096,-0.071,-71.99,288,0.141937,-1.77773,0,201.438,-173.61,-0.0078125,0.0625,1219.78,1249175
0.102173,0.140686,0.870056,-0.093,0.067,-71.94,288.05,0.119812,-1.76405,0,166.575,-147.034,-0.0078125,0.0625,1219.82,1249220
0.102173,0.140686,0.870056,-0.093,0.067,-71.94,288.05,0.119812,-1.76405,0,167.632,-156.166,-0.0078125,0.0625,1219.82,1249220
-0.0283203,0.176208,1.07928,-0.164,-0.062,-71.92,288.07,0.112122,-1.75949,0,143.984,-128.874,-0.0078125,0.117188,1219.84,1249235
0.053894,0.109314,1.07147,-0.072,-0.004,-71.9,288.09,0.0962982,-1.75046,0,119.295,-127.024,-0.0078125,0.125,1219.86,1249266
0.0374146,0.0800171,0.894226,-0.052,-0.014,-71.88,288.11,0.0882568,-1.75046,0,122.321,-113.833,-0.0078125,0.125,1219.88,1249280
0.0495605,0.125183,0.928467,-0.089,0.008,-71.88,288.11,0.0718536,-1.75052,0,93.6102,-102.234,-0.0078125,0.125,1219.91,1249310
0.00646973,0.0751953,1.01141,-0.052,-0.053,-71.89,288.1,0.0384369,-1.75089,0,89.4278,-79.1437,-0.0078125,0.140625,1219.97,1249370
0.0744629,0.0317383,0.869324,0.007,0.009,-71.88,288.11,0.0299835,-1.75111,0,89.0853,-71.2299,-0.0078125,0.148438,1219.99,1249386
0.0116577,0.0510864,0.994507,-0.027,-0.052,-71.88,288.11,0.00453186,-1.75208,0,79.0504,-90.9848,-0.0078125,0.15625,1220.04,1249430
0.0116577,0.0510864,0.994507,-0.027,-0.052,-71.88,288.11,0.00453186,-1.75208,0,79.0504,-89.8174,-0.0078125,0.15625,1220.04,1249430
0.0511475,0.0359497,0.968994,-0.001,-0.017,-71.89,288.1,-0.0124512,-1.75299,0,78.3322,-95.686,-0.0078125,0.164062,1220.06,1249460
0.0511475,0.0359497,0.968994,-0.001,-0.017,-71.89,288.1,-0.0124512,-1.75299,0,79.6641,-95.8474,-0.0078125,0.164062,1220.07,1249460
0.0231323,0.0105591,0.96936,0.014,-0.051,-71.89,288.1,-0.0124512,-1.75351,0,80.2414,-96.4506,-0.0078125,0.164062,1220.09,1249475
0.0110474,0.0108032,0.953918,0.009,-0.06,-71.88,288.11,-0.0123596,-1.75475,0,97.6873,-98.8777,-0.0078125,0.164062,1220.11,1249505
0.0321655,0.0124512,0.916687,0.013,-0.036,-71.88,288.11,-0.0122833,-1.75546,0,98.9683,-99.7601,-0.0078125,0.164062,1220.13,1249520
0.0213013,0.0403442,0.924744,-0.015,-0.037,-71.88,288.11,-0.0122833,-1.75703,0,94.1531,-101.935,-0.0078125,0.164062,1220.15,1249550
0.0131226,0.0629272,0.937561,-0.039,-0.039,-71.88,288.11,-0.0123291,-1.75789,0,95.5772,-97.9763,-0.0078125,0.164062,1220.17,1249565
0.0602417,0.0302124,0.947266,0.006,-0.004,-71.88,288.11,-0.0123901,-1.75877,0,89.2594,-90.6618,-0.0078125,0.164062,1220.19,1249580
0.0327148,0.0115356,0.950256,0.015,-0.036,-71.88,288.11,-0.0124359,-1.7597,0,90.6528,-100.159,-0.0078125,0.164062,1220.2,1249595
0.00744629,0.0424194,0.956726,-0.021,-0.05,-71.87,288.12,-0.0124512,-1.76169,0,95.388,-92.7553,-0.0078125,0.164062,1220.23,1249625
0.0473022,-0.00244141,0.958862,0.033,-0.026,-71.87,288.12,-0.0124664,-1.76277,0,89.4254,-99.6676,-0.0078125,0.09375,1220.25,1249640
0.012085,0.0501099,0.948914,-0.027,-0.042,-71.87,288.12,-0.0124817,-1.7639,0,104.173,-87.1395,-0.0078125,0.0390625,1220.27,1249655
0.00708008,0.0892944,0.94635,-0.065,-0.033,-71.85,288.14,-0.0126953,-1.76633,0,97.317,-79.3528,-0.0078125,0.0078125,1220.29,1249685
0.0436401,0.10675,0.94928,-0.069,0.006,-71.83,288.16,-0.0129242,-1.76758,0,85.4401,-75.2129,-0.0078125,0.0078125,1220.31,1249700
0.038147,0.115845,0.967224,-0.078,0.002,-71.82,288.17,-0.0132751,-1.76883,0,66.4185,-65.0168,-0.0078125,0.0078125,1220.33,1249715
0.0257568,0.107971,0.961243,-0.073,-0.01,-71.8,288.19,-0.0142365,-1.76883,0,50.632,-55.0732,-0.0078125,0.0078125,1220.35,1249745
0.0375977,0.0918579,0.93689,-0.054,-0.002,-71.8,288.19,-0.0148468,-1.76883,0,42.0212,-46.1827,-0.0078125,0.0078125,1220.36,1249760
0.0292358,0.111206,0.947083,-0.073,-0.005,-71.8,288.19,-0.0163574,-1.76883,0,33.2519,-27.0445,0.181102,0.0078125,1220.4,1249790
0.0183716,0.108643,0.936401,-0.074,-0.015,-71.79,288.2,-0.0172577,-1.76883,0,24.1423,-27.0445,0.377953,0.0078125,1220.4,1249805
0.0443726,0.121094,0.952087,-0.076,0.012,-71.79,288.2,-0.0182495,-1.76883,0,-126.669,-27.0445,0.740157,-0.00787402,1220.42,1249820
0.0914917,0.249146,1.04559,-0.177,0.087,-71.83,288.16,-0.0207977,-1.76848,0,-350.073,7.37605,0.952756,-0.125984,1220.45,1249850
0.0968628,0.22937,0.892883,-0.16,0.096,-71.89,288.1,-0.0224152,-1.7681,0,-477.623,61.3759,1,-0.23622,1220.46,1249865
0.0977173,0.23761,0.940918,-0.164,0.094,-71.97,288.02,-0.0242462,-1.76758,0,-610.78,92.3144,1,-0.275591,1220.49,1249880
0.128723,0.239258,0.92688,-0.154,0.123,-72.15,287.84,-0.0286102,-1.76659,0,-948.947,149.682,1,-0.291339,1220.51,1249910
0.29895,0.204712,0.910339,-0.069,0.274,-72.25,287.74,-0.0310669,-1.76582,0,-943.307,183.439,1,-0.291339,1220.53,1249925
0.0324707,0.304871,0.936523,-0.243,0.046,-72.36,287.63,-0.0337372,-1.76485,0,-926.012,256.226,1,-0.291339,1220.55,1249940
0.0692139,0.447693,0.999939,-0.363,0.116,-72.47,287.52,-0.0368195,-1.76375,0,-890.115,284.471,1,-0.291339,1220.57,1249955
-0.0272217,0.341858,1.01349,-0.284,-0.012,-72.75,287.24,-0.0441437,-1.76109,0,-927.644,311.769,1,-0.291339,1220.59,1249985
0.272827,0.343689,0.913147,-0.201,0.279,-72.92,287.07,-0.0483246,-1.75954,0,-1002.71,319.949,1,-0.291339,1220.61,1250000
0.310852,0.333313,1.01941,-0.172,0.293,-73.64,286.35,-0.0622406,-1.75311,0,-1010.66,382.665,1,-0.299213,1220.65,1250045
0.239014,0.309875,0.969849,-0.173,0.218,-73.94,286.05,-0.067276,-1.75015,0,-1068.83,473.16,1,-0.299213,1220.66,1250060
0.196106,0.284729,1.15302,-0.149,0.148,-74.26,285.73,-0.072525,-1.74693,0,-986.388,481.035,1,-0.299213,1220.68,1250075
-0.164185,0.337219,1.1687,-0.29,-0.192,-74.94,285.05,-0.0837097,-1.74011,0,-1093.37,471.832,1,-0.220472,1220.7,1250105
0.137695,0.149292,0.88678,-0.05,0.078,-75.33,284.66,-0.0896912,-1.7368,0,-1234.64,463.51,1,-0.102362,1220.72,1250120
0.332153,0.16272,0.667603,-0.03,0.29,-75.74,284.25,-0.0957184,-1.73322,0,-1060.16,466.919,1,-0.00787402,1220.74,1250135
0.434021,-0.0568237,1.09454,0.23,0.293,-76.63,283.36,-0.107697,-1.72543,0,-1133.27,466.962,1,0.0078125,1220.76,1250165
0.0148315,0.0773926,0.685791,-0.026,-0.04,-77.16,282.83,-0.11348,-1.72125,0,-1100.72,519.305,1,0.0078125,1220.78,1250180
0.0887451,0.184937,1.11194,-0.085,0.008,-77.71,282.28,-0.119324,-1.7171,0,-1082.78,568.408,1,0.0078125,1220.81,1250195
-0.194702,0.169556,0.663147,-0.155,-0.226,-78.75,281.24,-0.131454,-1.70905,0,-1194.67,609.607,1,0.0234375,1220.83,1250225
-0.031189,0.144714,1.47314,-0.038,-0.153,-79.26,280.73,-0.137726,-1.70538,0,-1207.51,641.54,1,0.0859375,1220.85,1250240
0.0847168,0.1203,0.798279,-0.044,0.023,-79.77,280.22,-0.144058,-1.7018,0,-1262.07,350.41,1,0.21875,1220.87,1250255
0.250183,-0.240662,0.777344,0.335,0.132,-80.82,279.17,-0.156723,-1.69464,0,-1176.75,213.73,1,0.320312,1220.89,1250285
0.2901,-0.184509,1.45435,0.331,0.118,-81.47,278.52,-0.162506,-1.69087,0,-1238.54,198.521,1,0.414062,1220.91,1250300
0.744995,-0.536743,0.414368,0.658,0.624,-82.21,277.78,-0.167618,-1.68658,0,-1109.57,90.067,1,0.515625,1220.93,1250315
0.103149,-0.18927,0.881409,0.251,-0.01,-84.08,275.91,-0.175827,-1.6765,0,-1259.29,19.6638,1,0.625,1220.94,1250345
0.54126,-0.124023,1.49487,0.254,0.368,-85.11,274.88,-0.179352,-1.67108,0,-933.445,-143.89,1,0.6875,1220.96,1250360
0.552124,-0.350098,0.519409,0.412,0.468,-86.22,273.77,-0.182419,-1.66512,0,-991.424,-155.922,1,0.734375,1220.98,1250375
0.324463,-0.24231,1.15131,0.304,0.182,-88.78,271.21,-0.186996,-1.65163,0,-1073.31,-280.769,1,0.773438,1221.01,1250405
0.398621,-0.217896,1.24738,0.273,0.246,-90.15,269.84,-0.18866,-1.64441,0,-1023.59,-392.118,1,0.78125,1221.02,1250420
0.718811,-0.278198,0.285034,0.27,0.685,-91.59,268.4,-0.189941,-1.63655,0,-913.576,-663.922,1,0.78125,1221.05,1250435
0.277466,-0.0136719,1.25372,0.041,0.108,-94.73,265.26,-0.191437,-1.61966,0,-939.055,-325.622,1,0.78125,1221.06,1250465
0.202332,-0.262573,0.547363,0.259,0.154,-96.36,263.63,-0.191864,-1.61096,0,-883.626,-716.05,1,0.789062,1221.08,1250480
-0.022644,-0.121765,0.890442,0.158,-0.126,-98.08,261.91,-0.191986,-1.60226,0,-926.741,-514.178,1,0.796875,1221.11,1250495
0.291016,0.114197,0.490967,-0.151,0.19,-101.63,258.36,-0.19194,-1.58463,0,-1153.87,-553.465,1,0.804688,1221.13,1250525
-0.0533447,0.153625,1.74426,-0.061,-0.327,-103.44,256.55,-0.192078,-1.57579,0,-1054.02,-563.936,1,0.804688,1221.15,1250540
0.666748,-0.189697,0.169312,0.014,0.663,-105.26,254.73,-0.19223,-1.56674,0,-874.164,-634.659,1,0.804688,1221.17,1250555
-0.121521,0.226868,1.05908,-0.122,-0.334,-109.08,250.91,-0.192398,-1.54904,0,-967.914,-607.829,1,0.804688,1221.19,1250585
0.531067,0.0479126,0.937866,-0.188,0.341,-111.02,248.97,-0.192688,-1.54048,0,-1141.03,-791.922,0.88189,0.804688,1221.21,1250599
0.0878296,0.157837,1.65375,-0.089,-0.215,-114.98,245.01,-0.194366,-1.52226,0,-1150.68,-802.407,0.88189,0.804688,1221.23,1250629
0.117676,0.277405,1.12708,-0.236,-0.175,-116.94,243.05,-0.195587,-1.51335,0,-1139.28,-753.438,0.275591,0.804688,1221.25,1250645
0.144043,0.0510254,0.28479,-0.096,0.061,-118.86,241.13,-0.197037,-1.50453,0,-871.688,-920.98,0.023622,0.804688,1221.27,1250659
-0.114136,0.247253,1.60449,-0.04,-0.441,-122.75,237.24,-0.200409,-1.48715,0,-535.834,-679.763,-0.0078125,0.804688,1221.29,1250689
0.282532,0.10083,0.426086,-0.214,0.114,-124.67,235.32,-0.202347,-1.47885,0,-448.561,-738.798,-0.0078125,0.804688,1221.31,1250705
0.0216064,0.164307,1.30273,-0.051,-0.254,-126.61,233.38,-0.204453,-1.47064,0,-340.13,-906.249,-0.0078125,0.804688,1221.32,1250719
-0.226746,0.166016,1.51208,0.12,-0.472,-128.54,231.45,-0.206512,-1.46292,0,-263.838,-873.973,-0.09375,0.804688,1221.34,1250734
-0.0170288,0.137451,1.59064,0.024,-0.303,-132.2,227.79,-0.210464,-1.44803,0,-118.752,-955.703,-0.125,0.804688,1221.36,1250765
-0.0289307,-0.098877,0.733032,0.143,-0.041,-133.94,226.05,-0.212311,-1.44086,0,-88.4838,-1019.89,-0.164062,0.804688,1221.39,1250779
-0.129639,0.0159912,0.992737,0.154,-0.215,-137.22,222.77,-0.215576,-1.42714,0,-55.7714,-1033.48,-0.1875,0.804688,1221.4,1250809
-0.146606,-0.0325317,0.966797,0.198,-0.182,-138.79,221.2,-0.216888,-1.42068,0,118.852,-850.521,-0.1875,0.804688,1221.43,1250825
-0.383301,0.00952148,1.59857,0.399,-0.419,-141.78,218.21,-0.218597,-1.4082,0,186.18,-995.619,-0.28125,0.804688,1221.46,1250854
0.194946,-0.0231934,0.43573,-0.114,0.085,-143.21,216.78,-0.219055,-1.40231,0,182.762,-1138.37,-0.28125,0.804688,1221.47,1250869
-0.166931,-0.0394287,0.855835,0.214,-0.156,-144.57,215.42,-0.219437,-1.39648,0,241.838,-1138.24,-0.367188,0.804688,1221.49,1250885
-0.0862427,-0.139648,1.26514,0.228,-0.065,-145.9,214.09,-0.219528,-1.39079,0,314.693,-1151.94,-0.554688,0.804688,1221.51,1250900
-0.0994263,-0.060791,1.16492,0.185,-0.12,-148.39,211.6,-0.219055,-1.37999,0,416.077,-891.782,-0.703125,0.804688,1221.53,1250929
-0.147644,-0.00012207,1.60022,0.217,-0.232,-149.54,210.45,-0.218445,-1.37492,0,517.103,-993.542,-0.8125,0.804688,1221.55,1250945
-0.207214,-0.19281,0.481934,0.3,0.019,-150.58,209.41,-0.217484,-1.37001,0,656.448,-1203.22,-0.945312,0.804688,1221.57,1250959
-0.199707,-0.169739,1.17053,0.306,-0.052,-152.41,207.58,-0.214096,-1.3606,0,724.48,-1103.75,-0.945312,0.804688,1221.59,1250989
-0.278259,-0.17511,0.574829,0.35,-0.022,-153.18,206.81,-0.211716,-1.35603,0,812.348,-1224.66,-1,0.71875,1221.61,1251005
-0.532898,-0.159973,1.38342,0.598,-0.216,-153.84,206.15,-0.208694,-1.35162,0,898.876,-941.265,-1,0.71875,1221.63,1251019
-0.657776,-0.198914,0.0379639,0.68,-0.101,-154.83,205.16,-0.200562,-1.34361,0,985.804,-1014.15,-1,0.710938,1221.65,1251049
-0.139771,0.0443726,1.71655,0.141,-0.247,-155.19,204.8,-0.195572,-1.33994,0,1150.42,-1103.63,-1,0.710938,1221.67,1251065
-0.642639,-0.251526,0.864929,0.701,-0.111,-155.43,204.56,-0.190002,-1.33652,0,911.411,-1203.3,-1,0.710938,1221.69,1251079
-0.275085,-0.143066,0.133972,0.31,0.005,-155.59,204.4,-0.176514,-1.33032,0,1152.54,-1062.53,-1,0.710938,1221.71,1251109
-0.166626,0.0155029,1.39532,0.147,-0.197,-155.57,204.42,-0.169159,-1.32742,0,1141.81,-1295.59,-1,0.710938,1221.73,1251125
-0.235596,-0.152527,1.20673,0.278,-0.059,-155.52,204.47,-0.161499,-1.32471,0,1282.05,-1165.84,-1,0.710938,1221.74,1251139
0.0718384,-0.18396,0.367432,0.01,0.165,-155.43,204.56,-0.145493,-1.31911,0,1207.22,-1035.79,-1,0.710938,1221.77,1251169
0.00561523,-0.0497437,0.849304,0.014,-0.023,-155.39,204.6,-0.145493,-1.31613,0,1168.43,-1115.76,-1,0.710938,1221.78,1251185
0.00286865,-0.16571,1.34674,0.062,0.039,-155.34,204.65,-0.145447,-1.31314,0,1137.2,-1184.41,-1,0.710938,1221.8,1251199
-0.0216675,-0.136841,0.691467,0.074,0.055,-155.27,204.72,-0.145294,-1.31009,0,1278.69,-1170.21,-1,0.710938,1221.83,1251214
-0.00152588,-0.174805,0.695374,0.072,0.097,-155.19,204.8,-0.144699,-1.30385,0,1222.27,-1266.38,-1,0.710938,1221.84,1251245
-0.166504,-0.0606689,1.24719,0.174,-0.123,-155.14,204.85,-0.144165,-1.3007,0,1275.02,-1427.25,-1,0.710938,1221.87,1251259
0.0792236,-0.230469,0.0829468,0.024,0.234,-155.06,204.93,-0.142731,-1.29433,0,1261.19,-1197.68,-1,0.710938,1221.89,1251289
-0.0856323,-0.107117,0.170593,0.122,0.045,-154.98,205.01,-0.141083,-1.28809,0,1325.64,-1398.31,-1,0.710938,1221.93,1251319
-0.0856323,-0.107117,0.170593,0.122,0.045,-154.98,205.01,-0.141083,-1.28809,0,1484.56,-1578.28,-1,0.710938,1221.93,1251319
-0.325623,-0.0112305,1.08124,0.293,-0.217,-154.84,205.15,-0.138702,-1.28258,0,1390.72,-1302.59,-1,0.703125,1221.95,1251349
-0.0947266,-0.0854492,0.274353,0.12,0.013,-154.78,205.21,-0.137085,-1.28011,0,1237.09,-1247.82,-1,0.664062,1221.97,1251364
-0.022522,-0.0453491,0.927429,0.034,-0.046,-154.71,205.28,-0.135361,-1.27765,0,1351.44,-969.791,-1,0.632812,1221.98,1251379
-0.0723267,-0.0855103,1.00421,0.095,-0.036,-154.62,205.37,-0.13356,-1.27527,0,1356.39,-1368.83,-1,0.609375,1222.01,1251394
-0.0996094,0.173035,1.86621,0.009,-0.349,-154.44,205.55,-0.129181,-1.27113,0,1286.67,-1256.83,-1,0.59375,1222.03,1251424
0.306091,-0.100586,0.679199,-0.233,0.168,-154.33,205.66,-0.127045,-1.26938,0,1403.31,-1276.08,-1,0.5625,1222.05,1251439
-0.0501099,-0.000915527,0.448608,0.044,-0.057,-154.21,205.78,-0.125031,-1.26755,0,1235.71,-1222.2,-1,0.515625,1222.07,1251454
0.33197,-0.149902,0.132324,-0.232,0.269,-153.96,206.03,-0.120651,-1.26453,0,1417.33,-1077.35,-1,0.476562,1222.09,1251484
-0.245117,0.0808105,1.99994,0.184,-0.331,-153.84,206.15,-0.118484,-1.26311,0,1561.16,-987.849,-1,0.421875,1222.11,1251499
-0.251709,-0.0282593,0.744812,0.237,-0.141,-153.59,206.4,-0.113586,-1.2608,0,1425.11,-1161.04,-1,0.382812,1222.13,1251529
0.281677,0.14801,1.63776,-0.318,-0.118,-153.41,206.58,-0.111084,-1.25989,0,1454.76,-1026.85,-1,0.34375,1222.15,1251544
-0.408569,0.251404,0.876221,0.251,-0.466,-153.05,206.94,-0.106064,-1.2588,0,1254.86,-1129.5,-1,0.289062,1222.17,1251574
0.202393,-0.0306396,1.1795,-0.166,0.047,-152.82,207.17,-0.103363,-1.25876,0,1320.22,-1025.38,-1,0.25,1222.18,1251589
-0.277893,0.325745,1.99994,0.095,-0.532,-152.56,207.43,-0.100708,-1.25903,0,1561.77,-841.361,-1,0.140625,1222.21,1251604
-0.33252,0.107056,-0.255798,0.244,-0.233,-152.29,207.7,-0.0978241,-1.25983,0,1366.12,-935.76,-1,0.078125,1222.23,1251619
-0.261902,0.416931,1.99994,0.029,-0.59,-151.62,208.37,-0.0914917,-1.26247,0,1542.85,-778.543,-1,0.015625,1222.25,1251649
-0.248352,0.323059,-0.47467,0.063,-0.377,-151.28,208.71,-0.0882263,-1.26469,0,1402.92,-924.77,-1,0.0078125,1222.27,1251664
0.33075,0.275208,1.86188,-0.43,-0.158,-150.83,209.16,-0.0852051,-1.26729,0,1281.15,-907.153,-1,0.0078125,1222.29,1251679
-0.388123,0.0349731,-0.487427,0.318,-0.201,-150,209.99,-0.0797119,-1.27356,0,1438.95,-939.717,-1,0.0078125,1222.3,1251709
-0.197815,0.0797119,1.32062,0.128,-0.224,-149.62,210.37,-0.0765686,-1.27719,0,1210.07,-1024.49,-1,0.0078125,1222.33,1251724
0.0369263,-0.14502,1.7851,0.04,0.071,-149.28,210.71,-0.0733185,-1.28091,0,1171.37,-1164.21,-1,0.0078125,1222.35,1251739
-0.172852,-0.0315552,0.238098,0.163,-0.072,-148.77,211.22,-0.0667419,-1.28854,0,1256.44,-940.071,-1,0.0078125,1222.37,1251769
0.122925,0.0587158,1.31152,-0.137,-0.037,-148.52,211.47,-0.063385,-1.2925,0,1271.7,-950.344,-1,0.0078125,1222.39,1251784
-0.160889,-0.0349731,0.801514,0.155,-0.088,-148.09,211.9,-0.0563965,-1.30075,0,1273.07,-1269.36,-1,0.0078125,1222.41,1251814
0.221924,-0.265076,0.538635,-0.046,0.319,-147.89,212.1,-0.0527039,-1.30481,0,1318.48,-1263.5,-1,0.0078125,1222.43,1251829
0.00128174,0.136719,1.32874,-0.072,-0.168,-147.72,212.27,-0.0490875,-1.30875,0,1354.83,-1129.5,-1,0.0078125,1222.45,1251844
0.121643,-0.0306396,0.752747,-0.084,0.058,-147.56,212.43,-0.0455933,-1.31276,0,1423.89,-1094.63,-1,0.0078125,1222.47,1251859
-0.184753,-0.0323486,1.62921,0.177,-0.14,-147.25,212.74,-0.0383148,-1.32095,0,1383.89,-1265.66,-1,0.0078125,1222.49,1251889
0.0928955,-0.0587158,0.533447,-0.044,0.075,-147.12,212.87,-0.0344696,-1.32515,0,1472.97,-1112.78,-1,0.0078125,1222.5,1251904
-0.0634766,-0.0140381,0.673462,0.063,-0.053,-147.01,212.98,-0.0306244,-1.32935,0,1409.34,-1115.64,-1,0.0078125,1222.53,1251919
0.262146,-0.175598,1.12048,-0.12,0.24,-146.89,213.1,-0.026825,-1.3334,0,1190.83,-1152.94,-1,0.0078125,1222.54,1251934
-0.173523,0.0245361,0.0115967,0.131,-0.116,-146.73,213.26,-0.0194092,-1.34134,0,1346.98,-1204.89,-1,0.0078125,1222.56,1251964
0.06427,-0.038208,0.981628,-0.028,0.022,-146.63,213.36,-0.0155945,-1.34541,0,1445.19,-1294.41,-1,0.0078125,1222.58,1251979
-0.217224,-0.0691528,1.17896,0.224,-0.114,-146.54,213.45,-0.0116577,-1.34955,0,1416.43,-1324.59,-1,0.0078125,1222.6,1251994
-0.175293,-0.10376,0.534973,0.205,-0.036,-146.35,213.64,-0.00312805,-1.35817,0,1453.7,-1528,-1,0.0078125,1222.62,1252024
-0.32251,-0.0217285,1.74774,0.288,-0.24,-146.26,213.73,0.0015564,-1.3627,0,1421.46,-1281.89,-1,0.0078125,1222.65,1252039
-0.346191,0.0351562,0.373291,0.269,-0.24,-146.1,213.89,0.0119171,-1.37253,0,1418.04,-1542.26,-1,0.0078125,1222.66,1252069
-0.00964355,-0.172668,0.680298,0.106,0.106,-145.99,214,0.0175018,-1.37767,0,1368.46,-1209.85,-1,0.0078125,1222.68,1252084
-0.0335083,-0.0349731,1.82776,0.055,-0.069,-145.88,214.11,0.0231934,-1.38278,0,1340.57,-1428.16,-1,-0,1222.71,1252099
-0.0415039,-0.127563,0.228455,0.107,0.071,-145.63,214.36,0.0346985,-1.39311,0,1439.37,-1065.81,-1,-0.0551181,1222.73,1252129
0.0499878,0.0570068,1.87701,-0.062,-0.097,-145.49,214.5,0.0405121,-1.3983,0,1404.3,-1010.2,-1,-0.251969,1222.75,1252144
0.120789,0.370789,0.86731,-0.305,-0.271,-145.36,214.63,0.0460815,-1.40372,0,1687.48,-537.981,-1,-0.448819,1222.77,1252160
-0.165405,0.0941772,0.919312,0.086,-0.199,-144.9,215.09,0.0565033,-1.4158,0,1343.18,-212.902,-1,-0.76378,1222.79,1252189
-0.135315,0.445374,1.14789,-0.141,-0.469,-144.56,215.43,0.0616455,-1.4225,0,1353.36,32.7224,-1,-0.944882,1222.81,1252204
-0.211975,0.223328,0.098938,0.041,-0.307,-144.15,215.84,0.0667267,-1.42972,0,1297.19,413.42,-1,-1,1222.83,1252219
-0.368103,0.35199,0.981995,0.091,-0.515,-143.22,216.77,0.0767365,-1.44576,0,1335.65,569.963,-1,-1,1222.85,1252249
-0.399536,0.482605,0.642517,0.03,-0.632,-142.72,217.27,0.0818176,-1.45486,0,1345.35,634.317,-1,-1,1222.87,1252264
0.000427246,0.364441,1.17517,-0.212,-0.292,-142.17,217.82,0.0867615,-1.46461,0,1305.14,717.669,-1,-1,1222.89,1252279
-0.0734253,0.254089,0.809937,-0.092,-0.243,-141.04,218.95,0.096283,-1.48572,0,1123.53,828.226,-1,-1,1222.91,1252308
0.161377,0.141418,1.00061,-0.201,0,-140.42,219.57,0.1008,-1.4967,0,1235.56,822.842,-1,-1,1222.93,1252324
0.512451,0.211548,1.57605,-0.507,0.182,-139.79,220.2,0.104843,-1.50757,0,1168.5,785.669,-1,-1,1222.95,1252338
0.276855,0.214783,0.890869,-0.338,0.029,-139.16,220.83,0.108292,-1.51828,0,1271.62,924.172,-1,-1,1222.97,1252353
-0.386475,0.329224,1.57092,0.088,-0.473,-137.81,222.18,0.11499,-1.54074,0,1204.09,888.889,-1,-1,1222.98,1252384
-0.0286865,0.15448,0.550293,-0.077,-0.12,-137.1,222.89,0.118393,-1.55267,0,1082.6,915.625,-1,-1,1223,1252398
-0.52478,0.270142,0.394043,0.191,-0.549,-135.61,224.38,0.12532,-1.57826,0,1167.68,968.664,-1,-1,1223.03,1252428
-0.0914917,0.135986,1.01648,-0.016,-0.129,-134.83,225.16,0.128983,-1.59192,0,1200.77,910.83,-1,-1,1223.05,1252444
-0.012207,0.131165,1.00293,-0.069,-0.067,-134.03,225.96,0.132599,-1.60571,0,1109.26,891.703,-1,-1,1223.07,1252458
0.0088501,0.13031,0.445251,-0.095,-0.064,-132.34,227.65,0.139526,-1.63423,0,1101.99,835.806,-1,-1,1223.08,1252488
-0.108826,0.292419,1.18561,-0.126,-0.226,-131.44,228.55,0.142792,-1.64886,0,1082.6,899.685,-1,-1,1223.1,1252504
-0.234863,0.242615,0.711853,-0.019,-0.305,-130.5,229.49,0.145966,-1.66385,0,1019.68,997.855,-1,-1,1223.12,1252518
-0.22168,0.165222,0.850891,0.025,-0.236,-128.57,231.42,0.152359,-1.69572,0,1111.98,1051.97,-1,-1,1223.14,1252548
0.0997314,0.130737,0.746033,-0.149,0.036,-127.55,232.44,0.155502,-1.7121,0,1051.64,1074.75,-1,-1,1223.17,1252564
-0.0910645,0.199585,1.07074,-0.084,-0.137,-126.53,233.46,0.158478,-1.72855,0,1109.2,1015.07,-1,-1,1223.19,1252578
-0.172791,0.308594,0.873413,-0.137,-0.27,-124.43,235.56,0.164078,-1.76212,0,1018.43,942.774,-1,-1,1223.21,1252608
-0.050415,0.179932,0.674988,-0.107,-0.104,-123.33,236.66,0.166641,-1.7793,0,1044.88,847.386,-1,-1,1223.23,1252624
0.0516968,0.190063,0.826355,-0.169,-0.01,-122.21,237.78,0.169022,-1.79655,0,1069.52,813.703,-1,-1,1223.25,1252638
-0.0157471,0.0931396,0.522217,-0.061,-0.026,-118.76,241.23,0.175186,-1.84961,0,1071.58,798.69,-1,-1,1223.28,1252684
-0.0157471,0.0931396,0.522217,-0.061,-0.026,-118.76,241.23,0.175186,-1.84961,0,1124.42,754.859,-1,-1,1223.29,1252684
-0.153015,0.351746,1.18719,-0.209,-0.223,-117.58,242.41,0.17688,-1.86774,0,1117.76,962.371,-1,-1,1223.3,1252698
0.098999,0.314209,0.970215,-0.299,0.02,-115.22,244.77,0.179535,-1.90439,0,1110.68,752.276,-1,-1,1223.32,1252728
0.0397949,0.235596,0.754761,-0.209,-0.008,-114.03,245.96,0.180374,-1.92271,0,1005.43,814.498,-1,-1,1223.34,1252744
-0.198303,0.339355,1.14899,-0.2,-0.234,-112.82,247.17,0.180923,-1.94121,0,1006.14,773.934,-1,-0.700787,1223.36,1252758
0.126953,0.255249,0.767944,-0.259,0.077,-111.6,248.39,0.181168,-1.95981,0,1048,608.884,-1,-0.448819,1223.38,1252773
-0.0540161,0.0918579,0.609253,-0.049,-0.036,-109.13,250.86,0.180786,-1.99756,0,1079.74,487.888,-1,-0.015748,1223.4,1252804
-0.177246,0.0758057,1.01239,0.015,-0.116,-107.87,252.12,0.180481,-2.01666,0,1112.97,215.278,-1,-0.015748,1223.42,1252818
0.162476,-0.12677,1.24597,0.119,0.283,-105.33,254.66,0.18013,-2.05493,0,1081.14,86.4783,-1,0.0078125,1223.44,1252848
-0.0407104,0.00506592,0.934753,0.033,0.03,-104.14,255.85,0.18013,-2.07378,0,1057.25,-86.1508,-1,0.0078125,1223.47,1252864
-0.0994263,-0.237793,0.425964,0.265,-0.011,-103.01,256.98,0.180344,-2.09261,0,997.755,-156.608,-1,0.0078125,1223.49,1252878
0.111572,-0.179688,1.06573,0.182,0.225,-100.84,259.15,0.181427,-2.13062,0,1131.61,-206.313,-1,0.0078125,1223.51,1252908
0.067688,0.0610962,1.1214,-0.044,0.139,-99.85,260.14,0.182144,-2.14937,0,1055.13,-286.32,-1,0.0078125,1223.53,1252924
-0.145142,-0.0734253,0.317993,0.101,-0.108,-98.89,261.1,0.182922,-2.16811,0,1107.42,-259.356,-1,0.0078125,1223.54,1252938
0.0454712,0.0386353,1.32568,-0.014,0.135,-96.95,263.04,0.184647,-2.20567,0,1154.53,-292.629,-1,0.0078125,1223.57,1252968
-0.0315552,-0.0290527,0.925049,0.05,0.034,-96,263.99,0.185532,-2.22429,0,1106.62,-339.443,-1,0.0078125,1223.59,1252983
0.0306396,0.0473633,1.02258,-0.03,0.094,-95.06,264.93,0.186432,-2.24283,0,1135.07,-310.453,-1,0.0078125,1223.6,1252998
0.0020752,-0.0088501,0.912903,0.024,0.06,-93.23,266.76,0.188293,-2.27939,0,1153.07,-343.879,-1,0.0078125,1223.63,1253028
-0.14209,-0.0814209,1.02765,0.103,-0.074,-92.36,267.63,0.189346,-2.29761,0,1064.34,-497.996,-1,0.0078125,1223.65,1253043
-0.0320435,-0.0148315,0.778259,0.026,0.016,-91.5,268.49,0.190475,-2.31586,0,1097.63,-485.166,-1,0.046875,1223.66,1253058
0.0581055,-0.0631714,0.862183,0.074,0.109,-89.82,270.17,0.192703,-2.3158,0,1122.46,-353.188,-1,0.171875,1223.69,1253088
-0.000610352,-0.0281372,0.606201,0.034,0.031,-87.48,272.51,0.195847,-2.31584,0,1227.45,-438.625,-1,0.265625,1223.73,1253133
-0.000610352,-0.0281372,0.606201,0.034,0.031,-87.48,272.51,0.195847,-2.31584,0,1163.26,-469.351,-1,0.265625,1223.73,1253133
0.0948486,-0.154053,0.579834,0.165,0.118,-86.68,273.31,0.196945,-2.31575,0,1293.08,-495.417,-1,0.398438,1223.75,1253148
-0.0873413,-0.0740356,1.06171,0.077,-0.035,-85.91,274.08,0.198212,-2.31561,0,1124.35,-533.39,-1,0.398438,1223.77,1253163
-0.0887451,-0.0532837,1.10938,0.053,-0.035,-85.19,274.8,0.199554,-2.31551,0,1118.94,-750.244,-1,0.28125,1223.79,1253178
-0.02771,-0.220215,0.767395,0.217,-0.011,-83.83,276.16,0.20285,-2.31535,0,1035.63,-663.438,-1,0.21875,1223.81,1253208
0.15332,-0.120361,1.19592,0.138,0.196,-83.19,276.8,0.20488,-2.31514,0,1157.41,-572.738,-1,0.15625,1223.83,1253223
-0.0285034,0.0281372,0.328064,-0.032,-0.008,-82.01,277.98,0.209244,-2.31371,0,1137.59,-521.853,-1,0.15625,1223.85,1253253
-0.0285034,0.0281372,0.328064,-0.032,-0.008,-82.01,277.98,0.209244,-2.31371,0,1083.95,-563.936,-1,0.523438,1223.87,1253253
0.0564575,-0.0158691,1.05658,0.024,0.103,-80.77,279.22,0.213699,-2.31139,0,1110.49,-673.355,-1,0.726562,1223.89,1253283
0.0593262,-0.0839844,0.512756,0.091,0.067,-80.17,279.82,0.216034,-2.30998,0,1294.75,-707.789,-1,0.726562,1223.91,1253298
0.411072,-0.32843,0.866211,0.396,0.379,-79.07,280.92,0.22168,-2.30655,0,1092.9,-763.504,-1,0.929688,1223.93,1253328
0.411987,-0.298523,1.25635,0.364,0.398,-78.63,281.36,0.225266,-2.30414,0,1159.69,-1108.22,-1,0.984375,1223.95,1253343
0.297852,-0.452148,0.527588,0.496,0.221,-78.25,281.74,0.229431,-2.3013,0,1158.01,-1086.9,-1,1,1223.97,1253358
0.416138,-0.386597,0.404907,0.457,0.338,-77.72,282.27,0.239426,-2.29465,0,1239.54,-1232.21,-1,1,1223.99,1253388
0.410461,-0.129761,1.49963,0.179,0.42,-77.56,282.43,0.245132,-2.2906,0,1187.44,-909.215,-1,0.882812,1224,1253403
0.160706,-0.201416,0.89093,0.205,0.136,-77.48,282.51,0.251099,-2.28619,0,1301.07,-1258.81,-1,0.75,1224.02,1253418
0.123047,-0.122925,0.785461,0.12,0.113,-77.39,282.6,0.263855,-2.27689,0,1417.84,-1459.96,-1,0.679688,1224.04,1253448
-0.239746,-0.0392456,0.982727,-0.049,-0.22,-77.35,282.64,0.270401,-2.27223,0,1158.28,-1224.29,-1,0.65625,1224.07,1253463
-0.140076,0.0215454,0.777344,-0.079,-0.114,-77.3,282.69,0.276871,-2.26781,0,1428.06,-1382.84,-1,0.65625,1224.08,1253478
-0.194824,-0.00775146,0.788818,-0.064,-0.174,-77.15,282.84,0.289871,-2.25917,0,1446.86,-873.134,-1,0.65625,1224.11,1253508
0.265808,-0.304382,0.385193,0.341,0.199,-77.06,282.93,0.296585,-2.25488,0,1355.84,-1229.71,-1,0.65625,1224.13,1253523
-0.0773315,0.164917,1.7887,-0.242,0,-76.99,283,0.30336,-2.25046,0,1321.88,-1397.43,-1,0.65625,1224.15,1253538
-0.00646973,0.0193481,1.75916,-0.083,0.033,-76.8,283.19,0.316498,-2.24188,0,1311.82,-1192.61,-1,0.65625,1224.17,1253568
0.118408,-0.0882568,0.609253,0.092,0.107,-76.68,283.31,0.323029,-2.23753,0,1456.98,-1273.16,-1,0.65625,1224.19,1253583
-0.0172729,-0.0129395,0.659119,-0.014,-0.006,-76.47,283.52,0.336121,-2.22823,0,1400.27,-1328.2,-1,0.71875,1224.21,1253613
-0.034668,0.0303345,1.42896,-0.085,0.002,-76.35,283.64,0.342575,-2.22351,0,1242.39,-1503.31,-1,0.75,1224.23,1253628
0.0755615,0.036377,0.835815,-0.045,0.099,-76.26,283.73,0.348938,-2.21872,0,1384.08,-1087.43,-1,0.757812,1224.25,1253643
-0.158813,0.118408,1.02881,-0.187,-0.105,-76.17,283.82,0.355148,-2.21393,0,1369.21,-1462.84,-1,0.757812,1224.27,1253658
-0.0421143,0.0316162,1.42078,-0.088,-0.008,-75.99,284,0.367447,-2.20444,0,1485.22,-1231,-1,0.757812,1224.29,1253688
-0.252808,0.0148926,0.928284,-0.108,-0.225,-75.92,284.07,0.373459,-2.19984,0,1413.03,-676.75,-1,0.757812,1224.3,1253703
-0.0474243,0.119812,1.55249,-0.181,0.011,-75.8,284.19,0.385208,-2.19127,0,1476.45,-1236.02,-1,0.757812,1224.34,1253733
0.212952,-0.0280762,0.795959,0.051,0.214,-75.74,284.25,0.390915,-2.18687,0,1388.5,-1535.27,-1,0.757812,1224.34,1253748
-0.108582,0.0835571,1.22101,-0.15,-0.062,-75.6,284.39,0.402435,-2.17783,0,1376.56,-1251.41,-1,0.757812,1224.38,1253778
-0.108582,0.0835571,1.22101,-0.15,-0.062,-75.6,284.39,0.402435,-2.17783,0,1520.8,-1392.47,-1,0.757812,1224.39,1253778
0.159241,0.0258179,1.46704,-0.037,0.188,-75.49,284.5,0.413925,-2.16895,0,1617.47,-1255.97,-1,0.757812,1224.41,1253808
-0.155945,-0.120422,0.119751,0.072,-0.178,-75.41,284.58,0.419739,-2.16446,0,1557.27,-1349.53,-1,0.757812,1224.43,1253823
-0.0721436,0.126465,1.82623,-0.207,-0.005,-75.34,284.65,0.425446,-2.1601,0,1420.66,-1513.43,-1,0.757812,1224.45,1253838
0.00628662,-0.0471191,0.669189,0.021,0.006,-75.2,284.79,0.436981,-2.15076,0,1429.18,-1499.14,-1,0.757812,1224.47,1253868
0.208984,0.0894165,1.24902,-0.08,0.245,-75.14,284.85,0.44278,-2.14581,0,1526.83,-1389.27,-1,0.757812,1224.49,1253883
-0.162109,0.135132,1.29144,-0.218,-0.097,-75.07,284.92,0.44838,-2.14076,0,1523.46,-1610.95,-1,0.757812,1224.51,1253898
    -2,0.619995,1.99994,-1.194,-1.736,-74.89,285.1,0.458557,-2.13173,0,1438.64,-1374.48,-1,0.757812,1224.53,1253928
-0.601624,0.0169678,0.0597534,-0.176,-0.575,-74.8,285.19,0.462326,-2.12933,0,1423.79,-1484.67,-1,0.757812,1224.54,1253943
0.0804443,-0.09375,-0.635803,0.137,0.039,-74.69,285.3,0.466064,-2.1273,0,1403.61,-1595.02,-1,0.757812,1224.57,1253958
-0.236206,0.246277,1.99994,-0.374,-0.125,-74.53,285.46,0.47261,-2.12334,0,1461.45,-1351.81,-1,0.757812,1224.59,1253988
0.452576,-0.291016,-2,0.495,0.323,-74.49,285.5,0.475708,-2.12128,0,1406.87,-1684.07,-1,0.757812,1224.6,1254003
0.394226,0.204895,1.22968,-0.146,0.451,-74.43,285.56,0.479019,-2.11868,0,1418.64,-1560.67,-1,0.757812,1224.63,1254018
0.43335,0.505005,1.51239,-0.435,0.577,-74.31,285.68,0.485153,-2.11232,0,1624.04,-1524.51,-1,0.757812,1224.65,1254047
0.0670776,-0.379028,-0.335632,0.397,-0.044,-74.24,285.75,0.488052,-2.10857,0,1578.78,-1353.64,-1,0.757812,1224.67,1254063
-0.536377,0.283081,1.99994,-0.502,-0.405,-74.17,285.82,0.490875,-2.1051,0,1559.21,-1696.35,-1,0.757812,1224.69,1254077
-0.0198975,-0.0933838,0.491577,0.063,-0.035,-74.04,285.95,0.496155,-2.09793,0,1402.82,-1345.44,-1,0.757812,1224.71,1254107
-0.172852,-0.0936279,1.43695,-0.019,-0.17,-73.99,286,0.498886,-2.09436,0,1552.43,-1626.15,-1,0.757812,1224.73,1254123
0.252441,-0.0339966,0.971619,0.062,0.248,-73.93,286.06,0.501633,-2.09073,0,1451.91,-1345.8,-1,0.757812,1224.75,1254137
0.175598,0.0150757,1.03149,-0.006,0.187,-73.79,286.2,0.507172,-2.08305,0,1603.08,-1259.84,-1,0.757812,1224.76,1254167
0.103333,0.190125,1.94489,-0.225,0.183,-73.71,286.28,0.509781,-2.07892,0,1506.82,-1422.27,-1,0.757812,1224.79,1254183
0.0836792,-0.0298462,-0.365356,0.066,0.066,-73.66,286.33,0.512268,-2.0746,0,1583.53,-1346.62,-1,0.695312,1224.81,1254197
0.114075,0.0325928,1.4057,-0.047,0.134,-73.5,286.49,0.517487,-2.06598,0,1576.29,-1440.2,-1,0.679688,1224.82,1254227
0.18689,-0.0872192,-0.103088,0.14,0.153,-73.43,286.56,0.520172,-2.06146,0,1521.72,-1634.65,-1,0.664062,1224.84,1254243
0.34436,0.3172,1.99994,-0.277,0.439,-73.35,286.64,0.522766,-2.05653,0,1431.02,-1386.87,-1,0.664062,1224.86,1254257
0.18988,-0.124878,-0.0718994,0.176,0.144,-73.17,286.82,0.527405,-2.04524,0,1482.69,-1558,-1,0.664062,1224.88,1254287
-0.534302,0.248535,1.99994,-0.459,-0.423,-73.09,286.9,0.529541,-2.03963,0,1459.11,-1552.8,-1,0.664062,1224.9,1254303
0.00158691,0.187012,0.585571,-0.198,0.06,-73.04,286.95,0.531235,-2.03426,0,1400.46,-1321.27,-1,0.640625,1224.92,1254317
-0.0526733,0.454834,1.99994,-0.512,0.095,-72.92,287.07,0.534393,-2.02353,0,1408.55,-1419.24,-1,0.625,1224.95,1254347
0.0654297,0.0719604,-0.126221,-0.045,0.083,-72.85,287.14,0.535492,-2.01804,0,1493.65,-1374.19,-1,0.625,1224.96,1254363
0.61969,0.0279541,0.610901,0.136,0.602,-72.77,287.22,0.536652,-2.01208,0,1465.63,-1311.65,-1,0.625,1224.99,1254377
-0.820435,0.0551147,0.503113,-0.313,-0.766,-72.6,287.39,0.53833,-1.99953,0,1394.99,-1524.39,-1,0.625,1225.01,1254407
-0.508911,-0.0838623,-0.303528,-0.064,-0.509,-72.5,287.49,0.538696,-1.99431,0,1394.99,-1094.39,-0.929688,0.625,1225.03,1254423
-0.390808,0.445007,1.22089,-0.572,-0.233,-72.38,287.61,0.538635,-1.98959,0,1540.71,-671.637,-0.867188,0.625,1225.05,1254437
0.0913086,0.0107422,0.49939,0.005,0.092,-72.12,287.87,0.537552,-1.98111,0,1332.98,-1118.76,-0.84375,0.625,1225.07,1254467
-0.13739,0.456238,1.99994,-0.514,0.019,-71.96,288.03,0.536636,-1.97687,0,1399.68,-1339.14,-0.835938,0.625,1225.09,1254483
0.109802,-0.0430298,-0.935791,0.096,0.089,-71.87,288.12,0.535446,-1.97255,0,1416.53,-1253.92,-0.828125,0.625,1225.11,1254497
0.0484619,0.284729,1.86066,-0.286,0.141,-71.69,288.3,0.533463,-1.96335,0,1244.4,-1388.6,-0.804688,0.625,1225.13,1254527
-0.108154,0.213501,1.7348,-0.269,-0.032,-71.63,288.36,0.532089,-1.95857,0,1405.78,-1500.49,-0.789062,0.625,1225.15,1254543
-0.00482178,0.0825195,0.330139,-0.085,0.021,-71.57,288.42,0.530457,-1.95381,0,1395.19,-1345.08,-0.75,0.625,1225.17,1254557
0.00775146,0.361206,1.99994,-0.369,0.119,-71.47,288.52,0.527176,-1.94391,0,1269.52,-1417.84,-0.734375,0.625,1225.19,1254587
0.343384,-0.0546265,0.472046,0.154,0.306,-71.39,288.6,0.523376,-1.93291,0,1237.93,-1288.41,-0.734375,0.625,1225.22,1254617
0.239075,0.078186,1.58966,-0.012,0.246,-71.36,288.63,0.521622,-1.92682,0,1168.09,-1153.07,-0.734375,0.625,1225.24,1254632
0.081604,0.0549927,0.0106812,-0.026,0.094,-71.34,288.65,0.519836,-1.92052,0,1321.27,-702.914,-0.734375,0.625,1225.25,1254647
0.0103149,-0.000427246,0.66217,-0.004,0.004,-71.32,288.67,0.518021,-1.91414,0,1272.59,-1138.24,-0.703125,0.625,1225.27,1254662
-0.21991,0.0219116,1.58038,-0.103,-0.21,-71.3,288.69,0.516144,-1.90791,0,1375.14,-1199.47,-0.640625,0.625,1225.28,1254677
-0.194031,0.112244,0.34552,-0.172,-0.15,-71.26,288.73,0.51207,-1.89586,0,1242.24,-1183.57,-0.640625,0.625,1225.3,1254707
0.129578,0.0733643,0.922974,-0.034,0.139,-71.24,288.75,0.509811,-1.88988,0,1204.02,-1142.86,-0.585938,0.710938,1225.32,1254722
0.137817,0.15509,1.08234,-0.108,0.17,-71.21,288.78,0.507462,-1.88371,0,1218.99,-985.562,-0.523438,0.726562,1225.35,1254737
0.314575,0.0741577,0.263184,0.03,0.318,-71.18,288.81,0.50209,-1.87117,0,1122.78,-1085.3,-0.523438,0.726562,1225.37,1254767
0.168335,0.169189,1.21338,-0.108,0.197,-71.16,288.83,0.499252,-1.8645,0,1124.48,-1284.77,-0.5,0.742188,1225.39,1254782
0.413086,-0.166748,0.969299,0.292,0.324,-71.15,288.84,0.496552,-1.85745,0,1048.44,-1085.07,-0.492188,0.742188,1225.41,1254797
0.227234,0.262939,0.710754,-0.175,0.287,-71.28,288.71,0.491013,-1.84248,0,1026.85,-1229.94,-0.492188,0.75,1225.43,1254827
0.0841675,0.0581055,1.06067,-0.023,0.08,-71.37,288.62,0.487976,-1.83459,0,1103.69,-1227.45,-0.492188,0.75,1225.45,1254842
-0.16626,0.122681,0.570374,-0.167,-0.128,-71.44,288.55,0.484818,-1.82675,0,940.203,-1311.56,-0.492188,0.75,1225.47,1254857
-0.198547,0.116089,0.35321,-0.17,-0.158,-71.58,288.41,0.477661,-1.81123,0,1010.71,-1266.06,-0.484375,0.75,1225.48,1254887
0.100769,0.195129,1.42804,-0.141,0.13,-71.64,288.35,0.47374,-1.80353,0,962.51,-1025.01,-0.484375,0.75,1225.51,1254902
0.0463257,-0.003479,0.335876,0.02,0.036,-71.71,288.28,0.469742,-1.7957,0,1075.15,-1141.68,-0.484375,0.75,1225.53,1254917
-0.0360718,0.0470581,0.714233,-0.048,-0.034,-71.86,288.13,0.4617,-1.78024,0,988.142,-1259.6,-0.484375,0.75,1225.55,1254947
0.0292358,0.00012207,0.603149,0.014,0.014,-71.94,288.05,0.457642,-1.77257,0,973.71,-1011.07,-0.453125,0.75,1225.56,1254962
-0.000183105,0.187622,1.31659,-0.164,0.03,-72.02,287.97,0.453476,-1.76488,0,1000.2,-1168.57,-0.421875,0.75,1225.58,1254977
-0.0627441,0.109558,1.00012,-0.111,-0.048,-72.15,287.84,0.444702,-1.74921,0,935.804,-1275.27,-0.34375,0.75,1225.61,1255007
0.128662,-0.00537109,0.462463,0.05,0.109,-72.21,287.78,0.440216,-1.7413,0,1006.09,-1055.46,-0.28125,0.75,1225.62,1255022
0.0942993,0.0513916,1.37085,0,0.072,-72.31,287.68,0.43576,-1.73328,0,907.276,-1203.37,-0.25,0.75,1225.65,1255037
-0.0488281,0.301941,0.976624,-0.287,0.017,-72.55,287.44,0.42659,-1.71669,0,825.73,-1114.83,-0.203125,0.75,1225.67,1255067
0.0908813,0.193237,1.112,-0.138,0.112,-72.68,287.31,0.421585,-1.70822,0,866.589,-1227.52,-0.1875,0.75,1225.69,1255082
0.234741,0.218506,1.35431,-0.114,0.247,-73.03,286.96,0.411179,-1.69106,0,704.424,-1066.89,-0.179688,0.75,1225.72,1255112
0.230042,0.213867,0.609558,-0.125,0.261,-73.22,286.77,0.405746,-1.68204,0,723.537,-1151.54,-0.164062,0.75,1225.73,1255127
0.0101318,0.160828,0.595703,-0.136,0.034,-73.43,286.56,0.400146,-1.67282,0,716.409,-1212.34,-0.164062,0.75,1225.75,1255142
-0.0321655,0.190613,1.01141,-0.167,-0.014,-73.65,286.34,0.394333,-1.6636,0,598.641,-1061.01,-0.0390625,0.75,1225.77,1255157
0.169495,0.13916,0.789307,-0.066,0.169,-74.14,285.85,0.382034,-1.64494,0,640.43,-990.491,-0.015625,0.765625,1225.79,1255187
-0.0900269,0.0949707,1.10101,-0.083,-0.106,-74.4,285.59,0.375687,-1.63548,0,821.456,-1115.76,-0.0078125,0.78125,1225.81,1255202
0.156921,-0.0529175,0.647949,0.111,0.111,-74.65,285.34,0.36937,-1.62604,0,765.111,-1107.54,-0.0078125,0.804688,1225.83,1255217
-0.0290527,-0.0547485,0.713623,0.065,-0.07,-75.03,284.96,0.35675,-1.60722,0,768.02,-1039.12,-0.0078125,0.804688,1225.85,1255247
-0.0325317,-0.108948,1.06018,0.125,-0.1,-75.18,284.81,0.350571,-1.59801,0,875.925,-1085.6,-0.0078125,0.804688,1225.87,1255262
-0.21814,-0.053772,0.696533,0.015,-0.25,-75.34,284.65,0.344482,-1.58902,0,960.2,-925.455,-0.0078125,0.804688,1225.89,1255277
-0.0863647,-0.0719604,0.805359,0.068,-0.13,-75.59,284.4,0.332474,-1.57153,0,957.717,-1059.6,-0.0078125,0.804688,1225.91,1255307
0.113037,-0.039856,1.08691,0.092,0.061,-75.7,284.29,0.32663,-1.56288,0,887.075,-1078.34,-0.0078125,0.804688,1225.93,1255322
-0.151672,0.0427246,0.603699,-0.064,-0.158,-75.82,284.17,0.320801,-1.55431,0,949.983,-1164.14,-0.0078125,0.8125,1225.95,1255337
0.150879,-0.12793,0.809937,0.178,0.087,-76.01,283.98,0.309189,-1.53731,0,866.176,-1109.2,-0.0078125,0.8125,1225.97,1255367
-0.225342,0.0765381,1.16022,-0.103,-0.239,-76.12,283.87,0.303497,-1.52888,0,977.708,-1000.45,-0.0078125,0.8125,1225.99,1255382
0.244446,-0.0494995,0.851746,0.123,0.197,-76.21,283.78,0.297821,-1.52049,0,913.284,-1075.96,-0.0078125,0.8125,1226.01,1255397
-0.0560913,0.0344849,1.26984,-0.022,-0.088,-76.39,283.6,0.286728,-1.50371,0,894.134,-1211.61,-0.0078125,0.8125,1226.02,1255427
0.0527344,-0.0584106,0.547791,0.078,0.019,-76.48,283.51,0.281219,-1.49542,0,1006.29,-997.705,-0.0078125,0.8125,1226.05,1255442
-0.0856323,-0.0797729,1.0365,0.075,-0.136,-76.57,283.42,0.275818,-1.48721,0,911.993,-1016.57,-0.0078125,0.8125,1226.07,1255457
0.131165,0.0455322,0.835632,-0.001,0.108,-76.72,283.27,0.26532,-1.47069,0,1019.63,-1291.74,-0.0078125,0.820312,1226.09,1255487
-0.187317,0.0701294,0.879272,-0.097,-0.196,-76.79,283.2,0.260025,-1.4624,0,1005.73,-1153.14,-0.0078125,0.820312,1226.11,1255502
0.150574,-0.0425415,1.24133,0.093,0.093,-76.85,283.14,0.254745,-1.45419,0,1032.42,-1069.18,-0.0078125,0.820312,1226.12,1255517
0.102112,0.0671997,1.06433,-0.027,0.078,-76.97,283.02,0.244507,-1.43768,0,976.229,-1142.47,-0.0078125,0.820312,1226.14,1255547
-0.0311279,0.0322266,1.15515,-0.021,-0.059,-77.02,282.97,0.23938,-1.4294,0,1049.04,-977.374,-0.0078125,0.828125,1226.16,1255562
0.153442,-0.0396118,0.623596,0.081,0.121,-77.07,282.92,0.234283,-1.42107,0,1004.27,-1281.56,-0.0078125,0.828125,1226.19,1255577
-0.285339,0.00518799,1.51324,-0.049,-0.321,-77.17,282.82,0.224228,-1.40474,0,1126.19,-1242.47,-0.0078125,0.828125,1226.21,1255607
0.11261,-0.0668945,0.903076,0.1,0.07,-77.22,282.77,0.219208,-1.3969,0,1057.7,-1350.17,0,0.835938,1226.23,1255622
0.0168457,-0.0259399,0.858826,0.038,-0.011,-77.27,282.72,0.214294,-1.38901,0,988.631,-1135.78,0.015748,0.835938,1226.25,1255637
0.116028,0.0789795,0.990784,-0.042,0.104,-77.4,282.59,0.204559,-1.37286,0,1086.37,-1210.29,0.0472441,0.835938,1226.27,1255667
-0.0455933,0.0296631,1.04932,-0.03,-0.066,-77.47,282.52,0.199646,-1.36467,0,914.328,-1196.1,0.0944882,0.835938,1226.29,1255682
0.00695801,0.0552979,1.09076,-0.044,-0.011,-77.54,282.45,0.194687,-1.35654,0,477.966,-1174.95,0.165354,0.835938,1226.31,1255697
0.183777,0.119507,1.02429,-0.068,0.17,-77.8,282.19,0.184692,-1.33945,0,330.393,-1326.35,0.23622,0.835938,1226.32,1255726
0.175476,0.183777,1.16144,-0.131,0.168,-78.01,281.98,0.17955,-1.33049,0,186.659,-1286.84,0.259843,0.835938,1226.34,1255742
0.458984,0.0990601,0.34198,0,0.456,-78.29,281.7,0.174316,-1.32112,0,71.0972,-1079.04,0.267717,0.835938,1226.36,1255756
0.136108,0.0270996,0.928589,0.011,0.097,-78.99,281,0.163589,-1.30122,0,17.2195,-1188.64,0.267717,0.835938,1226.38,1255786
0.316833,0.243958,0.864441,-0.169,0.316,-79.39,280.6,0.158081,-1.29088,0,-12.3283,-1220.03,0.267717,0.835938,1226.4,1255802
0.166565,0.210571,1.5119,-0.153,0.128,-79.83,280.16,0.152359,-1.28023,0,-12.3283,-1168.98,0.267717,0.835938,1226.42,1255816
0.196777,0.102905,0.96814,-0.052,0.158,-80.81,279.18,0.140671,-1.25797,0,-12.3283,-1135.2,0.267717,0.835938,1226.44,1255846
0.382385,0.227722,1.26019,-0.14,0.342,-81.35,278.64,0.134674,-1.24632,0,-12.3283,-1231.38,0.275591,0.835938,1226.46,1255862
0.245728,0.177795,0.713501,-0.125,0.225,-81.91,278.08,0.128494,-1.2343,0,-12.3283,-1051.52,0.275591,0.835938,1226.48,1255876
0.0806885,0.36084,1.30548,-0.313,0.041,-83.11,276.88,0.115524,-1.20915,0,-12.3283,-1091.05,0.299213,0.835938,1226.51,1255906
0.230896,0.131775,0.665283,-0.086,0.202,-83.7,276.29,0.108627,-1.19629,0,-12.3283,-1078.05,0.322835,0.835938,1226.52,1255922
0.276123,0.108215,0.365601,-0.069,0.261,-84.3,275.69,0.101624,-1.18309,0,-5.51789,-1183.57,0.346457,0.835938,1226.54,1255936
0.262939,0.214844,1.18323,-0.153,0.2,-85.59,274.4,0.0872955,-1.15613,0,-5.84973,-1040.31,0.370079,0.835938,1226.57,1255966
0.00921631,0.221924,1.26117,-0.176,-0.06,-86.26,273.73,0.079834,-1.14247,0,-5.70186,-1071.81,0.370079,0.835938,1226.59,1255982
0.469604,0.304932,0.635193,-0.256,0.444,-86.92,273.07,0.0720673,-1.12856,0,-5.70186,-1217.95,0.370079,0.835938,1226.61,1255996
-0.0296021,-0.0764771,1.99994,0.159,-0.191,-88.43,271.56,0.0559387,-1.0994,0,-184.43,-657.16,0.370079,0.835938,1226.63,1256026
0.322327,0.208008,0.51001,-0.181,0.287,-89.2,270.79,0.0478516,-1.08467,0,-89.3827,-1294.25,0.370079,0.835938,1226.65,1256042
0.229553,0.289551,-0.185547,-0.296,0.242,-90.03,269.96,0.0394287,-1.06958,0,-31.6304,-959.279,0.370079,0.835938,1226.67,1256057
0.436035,0.0767212,-0.386414,-0.107,0.461,-91.67,268.32,0.0215759,-1.03963,0,-78.69,-963.948,0.370079,0.835938,1226.69,1256086
0.0101929,0.320129,1.26965,-0.256,-0.103,-92.53,267.46,0.0122681,-1.02438,0,-61.2657,-1218.55,0.370079,0.835938,1226.71,1256102
0.320679,0.193054,0.700562,-0.175,0.251,-93.41,266.58,0.00265503,-1.00905,0,-35.1807,-983.913,0.370079,0.835938,1226.72,1256116
0.225586,0.185364,1.04437,-0.146,0.122,-95.19,264.8,-0.0171051,-0.977707,0,-69.2878,-907.194,0.370079,0.835938,1226.75,1256146
0.135986,0.076416,0.810486,-0.043,0.06,-96.1,263.89,-0.0272217,-0.961823,0,-68.5326,-966.791,0.370079,0.835938,1226.77,1256162
0.237976,0.160828,0.814941,-0.14,0.148,-97.03,262.96,-0.0374451,-0.945801,0,-50.8617,-971.581,0.370079,0.835938,1226.78,1256176
0.055542,0.0957031,0.655884,-0.061,-0.015,-98.91,261.08,-0.0585022,-0.913635,0,-85.4022,-1100.29,0.370079,0.835938,1226.8,1256206
0.285461,0.125,0.980896,-0.108,0.174,-99.88,260.11,-0.0692291,-0.897476,0,-90.6438,-1003.51,0.370079,0.835938,1226.83,1256222
0.174561,0.125427,0.669006,-0.111,0.088,-100.84,259.15,-0.0800934,-0.881119,0,-104.304,-966.277,0.370079,0.835938,1226.84,1256236
-0.00640869,0.137024,0.843506,-0.074,-0.11,-102.83,257.16,-0.102203,-0.848648,0,-118.019,-975.324,0.370079,0.835938,1226.86,1256266
0.22229,0.06604,0.836975,-0.058,0.125,-103.81,256.18,-0.113403,-0.832489,0,-149.361,-581.024,0.370079,0.835938,1226.88,1256282
0.0772705,0.106201,1.08423,-0.044,-0.047,-104.8,255.19,-0.124664,-0.816269,0,-152.025,-1236.93,0.370079,0.835938,1226.91,1256296
0.232361,0.090332,0.854248,-0.091,0.12,-106.83,253.16,-0.147339,-0.783768,0,-196.323,-947.284,0.370079,0.835938,1226.92,1256326
0.0568848,0.139465,0.910095,-0.083,-0.068,-107.85,252.14,-0.158829,-0.767426,0,-177.775,-819.739,0.370079,0.835938,1226.94,1256342
0.188782,0.0126953,0.977173,0,0.088,-108.87,251.12,-0.170364,-0.751068,0,-201.404,-909.753,0.370079,0.835938,1226.96,1256356
0.190491,0.043396,1.08319,-0.025,0.066,-110.93,249.06,-0.193619,-0.718246,0,-191.097,-1014.3,0.370079,0.835938,1226.99,1256386
0.146301,0.129272,1.30774,-0.074,-0.025,-111.99,248,-0.205353,-0.701797,0,-190.299,-1073.48,0.370079,0.835938,1227.01,1256401
0.14386,0.187988,1.10101,-0.142,-0.04,-114.08,245.91,-0.229279,-0.668793,0,-220.029,-1266.46,0.299213,0.835938,1227.03,1256431
-0.0119019,0.0906372,0.565369,-0.031,-0.097,-115.12,244.87,-0.241455,-0.65239,0,-168.393,-1310.79,0.291339,0.835938,1227.05,1256446
0.141418,0.108765,1.13757,-0.065,-0.018,-116.2,243.79,-0.253708,-0.636047,0,-128.117,-1047.39,0.267717,0.835938,1227.07,1256461
0.0475464,0.111389,0.765015,-0.057,-0.074,-117.27,242.72,-0.266037,-0.619781,0,-128.296,-1074.81,0.125984,0.835938,1227.09,1256476
0.182678,0.0316772,0.996582,-0.032,0.058,-119.44,240.55,-0.290909,-0.587296,0,-73.2907,-1082.31,0.0629921,0.835938,1227.11,1256506
0.25061,0.0889282,1.3714,-0.085,0.053,-120.52,239.47,-0.303467,-0.570969,0,-49.3414,-1149.03,0.00787402,0.835938,1227.13,1256521
0.242981,-0.0401001,0.712769,-0.031,0.166,-121.59,238.4,-0.316101,-0.554474,0,32.1688,-526.44,-0.03125,0.835938,1227.15,1256536
-0.0834961,0.0579834,1.20117,0.102,-0.203,-123.66,236.33,-0.341553,-0.521378,0,150.332,-1209.26,-0.265625,0.835938,1227.17,1256566
0.217712,-0.0186768,0.934387,-0.027,0.11,-124.68,235.31,-0.354233,-0.504944,0,270.533,-1064.57,-0.640625,0.835938,1227.19,1256581
-0.00463867,0.0424194,1.12189,0.065,-0.122,-125.66,234.33,-0.366898,-0.488525,0,411.768,-935.191,-0.859375,0.835938,1227.21,1256596
-0.0800781,-0.0986938,0.7547,0.19,-0.065,-127.49,232.5,-0.39183,-0.455826,0,786.473,-1070.55,-0.984375,0.835938,1227.23,1256626
-0.203247,-0.199524,0.852051,0.352,-0.104,-128.3,231.69,-0.403839,-0.439606,0,822.673,-1005.68,-1,0.835938,1227.24,1256641
-0.057251,-0.336609,1.06287,0.38,0.081,-129.02,230.97,-0.415344,-0.423401,0,793.147,-936.549,-1,0.835938,1227.27,1256656
-0.0912476,-0.3797,1.21851,0.428,0.078,-130.14,229.85,-0.435974,-0.391403,0,765.316,-956.434,-1,0.835938,1227.29,1256686
-0.361084,-0.315979,0.754089,0.518,-0.125,-130.52,229.47,-0.445221,-0.375488,0,779.029,-1000.4,-1,0.835938,1227.31,1256701
-0.388245,-0.109009,0.956177,0.387,-0.292,-130.83,229.16,-0.453857,-0.359863,0,939.541,-895.776,-1,0.835938,1227.33,1256716
-0.42926,-0.213745,1.39197,0.505,-0.277,-131.21,228.78,-0.469223,-0.329391,0,1025.12,-1028.86,-1,0.835938,1227.35,1256746
-0.295898,-0.13623,0.90332,0.332,-0.194,-131.29,228.7,-0.475998,-0.31459,0,1121.08,-1078.34,-1,0.835938,1227.36,1256761
-0.0628662,-0.306946,0.84314,0.301,0.097,-131.29,228.7,-0.488159,-0.285461,0,1099.93,-1059.32,-1,0.835938,1227.39,1256791
0.250671,-0.170593,0.938354,-0.006,0.235,-131.25,228.74,-0.493805,-0.270691,0,1187.93,-681.71,-1,0.835938,1227.41,1256806
0.0175781,-0.109924,1.11102,0.104,0.008,-131.21,228.78,-0.499405,-0.255753,0,1365.56,-1145.21,-0.929688,0.835938,1227.43,1256821
0.13446,-0.255371,0.576111,0.119,0.226,-131.17,228.82,-0.504837,-0.240646,0,1222.87,-1128.22,-0.929688,0.835938,1227.44,1256836
0.00732422,-0.347229,0.747864,0.275,0.177,-131.06,228.93,-0.520142,-0.194016,0,1215.07,-1326.79,-0.765625,0.773438,1227.49,1256881
0.180542,-0.117004,0.932129,-0.008,0.143,-131.05,228.94,-0.52478,-0.177994,0,1285.26,-1054.3,-0.765625,0.773438,1227.49,1256896
0.180542,-0.117004,0.932129,-0.008,0.143,-131.05,228.94,-0.52478,-0.177994,0,1246.03,-1373.82,-0.359375,0.65625,1227.5,1256896
-0.0974731,0.108887,1.54626,0.017,-0.259,-131.02,228.97,-0.5383,-0.129318,0,982.656,-1269.04,-0.109375,0.398438,1227.54,1256941
-0.0974731,0.108887,1.54626,0.017,-0.259,-131.02,228.97,-0.5383,-0.129318,0,892.658,-1448.86,-0.109375,0.398438,1227.55,1256941
0.00390625,0.331726,1.80505,-0.195,-0.341,-131.14,228.85,-0.539658,-0.0817108,0,602.283,-1044.77,-0.109375,0.398438,1227.59,1256986
-0.183289,0.443176,1.14526,-0.162,-0.499,-131.4,228.59,-0.544708,-0.0369415,0,575.225,-845.594,-0.0078125,0.0078125,1227.63,1257031
0.247009,0.170471,0.485474,-0.269,0.042,-131.45,228.54,-0.54718,-0.0229187,0,595.912,-1174.4,-0.0078125,0.0078125,1227.65,1257046
-0.267578,0.350769,1.1026,-0.031,-0.492,-131.51,228.48,-0.54985,-0.00920105,0,630.159,-955.612,-0.0078125,0.0078125,1227.67,1257061
0.187805,0.407837,1.16095,-0.37,-0.191,-131.6,228.39,-0.552795,0.00402832,0,761.934,-733.918,-0.0078125,0.0078125,1227.69,1257076
-0.121033,0.1828,0.338562,-0.037,-0.228,-131.75,228.24,-0.559952,0.0296936,0,799.073,-759.619,-0.0078125,0.0078125,1227.71,1257106
-0.441772,0.232483,1.97638,0.233,-0.567,-131.82,228.17,-0.563522,0.0418396,0,818.599,-774.353,-0.0078125,0.0078125,1227.73,1257121
-0.18103,0.0855103,0.339722,0.075,-0.206,-131.83,228.16,-0.566895,0.0534515,0,778.756,-754.632,-0.0078125,0.0078125,1227.75,1257136
-0.00109863,0.196777,1.27014,-0.073,-0.182,-131.8,228.19,-0.573746,0.075943,0,733.272,-614.76,-0.0078125,0.0078125,1227.77,1257166
-0.0582886,0.4104,1.65442,-0.17,-0.376,-131.77,228.22,-0.577393,0.0866852,0,736.269,-722.622,-0.0078125,0.0078125,1227.79,1257181
-0.0606079,0.127075,0.754211,-0.009,-0.156,-131.74,228.25,-0.581177,0.0970612,0,685.895,-789.702,-0.0078125,0.0078125,1227.8,1257196
-0.0725708,0.0342407,1.37579,0.105,-0.122,-131.71,228.28,-0.588623,0.117737,0,717.592,-735.24,-0.0078125,0.0078125,1227.82,1257226
-0.0705566,0.00634766,0.555359,0.075,-0.075,-131.7,228.29,-0.592194,0.12793,0,748.111,-748.671,-0.0078125,0.0078125,1227.85,1257241
0.00549316,0.163208,1.07172,-0.061,-0.139,-131.7,228.29,-0.595749,0.13797,0,676.544,-602.809,-0.0078125,0.0078125,1227.87,1257256
0.113342,0.147217,0.922485,-0.126,-0.039,-131.67,228.32,-0.603195,0.157471,0,613.836,-517.224,-0.0078125,0.0078125,1227.89,1257286
0.0515137,0.110718,1.04138,-0.05,-0.064,-131.66,228.33,-0.607117,0.167084,0,591.979,-636.193,-0.0078125,0.0078125,1227.91,1257301
-0.000732422,0.127808,0.888855,-0.037,-0.11,-131.68,228.31,-0.611084,0.176559,0,623.305,-643.708,-0.0078125,0.0078125,1227.93,1257316
0.0100708,0.145874,1.14246,-0.04,-0.118,-131.74,228.25,-0.627426,0.213135,0,556.855,-549.194,-0.0078125,0.0078125,1227.98,1257376
0.0879517,0.115234,1.06647,-0.073,-0.036,-131.75,228.24,-0.631653,0.222015,0,556.901,-628.417,-0.0078125,0.0078125,1227.99,1257391
0.0582275,0.148987,0.737854,-0.1,-0.073,-131.77,228.22,-0.636017,0.23082,0,581.328,-570.158,-0.0078125,0.0078125,1228.01,1257406
0.0254517,0.145996,1.01965,-0.056,-0.101,-131.79,228.2,-0.640472,0.239502,0,535.762,-639.734,-0.0078125,0.0078125,1228.03,1257421
0.0804443,0.0869751,1.0343,-0.048,-0.02,-131.8,228.19,-0.645004,0.248108,0,531.011,-552.73,-0.0078125,0.0078125,1228.04,1257436
-0.00805664,0.143555,1.03143,-0.031,-0.122,-131.83,228.16,-0.654312,0.264954,0,523.903,-486.109,-0.0078125,0.0078125,1228.07,1257465
0.0427856,0.0767212,0.962341,-0.019,-0.037,-131.83,228.16,-0.659042,0.273178,0,481.893,-604.193,-0.0078125,0.0078125,1228.09,1257481
0.0211792,0.0872803,0.901794,-0.017,-0.059,-131.83,228.16,-0.663803,0.281342,0,492.453,-510.882,-0.0078125,0.0078125,1228.11,1257495
-0.0288086,0.0906372,0.961609,0.018,-0.099,-131.84,228.15,-0.673401,0.297516,0,474.642,-445.058,-0.0078125,0.0078125,1228.13,1257525
0.0776978,0.107788,0.853455,-0.071,-0.027,-131.83,228.16,-0.688019,0.320984,0,461.361,-481.336,-0.0078125,0.0078125,1228.17,1257570
0.0776978,0.107788,0.853455,-0.071,-0.027,-131.83,228.16,-0.688019,0.320984,0,446.598,-497.352,-0.0078125,0.0078125,1228.18,1257570
0.0215454,0.155884,0.982361,-0.058,-0.102,-131.83,228.16,-0.698105,0.336136,0,421.195,-412.907,-0.0078125,0.0078125,1228.21,1257601
0.0215454,0.155884,0.982361,-0.058,-0.102,-131.83,228.16,-0.698105,0.336136,0,454.804,-444,-0.0078125,0.0078125,1228.21,1257601
0.0393066,0.0870972,0.895264,-0.023,-0.041,-131.82,228.17,-0.708435,0.350876,0,402.382,-425.641,0,0.0078125,1228.23,1257630
0.024292,0.115234,0.925354,-0.031,-0.07,-131.81,228.18,-0.713654,0.358139,0,394.252,-372.863,0.0944882,-0,1228.24,1257645
0.0581055,0.105408,0.917725,-0.046,-0.038,-131.8,228.19,-0.718933,0.365326,0,296.586,-418.41,0.283465,-0.141732,1228.26,1257661
0.0337524,0.219482,1.22534,-0.089,-0.135,-131.8,228.19,-0.724304,0.372391,0,136.871,-266.074,0.464567,-0.314961,1228.28,1257675
-0.05896,0.565125,1.05774,-0.293,-0.43,-131.84,228.15,-0.735748,0.385864,0,0,-109.673,0.755906,-0.755906,1228.31,1257705
-0.165344,0.76001,0.94458,-0.372,-0.633,-131.86,228.13,-0.742096,0.391708,0,-219.86,-22.487,0.944882,-0.897638,1228.33,1257721
0.00738525,0.782288,0.908264,-0.499,-0.505,-131.68,228.31,-0.756546,0.401093,0,-465.788,166.778,0.992126,-0.992126,1228.35,1257750
-0.0214844,0.638794,1.02472,-0.357,-0.422,-131.55,228.44,-0.764664,0.4048,0,-691.754,334.829,1,-1,1228.37,1257765
0.16571,0.651917,1.1319,-0.478,-0.283,-131.39,228.6,-0.773376,0.40802,0,-748.447,372.426,1,-1,1228.38,1257781
0.170471,0.545288,0.968506,-0.414,-0.205,-131.24,228.75,-0.782684,0.410919,0,-854.08,513.861,1,-1,1228.4,1257795
0.0424194,0.541931,0.960632,-0.32,-0.283,-130.73,229.26,-0.814087,0.417267,0,-892.977,673.333,1,-1,1228.44,1257841
0.0424194,0.541931,0.960632,-0.32,-0.283,-130.73,229.26,-0.814087,0.417267,0,-899.685,750.779,1,-1,1228.45,1257841
-0.0360718,0.531799,0.723755,-0.288,-0.342,-130.56,229.43,-0.825516,0.418503,0,-885.936,720.124,1,-1,1228.46,1257855
0.175537,0.583557,0.790588,-0.448,-0.203,-130.28,229.71,-0.850266,0.420135,0,-942.241,824.674,1,-1,1228.49,1257885
0.0773315,0.541809,1.1394,-0.304,-0.231,-130.15,229.84,-0.86351,0.420547,0,-1029.81,998.602,1,-1,1228.51,1257901
0.197754,0.51825,0.778259,-0.411,-0.138,-130,229.99,-0.891464,0.420731,0,-1000,1057.42,1,-1,1228.53,1257930
0.143188,0.625,1.45569,-0.354,-0.205,-129.99,230,-0.906128,0.420563,0,-899.078,940.557,1,-1,1228.55,1257945
-0.0699463,0.380188,0.369263,-0.189,-0.275,-129.99,230,-0.921173,0.420074,0,-1045.97,962.974,1,-1,1228.57,1257961
-0.0644531,0.27356,0.942627,-0.021,-0.167,-130,229.99,-0.951859,0.418625,0,-1190.26,1083.89,1,-1,1228.59,1257990
0.0296631,0.444275,1.5874,-0.11,-0.16,-130.01,229.98,-0.967361,0.417618,0,-1182.38,1150.15,1,-1,1228.61,1258005
0.29541,0.274658,0.884521,-0.259,0.107,-130.02,229.97,-0.983109,0.41658,0,-1313.2,1231.68,1,-1,1228.63,1258021
0.0778198,0.110107,0.577209,-0.042,0.025,-130.05,229.94,-0.999069,0.415619,0,-1246.18,1044.66,0.850394,-1,1228.65,1258035
0.0367432,0.201782,0.850037,-0.039,-0.046,-130.13,229.86,-1.03096,0.413589,0,-1138.56,1321.09,0.566929,-1,1228.67,1258065
-0.180786,0.33606,0.955811,0.015,-0.291,-130.16,229.83,-1.04692,0.412308,0,-1251.02,1332.18,0.23622,-1,1228.69,1258081
-0.267944,0.0464478,1.99994,0.459,-0.101,-130.19,229.8,-1.07866,0.409302,0,-1090.16,1438.23,0.0314961,-1,1228.71,1258110
0.346924,-0.00836182,0.965271,-0.062,0.337,-130.13,229.86,-1.09412,0.407944,0,-965.484,1134.62,-0.0078125,-1,1228.73,1258125
-0.0870361,-0.195679,0.344666,0.256,0.08,-130.05,229.94,-1.10945,0.406845,0,-839.49,1357.13,-0.0078125,-1,1228.75,1258140
-0.119263,-0.010376,1.42194,0.295,0.013,-129.64,230.35,-1.13895,0.404724,0,-912.034,1457.83,-0.0546875,-1,1228.77,1258170
-0.0372925,-0.0733032,0.112183,0.095,0.024,-129.35,230.64,-1.15323,0.403671,0,-839.349,1423.18,-0.125,-1,1228.79,1258185
-0.166992,-0.0236206,0.730591,0.226,-0.067,-129.06,230.93,-1.16728,0.402588,0,-610.445,1438.23,-0.265625,-1,1228.81,1258200
0.161377,-0.388916,1.99994,0.482,0.502,-128.69,231.3,-1.18086,0.40181,0,-414.645,1396.26,-0.453125,-1,1228.83,1258215
-0.260559,-0.0166016,1.04584,0.302,-0.129,-127.24,232.75,-1.21849,0.40033,0,-62.4419,1294.25,-0.578125,-1,1228.87,1258260
-0.221558,-0.16571,0.944702,0.372,-0.021,-125.88,234.11,-1.24081,0.399048,0,73.1098,1504.1,-0.890625,-1,1228.9,1258290
-0.389709,-0.266785,0.968018,0.546,-0.104,-125.07,234.92,-1.25104,0.398331,0,146.333,1205.76,-0.890625,-1,1228.91,1258305
0.124451,-0.267822,0.864807,0.242,0.311,-124.2,235.79,-1.26073,0.397766,0,349.113,1204.17,-0.976562,-1,1228.93,1258320
-0.184814,-0.136963,0.512878,0.263,-0.051,-122.27,237.72,-1.27895,0.39711,0,493.73,1204.53,-1,-1,1228.95,1258350
-0.202698,-0.0966187,1.09784,0.289,-0.05,-121.22,238.77,-1.28749,0.396713,0,578.737,1278.94,-1,-1,1228.97,1258365
-0.290039,-0.0979614,1.21039,0.337,-0.121,-120.1,239.89,-1.29561,0.396194,0,660.131,801.571,-1,-1,1228.99,1258380
-0.107605,-0.203613,0.234985,0.249,0.018,-118.9,241.09,-1.30333,0.395615,0,640.328,1240.23,-1,-1,1229.01,1258395
-0.228577,-0.110107,0.286377,0.212,-0.147,-113.63,246.36,-1.33112,0.392715,0,870.36,1034.88,-1,-1,1229.05,1258455
0.0541992,-0.0717163,1.17493,0.13,0.153,-110.71,249.28,-1.34413,0.391342,0,883.783,1214.48,-1,-1,1229.08,1258485
0.0541992,-0.0717163,1.17493,0.13,0.153,-110.71,249.28,-1.34413,0.391342,0,859.217,982.077,-1,-1,1229.09,1258485
0.0863647,0.038269,1.2865,0.022,0.152,-109.19,250.8,-1.35054,0.391006,0,888.494,912.742,-1,-1,1229.11,1258500
-0.0609131,0.0494385,1.17627,0.042,0.003,-105.94,254.05,-1.36287,0.390762,0,862.962,1024.49,-1,-1,1229.12,1258530
-0.141357,0.124634,0.930725,-0.029,-0.107,-104.24,255.75,-1.36894,0.390594,0,775.555,1199.33,-1,-1,1229.15,1258545
-0.311218,0.0597534,1.03149,0.069,-0.248,-102.47,257.52,-1.375,0.390198,0,822.538,984.931,-1,-1,1229.17,1258560
-0.0953979,-0.0402832,0.941772,0.105,-0.024,-98.77,261.22,-1.3868,0.388947,0,817.294,864.342,-1,-1,1229.19,1258590
-0.124878,0.0822754,0.963074,-0.015,-0.068,-96.87,263.12,-1.39258,0.388245,0,922.807,1146.53,-1,-1,1229.2,1258605
-0.29425,0.129272,0.493591,-0.077,-0.27,-94.93,265.06,-1.39842,0.387299,0,878.233,874.355,-1,-1,1229.22,1258620
0.0213623,0.024353,1.14417,0.035,0.098,-92.94,267.05,-1.4043,0.386246,0,820.21,1106.68,-1,-1,1229.24,1258635
-0.0623779,0.0510864,0.500977,-0.027,-0.027,-88.85,271.14,-1.41623,0.383926,0,820.614,1174.95,-1,-1,1229.27,1258665
-0.0453491,0.265015,0.96167,-0.218,0.035,-86.76,273.23,-1.42241,0.382706,0,847.135,1045.81,-1,-1,1229.28,1258680
0.478271,-0.00134277,1.1394,0.103,0.55,-84.63,275.36,-1.42867,0.381897,0,804.797,924.599,-1,-1,1229.3,1258695
-0.106262,0.0361938,0.112183,-0.048,-0.091,-80.4,279.59,-1.4415,0.381058,0,834.655,1213.74,-1,-1,1229.32,1258725
0.396118,0.060791,1.54553,0.095,0.497,-78.22,281.77,-1.44797,0.38089,0,857.706,1178.83,-1,-1,1229.35,1258740
-0.081665,-0.013855,0.015686,-0.008,-0.081,-73.92,286.07,-1.46068,0.381683,0,896.74,1218.62,-1,-1,1229.37,1258770
-0.0186768,0.141052,0.746765,-0.105,0.073,-71.77,288.22,-1.4671,0.382126,0,899.523,956.389,-1,-1,1229.39,1258785
0.399536,0.0924072,0.436768,0.072,0.432,-69.64,290.35,-1.47356,0.382904,0,1038.1,1282.46,-1,-1,1229.4,1258800
-0.152771,0.286804,1.35034,-0.26,0.05,-67.49,292.5,-1.48013,0.384018,0,1114.39,1093.37,-1,-1,1229.43,1258815
0.0629883,0.275146,1.59125,-0.141,0.274,-63.22,296.77,-1.49384,0.386627,0,1008.17,1055.52,-1,-1,1229.45,1258845
0.0731201,0.1828,0.571045,-0.097,0.184,-61.1,298.89,-1.50093,0.388367,0,1120.89,876.655,-1,-0.929134,1229.47,1258860
-0.0450439,0.100464,0.109863,-0.103,0.019,-59,300.99,-1.50815,0.390244,0,1020.77,982.511,-1,-0.76378,1229.49,1258875
