accel_x,accel_y,accel_z,gyro_x,gyro_y,gyro_z,x,y,z,left_encoder_rate,right_encoder_rate,left_input,right_input,fpga time,navx time
0.00860596,0.0338135,0.946106,-0.30426,-0,-0,9.15527e-05,0.000213623,0,0,0,-0.0078125,0.0078125,39.7918,69164
0.00695801,0.0305176,0.945068,-0.15213,-0.15213,-0,9.15527e-05,0.000213623,0,0,0,-0.0078125,0.0078125,39.8062,69179
0.00915527,0.0305176,0.950745,-0,-0,-0,9.15527e-05,0.000213623,0,0,0,-0.0078125,0.0078125,39.8226,69194
0.00439453,0.0281982,0.947327,-0,-0,0.30426,9.15527e-05,0.000213623,0,0,0,-0.0078125,0.0078125,39.8412,69224
0.00927734,0.0308838,0.944275,-0.15213,-0,0.30426,9.15527e-05,0.000213623,0,0,0,-0.0078125,0.0078125,39.8622,69239
0.00598145,0.0302124,0.945984,-0,-0.15213,-0,9.15527e-05,0.000213623,0,0,0,-0.0078125,0.0078125,39.8834,69254
0.00909424,0.0294189,0.942688,0.15213,0.15213,0.30426,9.15527e-05,0.000213623,0,0,0,-0.0078125,0.0078125,39.9015,69284
0.00854492,0.0305176,0.948608,-0,-0,0.30426,9.15527e-05,0.000213623,0,0,0,-0.0078125,0.0078125,39.9217,69299
0.00927734,0.02948,0.948608,-0,-0,0.30426,9.15527e-05,0.000213623,0,0,0,-0.0078125,0.0078125,39.9416,69314
0.00646973,0.0314331,0.944275,-0,-0.15213,-0.30426,9.15527e-05,0.000213623,0,0,0,-0.0078125,0.0078125,39.9618,69344
0.00640869,0.029541,0.950195,0.15213,0.15213,0.15213,9.15527e-05,0.000213623,0,0,0,-0.0078125,0.0078125,39.9818,69359
0.0116577,0.0319214,0.948608,-0,-0.15213,-0,9.15527e-05,0.000213623,0,0,0,-0.0078125,0.0078125,40.0019,69374
0.00488281,0.0298462,0.943359,0.15213,0.15213,0.15213,9.15527e-05,0.000213623,0,0,0,-0.0078125,0.0078125,40.0214,69404
0.00848389,0.0303345,0.94989,-0.15213,-0.15213,0.15213,9.15527e-05,0.000213623,0,0,0,-0.0078125,0.0078125,40.0411,69419
0.00683594,0.0300903,0.947937,-0,-0.15213,0.15213,9.15527e-05,0.000213623,0,0,0,-0.0078125,0.0078125,40.061,69434
0.00836182,0.0308838,0.947266,-0,-0,-0,9.15527e-05,0.000213623,0,0,0,-0.0078125,0.0078125,40.0812,69449
0.00775146,0.031311,0.949646,-0.15213,-0,-0,9.15527e-05,0.000213623,0,0,0,-0.0078125,0.0078125,40.1013,69479
0.00500488,0.0332031,0.944153,-0,-0.15213,-0.15213,9.15527e-05,0.000213623,0,0,0,-0.0078125,0.0078125,40.1212,69494
0.0115356,0.0279541,0.948059,0.15213,0.15213,0.15213,9.15527e-05,0.000213623,0,0,0,-0.0078125,0.0078125,40.1418,69524
0.00848389,0.0293579,0.945312,-0,-0,0.15213,9.15527e-05,0.000213623,0,0,0,-0.0078125,0.0078125,40.1615,69539
0.00537109,0.0296631,0.950439,-0,-0.30426,0.15213,9.15527e-05,0.000213623,0,0,0,-0.0078125,0.0078125,40.1814,69554
0.00592041,0.0322876,0.943176,0.15213,0.15213,0.15213,9.15527e-05,0.000213623,0,0,0,-0.0078125,0.0078125,40.2016,69569
0.00714111,0.029541,0.945007,0.15213,0.15213,-0,9.15527e-05,0.000213623,0,0,0,-0.0078125,0.0078125,40.2227,69599
0.00775146,0.0281982,0.94812,-0.30426,-0.15213,0.30426,9.15527e-05,0.000213623,0,0,0,-0.0078125,0.0078125,40.2416,69614
0.00561523,0.0283203,0.946045,0.15213,0.15213,0.15213,9.15527e-05,0.000213623,0,0,0,-0.0078125,0.0078125,40.2634,69644
0.0100098,0.0291138,0.949341,0.15213,-0,0.15213,9.15527e-05,0.000213623,0,0,0,-0.0078125,0.0078125,40.2818,69659
0.00946045,0.0310059,0.948059,0.15213,0.15213,0.15213,9.15527e-05,0.000213623,0,0,0,-0.0078125,0.0078125,40.302,69674
0.00787354,0.0310669,0.948364,0.15213,0.30426,0.15213,9.15527e-05,0.000213623,0,0,0,-0.0078125,0.0078125,40.3214,69704
0.00732422,0.0291748,0.946594,0.15213,0.30426,0.45639,9.15527e-05,0.000213623,0,0,0,-0.0078125,0.0078125,40.3415,69719
0.00805664,0.0307007,0.950989,-0.15213,-0,0.15213,9.15527e-05,0.000213623,0,0,0,-0.0078125,0.0078125,40.3632,69734
0.00848389,0.0304565,0.944214,-0,-0,0.15213,9.15527e-05,0.000213623,0,0,0,-0.0078125,0.0078125,40.3838,69764
0.00860596,0.0304565,0.949951,-0.15213,-0.15213,0.15213,9.15527e-05,0.000213623,0,0,0,-0.0078125,0.0078125,40.4015,69779
0.0102539,0.0290527,0.946533,-0,-0,-0,9.15527e-05,0.000213623,0,0,0,-0.0078125,0.0078125,40.4215,69794
0.00592041,0.0281982,0.944763,-0.30426,-0.15213,0.15213,9.15527e-05,0.000213623,0,0,0,-0.0078125,0.0078125,40.4416,69824
0.00909424,0.0318604,0.945374,0.30426,0.30426,-0.15213,9.15527e-05,0.000213623,0,0,0,-0.0078125,0.0078125,40.4617,69839
0.00823975,0.0319214,0.948303,-0.15213,-0.15213,-0.15213,9.15527e-05,0.000213623,0,0,0,-0.0078125,0.0078125,40.4817,69854
0.00592041,0.0301514,0.943848,-0,-0,-0,9.15527e-05,0.000213623,0,0,0,-0.0078125,0.0078125,40.5018,69884
0.00726318,0.0319214,0.945007,-0,-0,0.15213,9.15527e-05,0.000213623,0,0,0,-0.0078125,0.0078125,40.5221,69899
0.00897217,0.0314941,0.94751,-0,-0,0.30426,9.15527e-05,0.000213623,0,0,0,-0.0078125,0.0078125,40.5444,69914
0.00897217,0.0319214,0.942261,-0,-0.15213,0.30426,9.15527e-05,0.000213623,0,0,0,-0.0078125,0.0078125,40.5611,69944
0.0101929,0.0297241,0.947571,0.15213,0.30426,0.15213,9.15527e-05,0.000213623,0,0,0,-0.0078125,0.0078125,40.5811,69958
0.00762939,0.0293579,0.944031,0.15213,0.30426,-0,9.15527e-05,0.000213623,0,0,0,-0.0078125,0.0078125,40.6011,69973
0.00897217,0.0296021,0.946899,0.15213,0.15213,0.15213,9.15527e-05,0.000213623,0,0,0,-0.0078125,0.0078125,40.6213,70004
0.00878906,0.0310669,0.946655,-0.15213,-0,0.15213,9.15527e-05,0.000213623,0,0,0,-0.0078125,0.0078125,40.6412,70018
0.010376,0.0284424,0.95105,-0,-0,-0,9.15527e-05,0.000213623,0,0,0,-0.0078125,0.0078125,40.6625,70033
0.00579834,0.0315552,0.943298,-0,-0,0.15213,9.15527e-05,0.000213623,0,0,0,-0.0078125,0.0078125,40.6814,70064
0.00872803,0.0310669,0.947876,0.15213,0.15213,0.15213,9.15527e-05,0.000213623,0,0,0,-0.0078125,0.0078125,40.7018,70078
0.00640869,0.0314331,0.945435,-0,-0.15213,0.15213,9.15527e-05,0.000213623,0,0,0,-0.0078125,0.0078125,40.7215,70094
0.0090332,0.0292969,0.94397,-0,-0,0.15213,9.15527e-05,0.000213623,0,0,0,-0.0078125,0.0078125,40.7417,70124
0.00738525,0.0286255,0.944885,-0,-0.30426,-0,9.15527e-05,0.000213623,0,0,0,-0.0078125,0.0078125,40.762,70138
0.00909424,0.0280762,0.948669,0.15213,0.45639,0.15213,9.15527e-05,0.000213623,0,0,0,-0.0078125,0.0078125,40.7821,70153
0.00775146,0.0302734,0.951477,0.15213,0.30426,0.15213,9.15527e-05,0.000213623,0,0,0,-0.0078125,0.0078125,40.8058,70184
0.0067749,0.0314331,0.947449,-0.15213,0.30426,-0.15213,9.15527e-05,0.000213623,0,0,0,-0.0078125,0.0078125,40.8209,70198
0.00524902,0.0285034,0.947021,-0,0.30426,-0.15213,9.15527e-05,0.000213623,0,0,0,-0.0078125,0.0078125,40.8411,70213
0.00823975,0.0288086,0.949341,0.30426,0.45639,-0,9.15527e-05,0.000213623,0,0,0,-0.0078125,0.0078125,40.8622,70244
0.00604248,0.0286255,0.945679,-0,0.15213,0.608521,9.15527e-05,0.000213623,0,0,0,-0.0078125,0.0078125,40.8813,70258
0.00695801,0.0308838,0.949524,-0,0.15213,0.15213,9.15527e-05,0.000213623,0,0,0,-0.0078125,0.0078125,40.9091,70288
0.0088501,0.0303345,0.948914,-0,-0,-0,9.15527e-05,0.000213623,0,0,0,-0.0078125,0.0078125,40.9219,70304
0.0111084,0.0286255,0.951599,0.30426,0.30426,-0.15213,9.15527e-05,0.000213623,0,0,0,-0.0078125,0.0078125,40.9415,70318
0.00946045,0.0310059,0.944946,-0,-0.15213,0.30426,9.15527e-05,0.000213623,0,0,0,-0.0078125,0.0078125,40.9621,70333
0.0103149,0.0289307,0.949707,-0.15213,-0.15213,0.15213,9.15527e-05,0.000213623,0,0,0,-0.0078125,0.0078125,40.9812,70364
0.00817871,0.0305786,0.94696,-0,-0,0.15213,9.15527e-05,0.000213623,0,0,0,-0.0078125,0.0078125,41.0014,70378
0.00732422,0.0311279,0.94751,0.15213,0.15213,0.15213,9.15527e-05,0.000213623,0,0,0,-0.0078125,0.0078125,41.0211,70393
0.00610352,0.0317993,0.942444,-0,0.15213,-0.15213,9.15527e-05,0.000213623,0,0,0,-0.0078125,0.0078125,41.0412,70424
0.00750732,0.0316772,0.944397,-0.15213,-0,-0.15213,9.15527e-05,0.000213623,0,0,0,-0.0078125,0.0078125,41.0651,70438
0.00854492,0.0300293,0.949463,-0,-0,0.30426,9.15527e-05,0.000213623,0,0,0,-0.0078125,0.0078125,41.0812,70453
0.0101318,0.0303955,0.944946,0.15213,0.15213,0.15213,9.15527e-05,0.000213623,0,0,0,-0.0078125,0.0078125,41.1017,70484
0.00604248,0.0324097,0.947449,0.15213,-0,0.45639,9.15527e-05,0.000213623,0,0,0,-0.0078125,0.0078125,41.1213,70498
0.00994873,0.0325928,0.942749,0.30426,0.15213,0.15213,9.15527e-05,0.000213623,0,0,0,-0.0078125,0.0078125,41.1413,70513
0.0065918,0.0317383,0.946228,0.15213,0.15213,-0,9.15527e-05,0.000213623,0,0,0,-0.0078125,0.0078125,41.1619,70544
0.00848389,0.0302124,0.953064,-0,-0,-0.15213,9.15527e-05,0.000213623,0,0,0,-0.0078125,0.0078125,41.1817,70558
0.00750732,0.031189,0.948364,-0,-0,0.30426,9.15527e-05,0.000213623,0,0,0,-0.0078125,0.0078125,41.2017,70573
0.0112305,0.0299072,0.943237,-0.15213,-0,0.15213,9.15527e-05,0.000213623,0,0,0,-0.0078125,0.0078125,41.2215,70604
0.0067749,0.0309448,0.950378,0.15213,0.15213,0.30426,9.15527e-05,0.000213623,0,0,0,-0.0078125,0.0078125,41.2417,70618
0.00787354,0.03125,0.947388,0.15213,0.15213,0.15213,9.15527e-05,0.000213623,0,0,0,-0.0078125,0.0078125,41.2618,70633
0.0112915,0.03302,0.951355,-0.15213,-0,0.30426,9.15527e-05,0.000213623,0,0,0,-0.0078125,0.0078125,41.2816,70664
0.00952148,0.0314941,0.945435,-0,-0,0.15213,9.15527e-05,0.000213623,0,0,0,-0.0078125,0.0078125,41.304,70678
0.00604248,0.0296631,0.948608,-0,-0,0.30426,9.15527e-05,0.000213623,0,0,0,-0.0078125,0.0078125,41.3231,70693
0.00592041,0.029541,0.947937,0.15213,0.45639,-0,9.15527e-05,0.000213623,0,0,0,-0.0078125,0.0078125,41.342,70724
0.00726318,0.029541,0.944946,-0,-0.15213,0.30426,9.15527e-05,0.000213623,0,0,0,-0.0078125,0.0078125,41.3621,70738
0.0106201,0.0300903,0.941711,0.15213,0.30426,0.30426,9.15527e-05,0.000213623,0,0,0,-0.0078125,0.0078125,41.3823,70754
0.00720215,0.0324707,0.945435,0.15213,0.15213,0.30426,9.15527e-05,0.000213623,0,0,0,-0.0078125,0.0078125,41.4022,70784
0.00738525,0.0296021,0.948364,0.15213,0.30426,-0.15213,9.15527e-05,0.000213623,0,0,0,-0.0078125,0.0078125,41.4211,70798
0.00866699,0.0285645,0.950073,0.15213,-0,0.15213,9.15527e-05,0.000213623,0,0,0,-0.0078125,0.0078125,41.4413,70813
0.00842285,0.0303955,0.943848,-0,-0.15213,0.30426,9.15527e-05,0.000213623,0,0,0,-0.0078125,0.0078125,41.4633,70843
0.00921631,0.0305786,0.949768,0.30426,0.15213,-0,9.15527e-05,0.000213623,0,0,0,-0.0078125,0.0078125,41.4821,70858
0.00531006,0.0286865,0.944397,-0,0.15213,-0.15213,9.15527e-05,0.000213623,0,0,0,-0.0078125,0.0078125,41.5015,70873
0.00787354,0.03125,0.94043,-0,-0,0.15213,9.15527e-05,0.000213623,0,0,0,-0.0078125,0.0078125,41.5215,70903
0.0088501,0.0274658,0.950684,0.30426,-0.15213,0.30426,9.15527e-05,0.000213623,0,0,0,-0.0078125,0.0078125,41.5414,70918
0.00775146,0.0315552,0.943726,-0,-0,-0,9.15527e-05,0.000213623,0,0,0,-0.0078125,0.0078125,41.5617,70933
0.00787354,0.0289307,0.947083,-0,-0.15213,0.15213,9.15527e-05,0.000213623,0,0,0,-0.0078125,0.0078125,41.5819,70963
0.00927734,0.0301514,0.944519,-0,-0,0.15213,9.15527e-05,0.000213623,0,0,0,-0.0078125,0.0078125,41.6034,70978
0.00732422,0.0291748,0.947693,0.15213,0.15213,-0,9.15527e-05,0.000213623,0,0,0,-0.0078125,0.0078125,41.6216,70993
0.00817871,0.0267334,0.947388,0.30426,0.15213,-0.15213,9.15527e-05,0.000213623,0,0,0,-0.0078125,0.0078125,41.6418,71023
0.00762939,0.0306396,0.944275,-0,0.15213,-0.15213,9.15527e-05,0.000213623,0,0,0,-0.0078125,0.0078125,41.6617,71038
0.00927734,0.03125,0.948486,0.30426,0.15213,0.15213,9.15527e-05,0.000213623,0,0,0,-0.0078125,0.0078125,41.6819,71053
0.00738525,0.0287476,0.947754,-0,0.30426,-0,9.15527e-05,0.000213623,0,0,0,-0.0078125,0.0078125,41.7017,71083
0.00646973,0.0303345,0.946594,0.15213,0.30426,-0.15213,9.15527e-05,0.000213623,0,0,0,-0.0078125,0.0078125,41.7218,71098
0.00646973,0.0324707,0.948914,-0.45639,-0.15213,0.15213,9.15527e-05,0.000213623,0,0,0,-0.0078125,0.0078125,41.7416,71113
0.00787354,0.0286255,0.951172,0.15213,0.15213,-0.15213,9.15527e-05,0.000213623,0,0,0,-0.0078125,0.0078125,41.762,71143
0.00994873,0.02948,0.949402,0.15213,0.15213,-0,9.15527e-05,0.000213623,0,0,0,-0.0078125,0.0078125,41.7813,71158
0.0125122,0.0307617,0.945496,-0.30426,-0,0.30426,9.15527e-05,0.000213623,0,0,0,-0.0078125,0.0078125,41.8014,71173
0.0078125,0.0327759,0.94812,0.15213,0.15213,0.15213,9.15527e-05,0.000213623,0,0,0,-0.0078125,0.0078125,41.8214,71203
0.00689697,0.0309448,0.947998,0.15213,0.30426,-0,9.15527e-05,0.000213623,0,0,0,-0.0078125,0.0078125,41.8415,71218
0.00872803,0.0315552,0.945984,-0,-0,0.15213,9.15527e-05,0.000213623,0,0,0,-0.0078125,0.0078125,41.8622,71233
0.00927734,0.0289307,0.949341,-0,-0.30426,0.15213,9.15527e-05,0.000213623,0,0,0,-0.0078125,0.0078125,41.8819,71263
0.00799561,0.0299072,0.946411,0.15213,0.15213,0.30426,9.15527e-05,0.000213623,0,0,0,-0.0078125,0.0078125,41.9023,71278
0.0088501,0.0317383,0.941772,0.15213,0.30426,-0,9.15527e-05,0.000213623,0,0,0,-0.0078125,0.0078125,41.9209,71293
0.00952148,0.0344238,0.946899,0.15213,0.15213,0.30426,9.15527e-05,0.000213623,0,0,0,-0.0078125,0.0078125,41.9409,71323
0.00976562,0.0294189,0.945251,-0,-0,-0,9.15527e-05,0.000213623,0,0,0,-0.0078125,0.0078125,41.961,71338
0.00714111,0.0327759,0.946167,-0,-0,0.30426,9.15527e-05,0.000213623,0,0,0,-0.0078125,0.0078125,41.9812,71353
0.00714111,0.0314331,0.943542,-0,-0.30426,0.15213,9.15527e-05,0.000213623,0,0,0,-0.0078125,0.0078125,42.0014,71383
0.0090332,0.0292358,0.951233,-0.30426,-0.30426,0.30426,9.15527e-05,0.000213623,0,0,0,-0.0078125,0.0078125,42.0219,71398
0.0112915,0.0326538,0.944641,0.15213,0.15213,0.15213,9.15527e-05,0.000213623,0,0,0,-0.0078125,0.0078125,42.0414,71413
0.00732422,0.0321045,0.943909,0.15213,0.15213,-0,9.15527e-05,0.000213623,0,0,0,-0.0078125,0.0078125,42.0615,71443
0.00982666,0.029541,0.945923,0.15213,0.15213,-0,9.15527e-05,0.000213623,0,0,0,-0.0078125,0.0078125,42.0817,71458
0.00897217,0.0317383,0.943848,0.15213,0.15213,0.30426,9.15527e-05,0.000213623,0,0,0,-0.0078125,0.0078125,42.1018,71473
0.00738525,0.0270386,0.945618,-0,-0,-0.15213,9.15527e-05,0.000213623,0,0,0,-0.0078125,0.0078125,42.1231,71503
0.00787354,0.0290527,0.946228,-0,-0,-0,9.15527e-05,0.000213623,0,0,0,-0.0078125,0.0078125,42.1417,71518
0.00872803,0.0297852,0.946838,-0,0.15213,-0,9.15527e-05,0.000213623,0,0,0,-0.0078125,0.0078125,42.161,71533
0.00946045,0.0314331,0.945923,-0,-0,-0,9.15527e-05,0.000213623,0,0,0,-0.0078125,0.0078125,42.1812,71563
0.010498,0.0314331,0.943909,-0,-0,0.30426,9.15527e-05,0.000213623,0,0,0,-0.0078125,0.0078125,42.2019,71578
0.00848389,0.0291748,0.946777,-0,-0.15213,0.15213,9.15527e-05,0.000213623,0,0,0,-0.0078125,0.0078125,42.2212,71593
0.0090332,0.0332642,0.945862,0.15213,0.30426,0.15213,9.15527e-05,0.000213623,0,0,0,-0.0078125,0.0078125,42.2417,71623
0.00842285,0.0331421,0.948975,-0,0.15213,0.15213,9.15527e-05,0.000213623,0,0,0,-0.0078125,0.0078125,42.263,71638
0.00866699,0.0281982,0.943054,-0.15213,-0,0.15213,9.15527e-05,0.000213623,0,0,0,-0.0078125,0.0078125,42.2815,71653
0.00787354,0.0296021,0.940857,0.15213,0.15213,0.15213,9.15527e-05,0.000213623,0,0,0,-0.0078125,0.0078125,42.3016,71683
0.00622559,0.029541,0.942444,0.15213,0.15213,-0,9.15527e-05,0.000213623,0,0,0,-0.0078125,0.0078125,42.3216,71698
0.00683594,0.031189,0.945129,-0,-0,-0,9.15527e-05,0.000213623,0,0,0,-0.0078125,0.0078125,42.3422,71713
0.00744629,0.0299072,0.94696,0.15213,-0,-0,9.15527e-05,0.000213623,0,0,0,-0.0078125,0.0078125,42.362,71743
0.00793457,0.0305786,0.946777,-0.45639,-0.30426,0.30426,9.15527e-05,0.000213623,0,0,0,-0.0078125,0.0078125,42.3822,71758
0.00665283,0.0307617,0.947021,0.15213,0.15213,0.15213,9.15527e-05,0.000213623,0,0,0,-0.0078125,0.0078125,42.4011,71773
0.00769043,0.0294189,0.949158,-0,-0,0.30426,9.15527e-05,0.000213623,0,0,0,-0.0078125,0.0078125,42.4243,71803
0.00805664,0.0289917,0.951782,-0,-0.45639,0.15213,9.15527e-05,0.000213623,0,0,0,-0.0078125,0.0078125,42.4426,71818
0.00817871,0.0298462,0.945496,0.15213,0.15213,0.30426,9.15527e-05,0.000213623,0,0,0,-0.0078125,0.0078125,42.4614,71833
0.00866699,0.0271606,0.947693,0.15213,-0,-0,9.15527e-05,0.000213623,0,0,0,-0.0078125,0.0078125,42.4814,71863
0.00543213,0.0302734,0.94751,-0,0.30426,0.30426,9.15527e-05,0.000213623,0,0,0,-0.0078125,0.0078125,42.5013,71878
0.00872803,0.0299072,0.949524,-0,-0.15213,0.15213,9.15527e-05,0.000213623,0,0,0,-0.0078125,0.0078125,42.5215,71893
0.00720215,0.0282593,0.945984,-0,0.15213,0.15213,9.15527e-05,0.000213623,0,0,0,-0.0078125,0.0078125,42.5415,71923
0.00891113,0.0310669,0.950195,-0,-0.15213,-0,9.15527e-05,0.000213623,0,0,0,-0.0078125,0.0078125,42.5617,71938
0.00610352,0.0325928,0.950317,-0,-0.15213,-0,9.15527e-05,0.000213623,0,0,0,-0.0078125,0.0078125,42.5819,71953
0.00787354,0.0297241,0.948975,0.15213,0.30426,0.15213,9.15527e-05,0.000213623,0,0,0,-0.0078125,0.0078125,42.6019,71983
0.00738525,0.0302734,0.947998,0.15213,0.15213,-0,9.15527e-05,0.000213623,0,0,0,-0.0078125,0.0078125,42.6218,71998
0.00732422,0.0269165,0.942444,0.30426,0.30426,0.15213,9.15527e-05,0.000213623,0,0,0,-0.0078125,0.0078125,42.6448,72028
0.00817871,0.0311279,0.94342,-0,-0.30426,-0,9.15527e-05,0.000213623,0,0,0,-0.0078125,0.0078125,42.6619,72043
0.00836182,0.0308838,0.946594,0.15213,0.30426,0.15213,9.15527e-05,0.000213623,0,0,0,-0.0078125,0.0078125,42.6819,72058
0.00762939,0.0306396,0.949402,0.15213,0.30426,-0,9.15527e-05,0.000213623,0,0,0,-0.0078125,0.0078125,42.7019,72073
0.00732422,0.0284424,0.949036,0.15213,0.15213,0.15213,9.15527e-05,0.000213623,0,0,0,-0.0078125,0.0078125,42.721,72103
0.00860596,0.0303955,0.946228,-0.15213,-0,0.15213,9.15527e-05,0.000213623,0,0,0,-0.0078125,0.0078125,42.741,72118
0.00610352,0.0316162,0.949951,0.15213,0.15213,-0.15213,9.15527e-05,0.000213623,0,0,0,-0.0078125,0.0078125,42.761,72133
0.00848389,0.0303345,0.947449,-0.15213,-0,0.15213,9.15527e-05,0.000213623,0,0,0,-0.0078125,0.0078125,42.7811,72163
0.00775146,0.0310669,0.95166,0.15213,-0,-0.15213,9.15527e-05,0.000213623,0,0,0,-0.0078125,0.0078125,42.8021,72177
0.00640869,0.0304565,0.949707,-0,-0,-0,9.15527e-05,0.000213623,0,0,0,-0.0078125,0.0078125,42.8215,72192
0.00823975,0.0297241,0.944763,0.15213,0.15213,0.15213,9.15527e-05,0.000213623,0,0,0,-0.0078125,0.0078125,42.8426,72223
0.0078125,0.0307617,0.942139,-0,-0,-0.15213,9.15527e-05,0.000213623,0,0,0,-0.0078125,0.0078125,42.8611,72237
0.00653076,0.0327759,0.949036,-0,-0.30426,-0,9.15527e-05,0.000213623,0,0,0,-0.0078125,0.0078125,42.8812,72252
0.00762939,0.0316162,0.945312,0.15213,0.15213,0.15213,9.15527e-05,0.000213623,0,0,0,-0.0078125,0.0078125,42.9012,72283
0.00524902,0.0290527,0.945801,0.15213,0.15213,-0,9.15527e-05,0.000213623,0,0,0,-0.0078125,0.0078125,42.9211,72297
0.0090332,0.0314331,0.947144,-0,0.15213,-0,9.15527e-05,0.000213623,0,0,0,-0.0078125,0.0078125,42.9417,72312
0.00970459,0.0296631,0.947144,0.15213,0.30426,0.15213,9.15527e-05,0.000213623,0,0,0,-0.0078125,0.0078125,42.9615,72343
0.00543213,0.027771,0.946472,-0.15213,-0,0.15213,9.15527e-05,0.000213623,0,0,0,-0.0078125,0.0078125,42.9816,72357
0.00927734,0.0309448,0.947876,0.15213,0.15213,0.15213,9.15527e-05,0.000213623,0,0,0,-0.0078125,0.0078125,43.0017,72372
0.00952148,0.0296021,0.945923,0.15213,0.30426,0.15213,9.15527e-05,0.000213623,0,0,0,-0.0078125,0.0078125,43.0216,72403
0.00323486,0.0294189,0.943115,-0.15213,-0,-0.30426,9.15527e-05,0.000213623,0,0,0,-0.0078125,0.0078125,43.0441,72417
0.00769043,0.0285034,0.948669,0.30426,0.15213,-0,9.15527e-05,0.000213623,0,0,0,-0.0078125,0.0078125,43.0626,72432
0.0057373,0.0300293,0.948608,0.15213,0.30426,0.30426,9.15527e-05,0.000213623,0,0,0,-0.0078125,0.0078125,43.0819,72463
0.00775146,0.0306396,0.947998,0.15213,-0.15213,0.15213,9.15527e-05,0.000213623,0,0,0,-0.0078125,0.0078125,43.1009,72477
0.00714111,0.0303955,0.953796,-0.45639,-0,0.30426,9.15527e-05,0.000213623,0,0,0,-0.0078125,0.0078125,43.1218,72492
0.00384521,0.0325317,0.947205,-0.30426,0.15213,-0.15213,9.15527e-05,0.000213623,0,0,0,-0.0078125,0.0078125,43.1413,72523
0.00817871,0.0306396,0.951904,-0.15213,-0,0.30426,9.15527e-05,0.000213623,0,0,0,-0.0078125,0.0078125,43.161,72537
0.00750732,0.0305786,0.951477,0.15213,0.15213,0.15213,9.15527e-05,0.000213623,0,0,0,-0.0078125,0.0078125,43.1824,72552
0.00817871,0.0282593,0.942505,0.15213,0.15213,0.15213,9.15527e-05,0.000213623,0,0,0,-0.0078125,0.0078125,43.2034,72583
0.00799561,0.0318604,0.947449,-0,-0.15213,-0,9.15527e-05,0.000213623,0,0,0,-0.0078125,0.0078125,43.2212,72597
0.00775146,0.0304565,0.946411,-0,-0.30426,-0.15213,9.15527e-05,0.000213623,0,0,0,-0.0078125,0.0078125,43.2419,72612
0.0101318,0.0308838,0.949158,-0,-0.15213,0.30426,9.15527e-05,0.000213623,0,0,0,-0.0078125,0.0078125,43.2619,72643
0.0078125,0.0301514,0.951843,-0,-0,-0.15213,9.15527e-05,0.000213623,0,0,0,-0.0078125,0.0078125,43.2813,72657
0.00994873,0.0315552,0.945862,0.15213,0.30426,0.30426,9.15527e-05,0.000213623,0,0,0,-0.0078125,0.0078125,43.3013,72672
0.00836182,0.0308228,0.944946,-0,-0.15213,0.30426,9.15527e-05,0.000213623,0,0,0,-0.0078125,0.0078125,43.321,72703
0.00878906,0.0336914,0.947266,0.15213,0.30426,0.30426,9.15527e-05,0.000213623,0,0,0,-0.0078125,0.0078125,43.3427,72717
0.0078125,0.031189,0.947754,-0.15213,-0.15213,0.30426,9.15527e-05,0.000213623,0,0,0,-0.0078125,0.0078125,43.369,72747
0.00762939,0.0298462,0.942139,-0.45639,-0,0.15213,9.15527e-05,0.000213623,0,0,0,-0.0078125,0.0078125,43.3816,72763
0.00976562,0.0265503,0.943848,0.15213,0.30426,-0,9.15527e-05,0.000213623,0,0,0,-0.0078125,0.0078125,43.4018,72777
0.00671387,0.0299683,0.94458,-0,-0,-0,9.15527e-05,0.000213623,0,0,0,-0.0078125,0.0078125,43.4218,72792
0.00701904,0.0297241,0.944397,-0,-0,-0,9.15527e-05,0.000213623,0,0,0,-0.0078125,0.0078125,43.442,72823
0.00775146,0.0299072,0.950745,-0.15213,-0.30426,0.30426,9.15527e-05,0.000213623,0,0,0,-0.0078125,0.0078125,43.4627,72837
0.0065918,0.0321045,0.948914,-0,-0,-0,9.15527e-05,0.000213623,0,0,0,-0.0078125,0.0078125,43.4811,72852
0.00720215,0.0291748,0.944092,-0,0.15213,0.30426,9.15527e-05,0.000213623,0,0,0,-0.0078125,0.0078125,43.5012,72883
0.0101318,0.0323486,0.945862,0.15213,0.15213,0.30426,9.15527e-05,0.000213623,0,0,0,-0.0078125,0.0078125,43.521,72897
0.00500488,0.0308228,0.947021,0.15213,0.15213,-0.15213,9.15527e-05,0.000213623,0,0,0,-0.0078125,0.0078125,43.5424,72912
0.0088501,0.031189,0.94519,0.15213,0.15213,0.45639,9.15527e-05,0.000213623,0,0,0,-0.0078125,0.0078125,43.5613,72943
0.0101929,0.0308838,0.942871,-0,-0,-0,9.15527e-05,0.000213623,0,0,0,-0.0078125,0.0078125,43.5812,72957
0.00793457,0.0314331,0.951111,-0.15213,-0.15213,-0,9.15527e-05,0.000213623,0,0,0,-0.0078125,0.0078125,43.6016,72972
0.00543213,0.0306396,0.947876,-0.30426,0.15213,-0.30426,9.15527e-05,0.000213623,0,0,0,-0.0078125,0.0078125,43.6214,73003
0.00805664,0.0298462,0.94812,-0.15213,-0,0.15213,9.15527e-05,0.000213623,0,0,0,-0.0078125,0.0078125,43.6413,73017
0.00830078,0.0280151,0.947021,-0.15213,-0,0.15213,9.15527e-05,0.000213623,0,0,0,-0.0078125,0.0078125,43.6613,73032
0.00878906,0.0288696,0.942444,-0,-0,0.15213,9.15527e-05,0.000213623,0,0,0,-0.0078125,0.0078125,43.6817,73062
0.00860596,0.0308228,0.947144,-0.30426,-0,0.30426,9.15527e-05,0.000213623,0,0,0,-0.0078125,0.0078125,43.7016,73077
0.00598145,0.0313721,0.944885,-0,-0,0.15213,9.15527e-05,0.000213623,0,0,0,-0.0078125,0.0078125,43.7218,73092
0.00646973,0.0307617,0.945374,-0.15213,-0.30426,0.15213,9.15527e-05,0.000213623,0,0,0,-0.0078125,0.0078125,43.7423,73122
0.00921631,0.0322266,0.947144,0.15213,0.30426,-0.15213,9.15527e-05,0.000213623,0,0,0,-0.0078125,0.0078125,43.762,73137
0.00750732,0.029541,0.948059,-0,0.15213,-0,9.15527e-05,0.000213623,0,0,0,-0.0078125,0.0078125,43.781,73152
0.00762939,0.0316162,0.945679,-0,0.30426,0.15213,9.15527e-05,0.000213623,0,0,0,-0.0078125,0.0078125,43.8022,73182
0.00445557,0.0305176,0.948914,-0.15213,-0,-0,9.15527e-05,0.000213623,0,0,0,-0.0078125,0.0078125,43.8212,73197
0.00897217,0.0308228,0.948547,-0,0.15213,-0,9.15527e-05,0.000213623,0,0,0,-0.0078125,0.0078125,43.8416,73212
0.00866699,0.0307617,0.951111,-0,-0,-0,9.15527e-05,0.000213623,0,0,0,-0.0078125,0.0078125,43.8643,73242
0.00854492,0.0296631,0.952637,0.15213,0.30426,-0,9.15527e-05,0.000213623,0,0,0,-0.0078125,0.0078125,43.8816,73257
0.00610352,0.0284424,0.949951,0.15213,0.15213,0.15213,9.15527e-05,0.000213623,0,0,0,-0.0078125,0.0078125,43.9019,73272
0.00921631,0.0333862,0.953796,-0.15213,-0.15213,0.608521,9.15527e-05,0.000213623,0,0,0,-0.0078125,0.0078125,43.9228,73302
0.00695801,0.0285034,0.943726,-0,-0,-0,9.15527e-05,0.000213623,0,0,0,-0.0078125,0.0078125,43.9415,73317
0.00640869,0.0301514,0.951355,0.15213,0.30426,-0.30426,9.15527e-05,0.000213623,0,0,0,-0.0078125,0.0078125,43.9615,73332
0.00964355,0.0324097,0.949036,-0.30426,-0,-0,9.15527e-05,0.000213623,0,0,0,-0.0078125,0.0078125,43.9826,73362
0.00543213,0.0282593,0.946472,-0,-0,0.15213,9.15527e-05,0.000213623,0,0,0,-0.0078125,0.0078125,44.002,73377
0.00891113,0.0292358,0.947144,0.15213,0.15213,0.45639,9.15527e-05,0.000213623,0,0,0,-0.0078125,0.0078125,44.0221,73392
0.00585938,0.0303345,0.946655,-0,0.15213,-0.30426,9.15527e-05,0.000213623,0,0,0,-0.0078125,0.0078125,44.0418,73422
0.00476074,0.0316162,0.945129,-0,-0.15213,0.30426,9.15527e-05,0.000213623,0,0,0,-0.0078125,0.0078125,44.062,73437
0.00732422,0.0285645,0.947571,0.15213,0.15213,0.15213,9.15527e-05,0.000213623,0,0,0,-0.0078125,0.0078125,44.0817,73452
0.0090332,0.0313721,0.948242,-0.15213,-0.30426,-0,9.15527e-05,0.000213623,0,0,0,-0.0078125,0.0078125,44.101,73482
0.00738525,0.0307617,0.944763,0.30426,0.45639,0.15213,9.15527e-05,0.000213623,0,0,0,-0.0078125,0.0078125,44.1211,73497
0.0120239,0.0291138,0.944519,0.15213,0.15213,-0,9.15527e-05,0.000213623,0,0,0,-0.0078125,0.0078125,44.1431,73527
0.00866699,0.0298462,0.946045,-0,-0,0.15213,9.15527e-05,0.000213623,0,0,0,-0.0078125,0.0078125,44.1642,73542
0.0067749,0.0323486,0.948792,0.15213,0.15213,0.15213,9.15527e-05,0.000213623,0,0,0,-0.0078125,0.0078125,44.1847,73557
0.00701904,0.0308838,0.948975,-0,-0.15213,-0,9.15527e-05,0.000213623,0,0,0,-0.0078125,0.0078125,44.2013,73572
0.00671387,0.0298462,0.94989,-0,-0,0.30426,9.15527e-05,0.000213623,0,0,0,-0.0078125,0.0078125,44.2217,73602
0.00982666,0.0319214,0.951355,-0,-0,-0,9.15527e-05,0.000213623,0,0,0,-0.0078125,0.0078125,44.2418,73617
0.00860596,0.0319214,0.944702,-0.15213,-0.15213,0.15213,9.15527e-05,0.000213623,0,0,0,-0.0078125,0.0078125,44.2617,73632
0.00744629,0.0285645,0.945862,-0,-0,-0.15213,9.15527e-05,0.000213623,0,0,0,-0.0078125,0.0078125,44.2821,73662
0.00909424,0.0314331,0.94635,0.15213,0.30426,0.30426,9.15527e-05,0.000213623,0,0,0,-0.0078125,0.0078125,44.3025,73677
0.00604248,0.0305176,0.947449,-0.15213,-0.15213,-0,9.15527e-05,0.000213623,0,0,0,-0.0078125,0.0078125,44.3219,73692
0.00726318,0.0275879,0.944336,0.15213,0.15213,-0,9.15527e-05,0.000213623,0,0,0,-0.0078125,0.0078125,44.3421,73722
0.00939941,0.0302734,0.943359,-0.15213,-0,-0.15213,9.15527e-05,0.000213623,0,0,0,-0.0078125,0.0078125,44.3619,73737
0.00958252,0.0276489,0.947876,0.15213,0.30426,0.30426,9.15527e-05,0.000213623,0,0,0,-0.0078125,0.0078125,44.3819,73752
0.00701904,0.0305786,0.946899,-0.15213,-0,0.30426,9.15527e-05,0.000213623,0,0,0,-0.0078125,0.0078125,44.4011,73782
0.00726318,0.0270996,0.944214,-0,-0.15213,-0,9.15527e-05,0.000213623,0,0,0,-0.0078125,0.0078125,44.4212,73797
0.0100708,0.0293579,0.943237,-0.15213,-0.15213,0.15213,9.15527e-05,0.000213623,0,0,0,-0.0078125,0.0078125,44.4414,73812
0.00653076,0.03125,0.943481,-0,-0,0.15213,9.15527e-05,0.000213623,0,0,0,-0.0078125,0.0078125,44.4612,73842
0.00970459,0.0296631,0.945496,-0,-0,0.15213,9.15527e-05,0.000213623,0,0,0,-0.0078125,0.0078125,44.4814,73857
0.00762939,0.0293579,0.945251,-0,-0,0.15213,9.15527e-05,0.000213623,0,0,0,-0.0078125,0.0078125,44.5014,73872
0.00994873,0.0303345,0.943542,0.15213,0.15213,-0.15213,9.15527e-05,0.000213623,0,0,0,-0.0078125,0.0078125,44.5214,73902
0.00897217,0.0305176,0.946167,0.30426,0.45639,-0,9.15527e-05,0.000213623,0,0,0,-0.0078125,0.0078125,44.5417,73917
0.00946045,0.0316772,0.948547,-0.15213,-0,-0,9.15527e-05,0.000213623,0,0,0,-0.0078125,0.0078125,44.5617,73932
0.00848389,0.0310669,0.949829,-0.45639,-0,-0,9.15527e-05,0.000213623,0,0,0,-0.0078125,0.0078125,44.5818,73962
0.0057373,0.0294189,0.945618,-0,-0,0.45639,9.15527e-05,0.000213623,0,0,0,-0.0078125,0.0078125,44.602,73977
0.00976562,0.0303345,0.949951,0.15213,0.45639,-0,9.15527e-05,0.000213623,0,0,0,-0.0078125,0.0078125,44.6218,73992
0.0100098,0.0307617,0.949158,-0,-0,0.30426,9.15527e-05,0.000213623,0,0,0,-0.0078125,0.0078125,44.6416,74022
0.00866699,0.0299683,0.947754,0.45639,0.15213,-0,9.15527e-05,0.000213623,0,0,0,-0.0078125,0.0078125,44.6616,74037
0.00634766,0.0289917,0.946777,-0.30426,-0.15213,0.15213,9.15527e-05,0.000213623,0,0,0,-0.0078125,0.0078125,44.6825,74052
0.00952148,0.031311,0.943176,-0,-0.15213,0.15213,9.15527e-05,0.000213623,0,0,0,-0.0078125,0.0078125,44.7017,74082
0.00537109,0.027832,0.945251,-0,-0.30426,-0,9.15527e-05,0.000213623,0,0,0,-0.0078125,0.0078125,44.7218,74097
0.00775146,0.0317383,0.948608,-0.15213,-0,0.15213,9.15527e-05,0.000213623,0,0,0,-0.0078125,0.0078125,44.7422,74112
0.00769043,0.0343018,0.946411,-0,0.15213,0.15213,9.15527e-05,0.000213623,0,0,0,-0.0078125,0.0078125,44.7619,74142
0.0078125,0.0296631,0.948059,0.15213,0.15213,-0,9.15527e-05,0.000213623,0,0,0,-0.0078125,0.0078125,44.7819,74157
0.00909424,0.0290527,0.942322,0.15213,0.30426,-0,9.15527e-05,0.000213623,0,0,0,-0.0078125,0.0078125,44.8018,74172
0.00738525,0.0292358,0.942932,0.15213,0.15213,-0,9.15527e-05,0.000213623,0,0,0,-0.0078125,0.0078125,44.821,74202
0.00640869,0.0328369,0.95166,0.15213,0.15213,0.30426,9.15527e-05,0.000213623,0,0,0,-0.0078125,0.0078125,44.8412,74217
0.00756836,0.0305176,0.943176,0.30426,0.15213,-0.15213,9.15527e-05,0.000213623,0,0,0,-0.0078125,0.0078125,44.8613,74232
0.00689697,0.0283813,0.943665,0.15213,0.15213,0.30426,9.15527e-05,0.000213623,0,0,0,-0.0078125,0.0078125,44.8813,74262
0.0088501,0.0299072,0.949707,-0.15213,-0.15213,0.30426,9.15527e-05,0.000213623,0,0,0,-0.0078125,0.0078125,44.9012,74277
0.00799561,0.031311,0.946106,-0,0.15213,-0,9.15527e-05,0.000213623,0,0,0,-0.0078125,0.0078125,44.9216,74292
0.00701904,0.0290527,0.945984,0.15213,0.15213,0.30426,9.15527e-05,0.000213623,0,0,0,-0.0078125,0.0078125,44.9412,74322
0.0105591,0.0316162,0.948425,0.15213,0.45639,0.15213,9.15527e-05,0.000213623,0,0,0,-0.0078125,0.0078125,44.9613,74337
0.0067749,0.0324097,0.944702,0.15213,0.30426,-0,9.15527e-05,0.000213623,0,0,0,-0.0078125,0.0078125,44.9834,74367
0.00982666,0.0303955,0.944092,0.15213,0.15213,-0,9.15527e-05,0.000213623,0,0,0,-0.0078125,0.0078125,45.0027,74382
0.00775146,0.0307007,0.94873,0.15213,0.15213,-0,9.15527e-05,0.000213623,0,0,0,-0.0078125,0.0078125,45.0217,74396
0.00793457,0.0310669,0.946655,0.15213,0.30426,0.15213,9.15527e-05,0.000213623,0,0,0,-0.0078125,0.0078125,45.0419,74411
0.00909424,0.0263062,0.949219,0.15213,0.15213,-0,9.15527e-05,0.000213623,0,0,0,-0.0078125,0.0078125,45.062,74442
0.00775146,0.03302,0.945068,-0,-0,-0,9.15527e-05,0.000213623,0,0,0,-0.0078125,0.0078125,45.0849,74456
0.0111084,0.0314331,0.946289,0.15213,0.15213,0.15213,9.15527e-05,0.000213623,0,0,0,-0.0078125,0.0078125,45.1011,74471
0.00610352,0.0288086,0.940247,0.15213,0.30426,-0,9.15527e-05,0.000213623,0,0,0,-0.0078125,0.0078125,45.1212,74502
0.00811768,0.0308838,0.947144,-0,-0.15213,0.15213,9.15527e-05,0.000213623,0,0,0,-0.0078125,0.0078125,45.1437,74516
0.00494385,0.0321045,0.945557,0.30426,0.15213,-0.15213,9.15527e-05,0.000213623,0,0,0,-0.0078125,0.0078125,45.1611,74531
0.00714111,0.03125,0.949524,0.30426,0.15213,-0,9.15527e-05,0.000213623,0,0,0,-0.0078125,0.0078125,45.184,74562
0.00628662,0.0288086,0.944092,0.15213,0.15213,-0,9.15527e-05,0.000213623,0,0,0,-0.0078125,0.0078125,45.201,74576
0.00714111,0.0299072,0.944824,-0,-0,-0,9.15527e-05,0.000213623,0,0,0,-0.0078125,0.0078125,45.2212,74591
0.00854492,0.0291138,0.945251,0.15213,0.15213,-0.15213,9.15527e-05,0.000213623,0,0,0,-0.0078125,0.0078125,45.2445,74622
0.00744629,0.03125,0.945007,-0.15213,-0.15213,0.15213,9.15527e-05,0.000213623,0,0,0,-0.0078125,0.0078125,45.2613,74636
0.0109253,0.0299072,0.943115,0.15213,0.30426,-0,9.15527e-05,0.000213623,0,0,0,-0.0078125,0.0078125,45.2812,74651
0.00805664,0.0302124,0.940125,-0,-0.15213,0.15213,9.15527e-05,0.000213623,0,0,0,-0.0078125,0.0078125,45.3013,74682
0.010376,0.0339355,0.949585,0.15213,0.15213,0.15213,9.15527e-05,0.000213623,0,0,0,-0.0078125,0.0078125,45.3215,74696
0.00750732,0.029541,0.945435,-0,-0.30426,-0.15213,9.15527e-05,0.000213623,0,0,0,-0.0078125,0.0078125,45.3415,74711
0.00762939,0.0292358,0.948364,-0,-0.15213,0.15213,9.15527e-05,0.000213623,0,0,0,-0.0078125,0.0078125,45.3617,74742
0.00878906,0.0299072,0.944397,-0,-0,0.15213,9.15527e-05,0.000213623,0,0,0,-0.0078125,0.0078125,45.3817,74756
0.00787354,0.0284424,0.940125,-0.15213,-0.15213,0.30426,9.15527e-05,0.000213623,0,0,0,-0.0078125,0.0078125,45.4016,74771
0.00585938,0.0332642,0.946167,-0,0.15213,-0,9.15527e-05,0.000213623,0,0,0,-0.0078125,0.0078125,45.4218,74802
0.00854492,0.0335083,0.946594,0.15213,0.30426,-0,9.15527e-05,0.000213623,0,0,0,-0.0078125,0.0078125,45.4418,74816
0.00842285,0.0319824,0.94812,-0,0.15213,0.15213,9.15527e-05,0.000213623,0,0,0,-0.0078125,0.0078125,45.461,74831
0.00854492,0.0308838,0.947205,-0,-0,0.15213,9.15527e-05,0.000213623,0,0,0,-0.0078125,0.0078125,45.4811,74862
0.00708008,0.0281982,0.943359,-0,-0.15213,-0,9.15527e-05,0.000213623,0,0,0,-0.0078125,0.0078125,45.5045,74876
0.00622559,0.029541,0.946472,-0.15213,-0,-0,9.15527e-05,0.000213623,0,0,0,-0.0078125,0.0078125,45.5212,74891
0.00726318,0.0316162,0.946655,-0,0.30426,0.30426,9.15527e-05,0.000213623,0,0,0,-0.0078125,0.0078125,45.5414,74922
0.00872803,0.031311,0.947876,-0.15213,-0.15213,0.15213,9.15527e-05,0.000213623,0,0,0,-0.0078125,0.0078125,45.5616,74936
0.00811768,0.0306396,0.946411,-0.15213,-0,0.30426,9.15527e-05,0.000213623,0,0,0,-0.0078125,0.0078125,45.5813,74951
0.0078125,0.0321655,0.948669,-0,-0.15213,0.15213,9.15527e-05,0.000213623,0,0,0,-0.0078125,0.0078125,45.6015,74982
0.00982666,0.031311,0.947754,-0.15213,-0.15213,-0.15213,9.15527e-05,0.000213623,0,0,0,-0.0078125,0.0078125,45.6215,74996
0.00665283,0.0302124,0.943481,-0,-0.15213,-0.30426,9.15527e-05,0.000213623,0,0,0,-0.0078125,0.0078125,45.6414,75011
0.00756836,0.0308838,0.948853,-0,0.15213,0.45639,9.15527e-05,0.000213623,0,0,0,-0.0078125,0.0078125,45.6616,75042
0.00494385,0.0308838,0.945435,-0,-0.30426,0.30426,9.15527e-05,0.000213623,0,0,0,-0.0078125,0.0078125,45.6816,75056
0.00689697,0.0304565,0.947937,0.30426,0.15213,0.15213,9.15527e-05,0.000213623,0,0,0,-0.0078125,0.0078125,45.7016,75071
0.00958252,0.0296631,0.94165,-0.15213,-0.30426,0.15213,9.15527e-05,0.000213623,0,0,0,-0.0078125,0.0078125,45.7217,75102
0.00927734,0.0291138,0.945374,-0.30426,-0,0.15213,9.15527e-05,0.000213623,0,0,0,-0.0078125,0.0078125,45.7417,75116
0.00866699,0.0299683,0.949219,0.15213,0.30426,0.15213,9.15527e-05,0.000213623,0,0,0,-0.0078125,0.0078125,45.7617,75146
0.0111694,0.0344849,0.944397,-0,-0.15213,0.15213,9.15527e-05,0.000213623,0,0,0,-0.0078125,0.0078125,45.7817,75162
0.00836182,0.0303345,0.94342,-0,-0,0.45639,9.15527e-05,0.000213623,0,0,0,-0.0078125,0.0078125,45.8019,75176
0.00854492,0.03125,0.945007,-0,-0.15213,-0,9.15527e-05,0.000213623,0,0,0,-0.0078125,0.0078125,45.8217,75191
0.00897217,0.0314941,0.945312,-0.30426,-0.15213,0.15213,9.15527e-05,0.000213623,0,0,0,-0.0078125,0.0078125,45.841,75222
0.00616455,0.0307007,0.948853,-0.15213,0.15213,0.30426,9.15527e-05,0.000213623,0,0,0,-0.0078125,0.0078125,45.861,75236
0.00921631,0.0315552,0.950073,-0.15213,-0.15213,-0,9.15527e-05,0.000213623,0,0,0,-0.0078125,0.0078125,45.8814,75251
0.0101318,0.031311,0.945923,-0,0.15213,0.15213,9.15527e-05,0.000213623,0,0,0,-0.0078125,0.0078125,45.9039,75281
0.00726318,0.0296021,0.946594,-0.30426,-0,0.15213,9.15527e-05,0.000213623,0,0,0,-0.0078125,0.0078125,45.9215,75296
0.00726318,0.0311279,0.950134,0.30426,0.30426,0.15213,9.15527e-05,0.000213623,0,0,0,-0.0078125,0.0078125,45.9415,75311
0.00817871,0.0304565,0.944214,0.15213,0.15213,0.15213,9.15527e-05,0.000213623,0,0,0,-0.0078125,0.0078125,45.9615,75341
0.00817871,0.032959,0.950867,-0,-0,-0,9.15527e-05,0.000213623,0,0,0,-0.0078125,0.0078125,45.9819,75356
0.00872803,0.0302124,0.94873,-0,-0.15213,-0,9.15527e-05,0.000213623,0,0,0,-0.0078125,0.0078125,46.0017,75371
0.00872803,0.0301514,0.943909,0.30426,0.30426,0.15213,9.15527e-05,0.000213623,0,0,0,-0.0078125,0.0078125,46.0232,75401
0.00854492,0.0265503,0.950256,-0,-0,-0,9.15527e-05,0.000213623,0,0,0,-0.0078125,0.0078125,46.0421,75416
0.00610352,0.0308228,0.946533,-0.15213,-0,-0,9.15527e-05,0.000213623,0,0,0,-0.0078125,0.0078125,46.0619,75446
0.00933838,0.0298462,0.952637,-0.15213,-0,0.15213,9.15527e-05,0.000213623,0,0,0,-0.0078125,0.0078125,46.0813,75461
0.00842285,0.0301514,0.946289,0.15213,0.45639,-0.15213,9.15527e-05,0.000213623,0,0,0,-0.0078125,0.0078125,46.1017,75476
0.0100098,0.0289917,0.948242,0.15213,0.15213,-0.15213,9.15527e-05,0.000213623,0,0,0,-0.0078125,0.0078125,46.121,75491
0.0106812,0.0300293,0.947144,-0.30426,-0.15213,0.15213,9.15527e-05,0.000213623,0,0,0,-0.0078125,0.0078125,46.1411,75521
0.00732422,0.0285034,0.946594,-0,-0,-0,9.15527e-05,0.000213623,0,0,0,-0.0078125,0.0078125,46.1613,75536
0.00860596,0.0305786,0.943909,-0.15213,-0,0.30426,9.15527e-05,0.000213623,0,0,0,-0.0078125,0.0078125,46.1826,75551
0.00708008,0.0288086,0.947754,0.15213,-0,-0.15213,9.15527e-05,0.000213623,0,0,0,-0.0078125,0.0078125,46.2019,75581
0.0100098,0.0306396,0.947327,0.15213,0.15213,0.15213,9.15527e-05,0.000213623,0,0,0,-0.0078125,0.0078125,46.2216,75596
0.0067749,0.0323486,0.945679,-0,-0,0.30426,9.15527e-05,0.000213623,0,0,0,-0.0078125,0.0078125,46.2417,75611
0.00866699,0.0339966,0.94635,-0,0.15213,-0,9.15527e-05,0.000213623,0,0,0,-0.0078125,0.0078125,46.2617,75641
0.00897217,0.0325928,0.945557,0.15213,0.30426,0.15213,9.15527e-05,0.000213623,0,0,0,-0.0078125,0.0078125,46.2818,75656
0.010498,0.0288696,0.944336,-0,-0,-0.15213,9.15527e-05,0.000213623,0,0,0,-0.0078125,0.0078125,46.3018,75671
0.00750732,0.027832,0.947205,0.15213,-0,-0,9.15527e-05,0.000213623,0,0,0,-0.0078125,0.0078125,46.321,75701
0.00927734,0.0281982,0.945923,-0.15213,-0,0.30426,9.15527e-05,0.000213623,0,0,0,-0.0078125,0.0078125,46.341,75716
0.00732422,0.0314941,0.946228,0.30426,0.15213,0.30426,9.15527e-05,0.000213623,0,0,0,-0.0078125,0.0078125,46.3611,75731
0.00610352,0.0308228,0.944397,-0.15213,-0.15213,0.30426,9.15527e-05,0.000213623,0,0,0,-0.0078125,0.0078125,46.381,75761
0.00695801,0.0293579,0.954407,-0,-0.30426,0.15213,9.15527e-05,0.000213623,0,0,0,-0.0078125,0.0078125,46.4012,75776
0.00708008,0.0328369,0.951538,-0.15213,-0,0.15213,9.15527e-05,0.000213623,0,0,0,-0.0078125,0.0078125,46.4231,75791
0.0110474,0.0301514,0.944824,0.15213,0.15213,-0,9.15527e-05,0.000213623,0,0,0,-0.0078125,0.0078125,46.4413,75821
0.00915527,0.0291748,0.955261,0.15213,0.30426,-0,9.15527e-05,0.000213623,0,0,0,-0.0078125,0.0078125,46.4615,75836
0.00738525,0.0280762,0.949463,-0,-0,0.30426,9.15527e-05,0.000213623,0,0,0,-0.0078125,0.0078125,46.4817,75851
0.00634766,0.02948,0.942139,0.15213,0.30426,0.30426,9.15527e-05,0.000213623,0,0,0,-0.0078125,0.0078125,46.5017,75881
0.00714111,0.02948,0.948364,-0.15213,-0.15213,0.30426,9.15527e-05,0.000213623,0,0,0,-0.0078125,0.0078125,46.5217,75896
0.00909424,0.0296631,0.948364,0.45639,0.15213,0.15213,9.15527e-05,0.000213623,0,0,0,-0.0078125,0.0078125,46.5423,75926
0.0067749,0.0318604,0.947815,-0.15213,-0.15213,0.15213,9.15527e-05,0.000213623,0,0,0,-0.0078125,0.0078125,46.5617,75941
0.010498,0.0301514,0.952698,-0.15213,-0,-0,9.15527e-05,0.000213623,0,0,0,-0.0078125,0.0078125,46.5818,75956
0.00915527,0.0300903,0.948303,-0.15213,-0.15213,0.15213,9.15527e-05,0.000213623,0,0,0,-0.0078125,0.0078125,46.601,75971
0.00939941,0.0330811,0.947754,-0.30426,-0,0.30426,9.15527e-05,0.000213623,0,0,0,-0.0078125,0.0078125,46.6213,76001
0.00634766,0.0308838,0.949097,-0,0.15213,-0,9.15527e-05,0.000213623,0,0,0,-0.0078125,0.0078125,46.6415,76016
0.0088501,0.0281372,0.941711,-0.15213,0.15213,0.15213,9.15527e-05,0.000213623,0,0,0,-0.0078125,0.0078125,46.6612,76031
0.00921631,0.0344849,0.950317,-0.15213,-0,0.15213,9.15527e-05,0.000213623,0,0,0,-0.0078125,0.0078125,46.6813,76061
0.00622559,0.0315552,0.947937,-0,-0.30426,-0,9.15527e-05,0.000213623,0,0,0,-0.0078125,0.0078125,46.7013,76076
0.00860596,0.0316772,0.945557,-0.15213,-0,0.45639,9.15527e-05,0.000213623,0,0,0,-0.0078125,0.0078125,46.7236,76106
0.0067749,0.0300293,0.945984,0.15213,0.15213,0.30426,9.15527e-05,0.000213623,0,0,0,-0.0078125,0.0078125,46.7434,76121
0.00561523,0.0292358,0.94989,-0.30426,-0,0.15213,9.15527e-05,0.000213623,0,0,0,-0.0078125,0.0078125,46.7616,76136
0.00848389,0.0318604,0.94812,0.15213,0.15213,-0,9.15527e-05,0.000213623,0,0,0,-0.0078125,0.0078125,46.7815,76151
0.00842285,0.0313721,0.944702,-0,-0.15213,-0,9.15527e-05,0.000213623,0,0,0,-0.0078125,0.0078125,46.8017,76181
0.00860596,0.0322266,0.946716,0.15213,0.15213,-0.15213,9.15527e-05,0.000213623,0,0,0,-0.0078125,0.0078125,46.8215,76196
0.0118408,0.0307617,0.950684,-0,0.15213,0.15213,9.15527e-05,0.000213623,0,0,0,-0.0078125,0.0078125,46.8417,76226
0.00915527,0.03125,0.950806,-0,-0,0.15213,9.15527e-05,0.000213623,0,0,0,-0.0078125,0.0078125,46.8617,76241
0.0088501,0.0297241,0.946594,-0,-0,0.15213,9.15527e-05,0.000213623,0,0,0,-0.0078125,0.0078125,46.8818,76256
0.00842285,0.0299683,0.947144,0.15213,0.15213,-0,9.15527e-05,0.000213623,0,0,0,-0.0078125,0.0078125,46.9019,76286
0.00982666,0.0290527,0.946472,-0,-0.15213,-0.30426,9.15527e-05,0.000213623,0,0,0,-0.0078125,0.0078125,46.9212,76301
0.00646973,0.03125,0.946411,-0.15213,-0.15213,0.45639,9.15527e-05,0.000213623,0,0,0,-0.0078125,0.0078125,46.9409,76316
0.00744629,0.0265503,0.94873,0.15213,-0,-0,9.15527e-05,0.000213623,0,0,0,-0.0078125,0.0078125,46.9627,76331
0.00860596,0.0291748,0.950073,-0,-0.15213,-0,9.15527e-05,0.000213623,0,0,0,-0.0078125,0.0078125,46.9811,76361
0.00701904,0.0326538,0.951965,0.15213,0.15213,0.15213,9.15527e-05,0.000213623,0,0,0,-0.0078125,0.0078125,47.0012,76376
0.00579834,0.0299072,0.94989,-0,-0,-0,9.15527e-05,0.000213623,0,0,0,-0.0078125,0.0078125,47.021,76391
0.00695801,0.0286255,0.947998,-0.15213,-0,0.15213,9.15527e-05,0.000213623,0,0,0,-0.0078125,0.0078125,47.0421,76421
0.00720215,0.0292358,0.950562,-0,-0,0.15213,9.15527e-05,0.000213623,0,0,0,-0.0078125,0.0078125,47.0612,76436
0.00909424,0.0331421,0.946289,-0,0.15213,-0,9.15527e-05,0.000213623,0,0,0,-0.0078125,0.0078125,47.0814,76451
0.00805664,0.0308228,0.94812,-0,-0,0.15213,9.15527e-05,0.000213623,0,0,0,-0.0078125,0.0078125,47.1012,76481
0.00970459,0.0280762,0.950439,-0,-0.15213,-0,9.15527e-05,0.000213623,0,0,0,-0.0078125,0.0078125,47.1241,76496
0.0115356,0.031189,0.950317,-0,-0,-0.15213,9.15527e-05,0.000213623,0,0,0,-0.0078125,0.0078125,47.1415,76526
0.00891113,0.0307617,0.948853,-0,-0.15213,0.30426,9.15527e-05,0.000213623,0,0,0,-0.0078125,0.0078125,47.1615,76541
0.00866699,0.0290527,0.946045,0.15213,0.15213,0.15213,9.15527e-05,0.000213623,0,0,0,-0.0078125,0.0078125,47.1816,76556
0.0106201,0.0307007,0.938477,-0,-0.15213,-0.30426,9.15527e-05,0.000213623,0,0,0,-0.0078125,0.0078125,47.2017,76571
0.00738525,0.0304565,0.948303,0.15213,0.15213,0.30426,9.15527e-05,0.000213623,0,0,0,-0.0078125,0.0078125,47.2217,76601
0.00744629,0.0316772,0.948547,-0,-0,0.15213,9.15527e-05,0.000213623,0,0,0,-0.0078125,0.0078125,47.2422,76615
0.00946045,0.0285034,0.953247,-0.45639,-0,0.30426,9.15527e-05,0.000213623,0,0,0,-0.0078125,0.0078125,47.2619,76645
0.00817871,0.0283813,0.942566,-0,-0.15213,-0.15213,9.15527e-05,0.000213623,0,0,0,-0.0078125,0.0078125,47.282,76661
0.00848389,0.0302124,0.945129,-0,-0.15213,0.30426,9.15527e-05,0.000213623,0,0,0,-0.0078125,0.0078125,47.3018,76675
0.00939941,0.0276489,0.945496,-0.15213,-0,-0,9.15527e-05,0.000213623,0,0,0,-0.0078125,0.0078125,47.3219,76705
0.00799561,0.0299683,0.947327,-0.15213,-0,-0,9.15527e-05,0.000213623,0,0,0,-0.0078125,0.0078125,47.341,76721
0.00744629,0.0301514,0.947449,-0,-0,0.15213,9.15527e-05,0.000213623,0,0,0,-0.0078125,0.0078125,47.3615,76735
0.00817871,0.0317383,0.944031,-0,0.15213,-0,9.15527e-05,0.000213623,0,0,0,-0.0078125,0.0078125,47.3811,76750
0.00946045,0.0303955,0.947571,-0,-0.15213,-0,9.15527e-05,0.000213623,0,0,0,-0.0078125,0.0078125,47.4012,76781
0.00836182,0.0299072,0.949646,0.15213,0.45639,0.30426,9.15527e-05,0.000213623,0,0,0,-0.0078125,0.0078125,47.4214,76795
0.00805664,0.0299072,0.946167,0.15213,0.45639,-0,9.15527e-05,0.000213623,0,0,0,-0.0078125,0.0078125,47.4417,76810
0.00732422,0.0309448,0.947571,-0.15213,-0,0.30426,9.15527e-05,0.000213623,0,0,0,-0.0078125,0.0078125,47.4615,76841
0.00744629,0.0306396,0.94873,0.15213,0.45639,-0.30426,9.15527e-05,0.000213623,0,0,0,-0.0078125,0.0078125,47.4819,76855
0.00805664,0.0304565,0.943237,-0,-0.15213,0.15213,9.15527e-05,0.000213623,0,0,0,-0.0078125,0.0078125,47.5019,76885
0.00646973,0.031311,0.946533,0.15213,0.15213,0.30426,9.15527e-05,0.000213623,0,0,0,-0.0078125,0.0078125,47.5218,76901
0.00854492,0.0279541,0.948303,0.15213,0.15213,0.15213,9.15527e-05,0.000213623,0,0,0,-0.0078125,0.0078125,47.5426,76915
0.00720215,0.029541,0.944763,-0,0.15213,0.15213,9.15527e-05,0.000213623,0,0,0,-0.0078125,0.0078125,47.5627,76945
0.00866699,0.0280762,0.947205,-0,-0,0.15213,9.15527e-05,0.000213623,0,0,0,-0.0078125,0.0078125,47.5811,76961
0.00634766,0.0296631,0.944763,-0,-0,0.15213,9.15527e-05,0.000213623,0,0,0,-0.0078125,0.0078125,47.6013,76975
0.00787354,0.03125,0.947327,0.15213,0.15213,0.15213,9.15527e-05,0.000213623,0,0,0,-0.0078125,0.0078125,47.6211,76990
0.00634766,0.0296631,0.953186,-0,0.15213,0.15213,9.15527e-05,0.000213623,0,0,0,-0.0078125,0.0078125,47.641,77021
0.00610352,0.0310059,0.94397,0.15213,0.30426,-0.30426,9.15527e-05,0.000213623,0,0,0,-0.0078125,0.0078125,47.6616,77035
0.00866699,0.0299072,0.949585,0.15213,0.15213,0.15213,9.15527e-05,0.000213623,0,0,0,-0.0078125,0.0078125,47.6815,77050
0.00701904,0.0290527,0.944702,0.15213,0.15213,-0,9.15527e-05,0.000213623,0,0,0,-0.0078125,0.0078125,47.7013,77081
0.00708008,0.0300293,0.94696,0.15213,0.45639,0.45639,9.15527e-05,0.000213623,0,0,0,-0.0078125,0.0078125,47.7214,77095
0.00787354,0.0291748,0.950745,0.30426,0.15213,0.15213,9.15527e-05,0.000213623,0,0,0,-0.0078125,0.0078125,47.7423,77125
0.0100098,0.0305176,0.94574,-0,0.15213,0.30426,9.15527e-05,0.000213623,0,0,0,-0.0078125,0.0078125,47.7615,77141
0.00756836,0.0300903,0.943726,-0,-0,0.15213,9.15527e-05,0.000213623,0,0,0,-0.0078125,0.0078125,47.7825,77155
0.00811768,0.0286865,0.94812,0.15213,0.15213,0.15213,9.15527e-05,0.000213623,0,0,0,-0.0078125,0.0078125,47.8017,77185
0.00805664,0.0283203,0.949463,0.15213,0.45639,0.30426,9.15527e-05,0.000213623,0,0,0,-0.0078125,0.0078125,47.8221,77201
0.00805664,0.0338745,0.94165,0.45639,0.30426,0.30426,9.15527e-05,0.000213623,0,0,0,-0.0078125,0.0078125,47.841,77215
0.00970459,0.0289307,0.949341,-0.15213,-0.15213,0.30426,9.15527e-05,0.000213623,0,0,0,-0.0078125,0.0078125,47.8612,77230
0.00964355,0.0284424,0.949097,-0,-0,0.30426,9.15527e-05,0.000213623,0,0,0,-0.0078125,0.0078125,47.8811,77261
0.00854492,0.0300903,0.948914,0.15213,0.15213,0.30426,9.15527e-05,0.000213623,0,0,0,-0.0078125,0.0078125,47.9034,77275
0.00842285,0.0308228,0.951355,-0,-0,0.15213,9.15527e-05,0.000213623,0,0,0,-0.0078125,0.0078125,47.9215,77305
0.00579834,0.0299072,0.949097,-0,-0.45639,-0,9.15527e-05,0.000213623,0,0,0,-0.0078125,0.0078125,47.9414,77321
0.00921631,0.0292358,0.943726,0.15213,0.30426,0.15213,9.15527e-05,0.000213623,0,0,0,-0.0078125,0.0078125,47.9616,77335
0.0100098,0.03125,0.944092,0.30426,0.15213,0.30426,9.15527e-05,0.000213623,0,0,0,-0.0078125,0.0078125,47.9813,77365
0.00720215,0.0310059,0.947815,0.15213,0.15213,-0,9.15527e-05,0.000213623,0,0,0,-0.0078125,0.0078125,48.0018,77381
0.00946045,0.0283813,0.942078,-0,-0,-0,9.15527e-05,0.000213623,0,0,0,-0.0078125,0.0078125,48.0217,77395
0.00872803,0.0296631,0.94873,0.15213,0.30426,0.15213,9.15527e-05,0.000213623,0,0,0,-0.0078125,0.0078125,48.0417,77425
0.00994873,0.0323486,0.949341,-0,0.15213,0.45639,9.15527e-05,0.000213623,0,0,0,-0.0078125,0.0078125,48.0646,77441
0.00921631,0.0283203,0.946045,-0,-0,-0,9.15527e-05,0.000213623,0,0,0,-0.0078125,0.0078125,48.0817,77455
0.00769043,0.0302124,0.944824,-0.30426,-0.15213,0.15213,9.15527e-05,0.000213623,0,0,0,-0.0078125,0.0078125,48.1018,77470
0.00701904,0.0319214,0.950684,0.15213,0.30426,0.15213,9.15527e-05,0.000213623,0,0,0,-0.0078125,0.0078125,48.1219,77500
0.0078125,0.0303345,0.94751,-0,-0.15213,0.15213,9.15527e-05,0.000213623,0,0,0,-0.0078125,0.0078125,48.1419,77515
0.00640869,0.0299683,0.946594,-0,-0,0.15213,9.15527e-05,0.000213623,0,0,0,-0.0078125,0.0078125,48.1615,77545
0.00701904,0.0308838,0.946106,-0.15213,-0,0.15213,9.15527e-05,0.000213623,0,0,0,-0.0078125,0.0078125,48.1813,77560
0.00695801,0.0314941,0.948486,0.15213,-0,0.30426,9.15527e-05,0.000213623,0,0,0,-0.0078125,0.0078125,48.201,77575
0.00592041,0.0300293,0.950623,0.30426,0.45639,-0,9.15527e-05,0.000213623,0,0,0,-0.0078125,0.0078125,48.2214,77605
0.00561523,0.0303345,0.947998,-0.15213,-0,0.15213,9.15527e-05,0.000213623,0,0,0,-0.0078125,0.0078125,48.2412,77620
0.00994873,0.0292358,0.949585,-0,-0,0.15213,9.15527e-05,0.000213623,0,0,0,-0.0078125,0.0078125,48.261,77635
0.00848389,0.0296021,0.939453,-0.15213,-0,0.15213,9.15527e-05,0.000213623,0,0,0,-0.0078125,0.0078125,48.2811,77665
0.0045166,0.0333862,0.949524,0.15213,0.15213,0.15213,9.15527e-05,0.000213623,0,0,0,-0.0078125,0.0078125,48.3012,77680
0.00695801,0.0326538,0.945618,-0,-0.15213,0.15213,9.15527e-05,0.000213623,0,0,0,-0.0078125,0.0078125,48.3212,77695
0.00860596,0.0284424,0.943481,-0,-0,0.15213,9.15527e-05,0.000213623,0,0,0,-0.0078125,0.0078125,48.3412,77710
0.00805664,0.0305176,0.950134,-0,0.15213,-0,9.15527e-05,0.000213623,0,0,0,-0.0078125,0.0078125,48.3615,77740
0.00701904,0.0291138,0.950989,0.15213,0.15213,0.15213,9.15527e-05,0.000213623,0,0,0,-0.0078125,0.0078125,48.3819,77755
0.00799561,0.0317993,0.944885,0.15213,0.30426,0.45639,9.15527e-05,0.000213623,0,0,0,-0.0078125,0.0078125,48.4015,77770
0.00738525,0.0279541,0.948547,-0.15213,-0,0.15213,9.15527e-05,0.000213623,0,0,0,-0.0078125,0.0078125,48.4218,77800
0.0057373,0.0292969,0.945923,0.30426,0.30426,-0,9.15527e-05,0.000213623,0,0,0,-0.0078125,0.0078125,48.4412,77815
0.0055542,0.0297852,0.948547,-0,-0.30426,0.30426,9.15527e-05,0.000213623,0,0,0,-0.0078125,0.0078125,48.4638,77845
0.00695801,0.0288086,0.947083,0.15213,0.15213,0.15213,9.15527e-05,0.000213623,0,0,0,-0.0078125,0.0078125,48.4819,77860
0.00537109,0.03125,0.945312,0.15213,0.15213,0.45639,9.15527e-05,0.000213623,0,0,0,-0.0078125,0.0078125,48.5013,77875
0.0057373,0.0293579,0.950439,-0,-0.15213,-0,9.15527e-05,0.000213623,0,0,0,-0.0078125,0.0078125,48.5215,77905
0.0055542,0.0314941,0.94397,-0,-0.15213,-0,9.15527e-05,0.000213623,0,0,0,-0.0078125,0.0078125,48.5419,77920
0.00866699,0.0310059,0.948853,0.15213,0.30426,0.15213,9.15527e-05,0.000213623,0,0,0,-0.0078125,0.0078125,48.5618,77935
0.00817871,0.0296631,0.949219,-0,-0.15213,0.15213,9.15527e-05,0.000213623,0,0,0,-0.0078125,0.0078125,48.5915,77965
0.00726318,0.0333862,0.945435,0.15213,0.15213,0.15213,9.15527e-05,0.000213623,0,0,0,-0.0078125,0.0078125,48.6012,77980
0.00823975,0.0285034,0.949097,-0.15213,-0,0.15213,9.15527e-05,0.000213623,0,0,0,-0.0078125,0.0078125,48.6211,77995
0.00732422,0.0291748,0.951294,0.15213,0.30426,0.15213,9.15527e-05,0.000213623,0,0,0,-0.0078125,0.0078125,48.6414,78010
0.00927734,0.0299072,0.939941,0.15213,0.30426,0.45639,9.15527e-05,0.000213623,0,0,0,-0.0078125,0.0078125,48.6615,78040
0.00622559,0.0302124,0.946594,0.45639,0.15213,0.15213,9.15527e-05,0.000213623,0,0,0,-0.0078125,0.0078125,48.6812,78055
0.0100708,0.0303345,0.942627,0.15213,0.15213,-0,9.15527e-05,0.000213623,0,0,0,-0.0078125,0.0078125,48.7025,78085
0.00866699,0.02771,0.946533,-0,-0.15213,0.15213,9.15527e-05,0.000213623,0,0,0,-0.0078125,0.0078125,48.7213,78100
0.0109253,0.0297241,0.945557,0.30426,-0,-0,9.15527e-05,0.000213623,0,0,0,-0.0078125,0.0078125,48.7414,78115
0.00793457,0.0317383,0.940857,-0,-0,0.15213,9.15527e-05,0.000213623,0,0,0,-0.0078125,0.0078125,48.7616,78145
0.0117798,0.0283203,0.948608,-0.15213,-0.15213,0.15213,9.15527e-05,0.000213623,0,0,0,-0.0078125,0.0078125,48.7816,78160
0.00842285,0.0316772,0.945374,0.15213,0.30426,0.15213,9.15527e-05,0.000213623,0,0,0,-0.0078125,0.0078125,48.8018,78175
0.00866699,0.0322266,0.944336,0.15213,0.15213,0.15213,9.15527e-05,0.000213623,0,0,0,-0.0078125,0.0078125,48.8216,78205
0.00714111,0.0314941,0.945435,-0,-0,-0,9.15527e-05,0.000213623,0,0,0,-0.0078125,0.0078125,48.8429,78220
0.00811768,0.0307007,0.951477,-0,-0.15213,0.30426,9.15527e-05,0.000213623,0,0,0,-0.0078125,0.0078125,48.8617,78235
0.0109863,0.0305176,0.947021,-0,0.30426,0.30426,9.15527e-05,0.000213623,0,0,0,-0.0078125,0.0078125,48.8818,78265
0.00769043,0.0291748,0.943909,0.15213,0.30426,-0,9.15527e-05,0.000213623,0,0,0,-0.0078125,0.0078125,48.9032,78280
0.00689697,0.0319824,0.949097,-0,-0,0.30426,9.15527e-05,0.000213623,0,0,0,-0.0078125,0.0078125,48.9219,78295
0.0101318,0.0282593,0.946777,-0.30426,-0,-0,9.15527e-05,0.000213623,0,0,0,-0.0078125,0.0078125,48.9418,78325
0.00738525,0.0289917,0.949158,-0,-0.15213,0.30426,9.15527e-05,0.000213623,0,0,0,-0.0078125,0.0078125,48.961,78340
0.00842285,0.0290527,0.946533,0.30426,0.15213,0.15213,9.15527e-05,0.000213623,0,0,0,-0.0078125,0.0078125,48.9809,78355
0.00939941,0.0307617,0.946777,-0,0.15213,0.15213,9.15527e-05,0.000213623,0,0,0,-0.0078125,0.0078125,49.0026,78385
0.0111084,0.027832,0.948364,-0,-0,0.15213,9.15527e-05,0.000213623,0,0,0,-0.0078125,0.0078125,49.021,78400
0.00646973,0.0315552,0.946899,0.15213,0.30426,-0,9.15527e-05,0.000213623,0,0,0,-0.0078125,0.0078125,49.0411,78415
0.00793457,0.0335083,0.944458,0.15213,0.15213,-0,9.15527e-05,0.000213623,0,0,0,-0.0078125,0.0078125,49.0613,78430
0.00891113,0.0306396,0.952637,0.15213,0.30426,0.15213,9.15527e-05,0.000213623,0,0,0,-0.0078125,0.0078125,49.0811,78460
0.00836182,0.0267944,0.945618,-0,-0,0.15213,9.15527e-05,0.000213623,0,0,0,-0.0078125,0.0078125,49.1022,78475
0.0090332,0.0298462,0.94635,-0,-0,0.15213,9.15527e-05,0.000213623,0,0,0,-0.0078125,0.0078125,49.1216,78505
0.00708008,0.0298462,0.947998,0.15213,0.15213,0.15213,9.15527e-05,0.000213623,0,0,0,-0.0078125,0.0078125,49.1418,78520
0.0057373,0.0302734,0.946838,-0,-0,0.15213,9.15527e-05,0.000213623,0,0,0,-0.0078125,0.0078125,49.1615,78535
0.00762939,0.0300903,0.947449,-0,-0,-0,9.15527e-05,0.000213623,0,0,0,-0.0078125,0.0078125,49.1815,78565
0.00842285,0.0321045,0.9505,0.15213,0.15213,0.30426,9.15527e-05,0.000213623,0,0,0,-0.0078125,0.0078125,49.2015,78580
0.00970459,0.0302124,0.946899,0.15213,-0,-0.45639,9.15527e-05,0.000213623,0,0,0,-0.0078125,0.0078125,49.2217,78595
0.00640869,0.0280762,0.946533,-0.15213,-0.15213,0.15213,9.15527e-05,0.000213623,0,0,0,-0.0078125,0.0078125,49.2417,78625
0.00653076,0.0283203,0.941833,-0.15213,-0,0.30426,9.15527e-05,0.000213623,0,0,0,-0.0078125,0.0078125,49.2617,78640
0.00787354,0.0285034,0.949036,0.15213,0.30426,0.15213,9.15527e-05,0.000213623,0,0,0,-0.0078125,0.0078125,49.2819,78655
0.00909424,0.0314331,0.945007,-0.45639,-0,0.15213,9.15527e-05,0.000213623,0,0,0,-0.0078125,0.0078125,49.3036,78685
0.0088501,0.029541,0.944458,0.30426,0.30426,0.30426,9.15527e-05,0.000213623,0,0,0,-0.0078125,0.0078125,49.3219,78700
0.00872803,0.0319824,0.946716,-0.15213,-0,0.30426,9.15527e-05,0.000213623,0,0,0,-0.0078125,0.0078125,49.3419,78715
0.00769043,0.0291748,0.946838,-0,-0,-0,9.15527e-05,0.000213623,0,0,0,-0.0078125,0.0078125,49.3612,78745
0.00823975,0.02771,0.94342,-0.15213,-0,0.15213,9.15527e-05,0.000213623,0,0,0,-0.0078125,0.0078125,49.3812,78760
0.00823975,0.0299683,0.945618,-0.15213,-0.15213,0.30426,9.15527e-05,0.000213623,0,0,0,-0.0078125,0.0078125,49.4021,78775
0.00958252,0.0302124,0.948364,0.15213,0.15213,-0,9.15527e-05,0.000213623,0,0,0,-0.0078125,0.0078125,49.4221,78805
0.00756836,0.0286255,0.944275,-0,-0.15213,0.15213,9.15527e-05,0.000213623,0,0,0,-0.0078125,0.0078125,49.4412,78820
0.00756836,0.0314941,0.946594,-0,-0,-0.15213,9.15527e-05,0.000213623,0,0,0,-0.0078125,0.0078125,49.4635,78834
0.00842285,0.03125,0.942688,-0,-0,0.45639,9.15527e-05,0.000213623,0,0,0,-0.0078125,0.0078125,49.4813,78864
0.00909424,0.0282593,0.945618,-0.15213,-0.15213,-0,9.15527e-05,0.000213623,0,0,0,-0.0078125,0.0078125,49.5013,78880
0.00860596,0.0285645,0.944702,-0.15213,0.15213,-0,9.15527e-05,0.000213623,0,0,0,-0.0078125,0.0078125,49.5272,78909
0.00848389,0.0299683,0.944885,-0,-0,0.30426,9.15527e-05,0.000213623,0,0,0,-0.0078125,0.0078125,49.5416,78924
0.00634766,0.032959,0.949097,0.15213,0.15213,0.15213,9.15527e-05,0.000213623,0,0,0,-0.0078125,0.0078125,49.5618,78940
0.00689697,0.0296631,0.944824,-0,0.15213,-0,9.15527e-05,0.000213623,0,0,0,-0.0078125,0.0078125,49.5818,78954
0.00915527,0.0275879,0.945557,-0.15213,-0,0.15213,9.15527e-05,0.000213623,0,0,0,-0.0078125,0.0078125,49.602,78984
0.00939941,0.0292969,0.945862,0.15213,0.15213,0.30426,9.15527e-05,0.000213623,0,0,0,-0.0078125,0.0078125,49.622,79000
0.00927734,0.0316772,0.945007,0.15213,0.15213,0.15213,9.15527e-05,0.000213623,0,0,0,-0.0078125,0.0078125,49.6412,79014
0.00671387,0.0300293,0.94519,0.15213,0.30426,0.15213,9.15527e-05,0.000213623,0,0,0,-0.0078125,0.0078125,49.6609,79044
0.00872803,0.0308838,0.942749,-0,-0.30426,0.15213,9.15527e-05,0.000213623,0,0,0,-0.0078125,0.0078125,49.681,79060
0.00921631,0.0296021,0.945801,-0,-0,0.15213,9.15527e-05,0.000213623,0,0,0,-0.0078125,0.0078125,49.7014,79074
0.00738525,0.0318604,0.948364,-0,-0,0.15213,9.15527e-05,0.000213623,0,0,0,-0.0078125,0.0078125,49.7215,79089
0.0088501,0.031189,0.944885,-0,0.15213,0.30426,9.15527e-05,0.000213623,0,0,0,-0.0078125,0.0078125,49.7416,79120
0.0116577,0.02948,0.945251,-0.30426,-0.15213,-0,9.15527e-05,0.000213623,0,0,0,-0.0078125,0.0078125,49.7615,79134
0.00921631,0.0307007,0.945496,-0.15213,-0.15213,0.30426,9.15527e-05,0.000213623,0,0,0,-0.0078125,0.0078125,49.7829,79164
0.00512695,0.0321045,0.948792,0.30426,0.30426,-0,9.15527e-05,0.000213623,0,0,0,-0.0078125,0.0078125,49.8024,79180
0.0106201,0.0276489,0.948792,0.15213,0.15213,-0,9.15527e-05,0.000213623,0,0,0,-0.0078125,0.0078125,49.8216,79194
0.00683594,0.0288086,0.946777,-0.30426,-0.15213,0.30426,9.15527e-05,0.000213623,0,0,0,-0.0078125,0.0078125,49.8415,79224
0.0090332,0.0266113,0.946533,-0,-0,-0.15213,9.15527e-05,0.000213623,0,0,0,-0.0078125,0.0078125,49.8617,79240
0.00915527,0.0308228,0.947876,-0,-0,0.15213,9.15527e-05,0.000213623,0,0,0,-0.0078125,0.0078125,49.884,79254
0.00756836,0.031311,0.943298,0.15213,0.30426,0.15213,9.15527e-05,0.000213623,0,0,0,-0.0078125,0.0078125,49.9021,79284
0.00939941,0.0283203,0.951538,-0.15213,-0,0.30426,9.15527e-05,0.000213623,0,0,0,-0.0078125,0.0078125,49.9223,79300
0.00732422,0.0292969,0.946045,0.15213,0.15213,-0,9.15527e-05,0.000213623,0,0,0,-0.0078125,0.0078125,49.9426,79314
0.00793457,0.0304565,0.941284,0.30426,0.30426,0.30426,9.15527e-05,0.000213623,0,0,0,-0.0078125,0.0078125,49.9613,79344
0.00543213,0.0283813,0.945801,-0.45639,-0.30426,-0,9.15527e-05,0.000213623,0,0,0,-0.0078125,0.0078125,49.9816,79360
0.00842285,0.0298462,0.945801,-0,-0.30426,-0,9.15527e-05,0.000213623,0,0,0,-0.0078125,0.0078125,50.0016,79374
0.00921631,0.0294189,0.948608,0.15213,0.15213,0.15213,9.15527e-05,0.000213623,0,0,0,-0.0078125,0.0078125,50.0217,79404
0.00958252,0.0303955,0.945862,0.15213,0.15213,0.15213,9.15527e-05,0.000213623,0,0,0,-0.0078125,0.0078125,50.042,79420
0.00830078,0.0304565,0.950806,0.15213,0.15213,0.15213,9.15527e-05,0.000213623,0,0,0,-0.0078125,0.0078125,50.0621,79434
0.00909424,0.0304565,0.945618,-0,-0,-0.15213,9.15527e-05,0.000213623,0,0,0,-0.0078125,0.0078125,50.081,79464
0.00640869,0.0303345,0.94397,-0.15213,-0,-0,9.15527e-05,0.000213623,0,0,0,-0.0078125,0.0078125,50.1026,79480
0.00854492,0.0272217,0.949341,0.15213,-0.30426,0.15213,9.15527e-05,0.000213623,0,0,0,-0.0078125,0.0078125,50.1225,79494
0.00726318,0.0299683,0.950623,-0.15213,-0,0.30426,9.15527e-05,0.000213623,0,0,0,-0.0078125,0.0078125,50.141,79524
0.00787354,0.0286865,0.943665,0.30426,0.15213,0.15213,9.15527e-05,0.000213623,0,0,0,-0.0078125,0.0078125,50.1615,79540
0.0057373,0.0285034,0.948608,-0.30426,-0,-0.15213,9.15527e-05,0.000213623,0,0,0,-0.0078125,0.0078125,50.1813,79554
0.00933838,0.0299683,0.944641,-0,-0,-0,9.15527e-05,0.000213623,0,0,0,-0.0078125,0.0078125,50.2016,79584
0.00891113,0.0307007,0.94342,-0,0.30426,-0,9.15527e-05,0.000213623,0,0,0,-0.0078125,0.0078125,50.2216,79600
0.00866699,0.0307007,0.948669,-0,-0.15213,0.45639,9.15527e-05,0.000213623,0,0,0,-0.0078125,0.0078125,50.2432,79614
0.0102539,0.0309448,0.943604,0.15213,0.45639,-0,9.15527e-05,0.000213623,0,0,0,-0.0078125,0.0078125,50.2619,79644
0.00854492,0.0323486,0.945496,0.15213,0.15213,-0.15213,9.15527e-05,0.000213623,0,0,0,-0.0078125,0.0078125,50.2819,79659
0.0067749,0.0320435,0.951416,-0,-0.15213,0.30426,9.15527e-05,0.000213623,0,0,0,-0.0078125,0.0078125,50.3016,79674
0.0055542,0.0283813,0.945923,-0.15213,-0,-0.30426,9.15527e-05,0.000213623,0,0,0,-0.0078125,0.0078125,50.3239,79704
0.00579834,0.027832,0.945068,-0,-0,0.30426,9.15527e-05,0.000213623,0,0,0,-0.0078125,0.0078125,50.3418,79719
0.0103149,0.0298462,0.944031,-0,-0,0.15213,9.15527e-05,0.000213623,0,0,0,-0.0078125,0.0078125,50.3619,79734
0.00897217,0.0330811,0.949646,-0,0.15213,-0.15213,9.15527e-05,0.000213623,0,0,0,-0.0078125,0.0078125,50.3852,79764
0.00756836,0.0303345,0.946899,-0,-0,0.15213,9.15527e-05,0.000213623,0,0,0,-0.0078125,0.0078125,50.4042,79779
0.012146,0.0305786,0.948853,-0.30426,-0.30426,-0.15213,9.15527e-05,0.000213623,0,0,0,-0.0078125,0.0078125,50.422,79794
0.00848389,0.0285034,0.943359,-0.15213,-0.15213,-0,9.15527e-05,0.000213623,0,0,0,-0.0078125,0.0078125,50.4422,79824
0.00610352,0.0301514,0.945251,-0.15213,-0.15213,0.15213,9.15527e-05,0.000213623,0,0,0,-0.0078125,0.0078125,50.461,79839
0.00750732,0.0301514,0.95105,0.30426,0.15213,0.30426,9.15527e-05,0.000213623,0,0,0,-0.0078125,0.0078125,50.4814,79854
0.00738525,0.0314941,0.940308,-0,-0,-0,9.15527e-05,0.000213623,0,0,0,-0.0078125,0.0078125,50.5013,79884
0.010437,0.0303955,0.944458,0.15213,0.45639,0.15213,9.15527e-05,0.000213623,0,0,0,-0.0078125,0.0078125,50.5214,79899
0.0103149,0.0280151,0.947144,-0.15213,-0.15213,0.30426,9.15527e-05,0.000213623,0,0,0,-0.0078125,0.0078125,50.5414,79914
0.00775146,0.0309448,0.944702,-0.15213,-0,0.15213,9.15527e-05,0.000213623,0,0,0,-0.0078125,0.0078125,50.5634,79944
0.00848389,0.0331421,0.944885,-0.15213,-0,-0,9.15527e-05,0.000213623,0,0,0,-0.0078125,0.0078125,50.5815,79959
0.00866699,0.0298462,0.942627,-0,-0,-0,9.15527e-05,0.000213623,0,0,0,-0.0078125,0.0078125,50.6018,79974
0.00683594,0.0287476,0.952087,-0,-0,-0,9.15527e-05,0.000213623,0,0,0,-0.0078125,0.0078125,50.6218,80004
0.00866699,0.0300293,0.944702,0.15213,0.45639,-0,9.15527e-05,0.000213623,0,0,0,-0.0078125,0.0078125,50.642,80019
0.0102539,0.0274658,0.944275,-0.15213,-0,-0.45639,9.15527e-05,0.000213623,0,0,0,-0.0078125,0.0078125,50.6617,80034
0.00714111,0.0283203,0.94989,0.15213,0.30426,0.30426,9.15527e-05,0.000213623,0,0,0,-0.0078125,0.0078125,50.6818,80064
0.0088501,0.0298462,0.946777,0.30426,0.30426,-0.30426,9.15527e-05,0.000213623,0,0,0,-0.0078125,0.0078125,50.7018,80079
0.00830078,0.0303345,0.949707,-0,-0.15213,0.30426,9.15527e-05,0.000213623,0,0,0,-0.0078125,0.0078125,50.7246,80094
0.00854492,0.0294189,0.944092,0.15213,0.15213,-0.15213,9.15527e-05,0.000213623,0,0,0,-0.0078125,0.0078125,50.7411,80124
0.00671387,0.031189,0.949829,0.15213,0.30426,-0,9.15527e-05,0.000213623,0,0,0,-0.0078125,0.0078125,50.7614,80139
0.00665283,0.0308838,0.945129,0.15213,0.30426,-0,9.15527e-05,0.000213623,0,0,0,-0.0078125,0.0078125,50.7811,80154
0.00732422,0.0286255,0.944214,-0,-0,0.15213,9.15527e-05,0.000213623,0,0,0,-0.0078125,0.0078125,50.8013,80169
0.0045166,0.0297852,0.948181,-0,-0.15213,0.30426,9.15527e-05,0.000213623,0,0,0,-0.0078125,0.0078125,50.8215,80199
0.00775146,0.031189,0.946655,-0,-0.15213,-0,9.15527e-05,0.000213623,0,0,0,-0.0078125,0.0078125,50.8416,80214
0.012146,0.0308838,0.941467,-0.15213,0.15213,0.30426,9.15527e-05,0.000213623,0,0,0,-0.0078125,0.0078125,50.8616,80244
0.0078125,0.0325317,0.944214,-0,-0,-0,9.15527e-05,0.000213623,0,0,0,-0.0078125,0.0078125,50.8831,80259
0.00799561,0.0301514,0.945679,-0.30426,-0.30426,0.30426,9.15527e-05,0.000213623,0,0,0,-0.0078125,0.0078125,50.9017,80274
0.00604248,0.0291138,0.944885,0.45639,0.30426,-0,9.15527e-05,0.000213623,0,0,0,-0.0078125,0.0078125,50.9215,80304
0.00445557,0.0289307,0.952881,0.15213,-0,0.15213,9.15527e-05,0.000213623,0,0,0,-0.0078125,0.0078125,50.9417,80319
0.00982666,0.0294189,0.947327,0.15213,0.30426,0.15213,9.15527e-05,0.000213623,0,0,0,-0.0078125,0.0078125,50.9611,80334
0.00695801,0.0313721,0.943665,0.15213,0.15213,0.30426,9.15527e-05,0.000213623,0,0,0,-0.0078125,0.0078125,50.9819,80364
0.00372314,0.031189,0.946167,-0,0.15213,-0,9.15527e-05,0.000213623,0,0,0,-0.0078125,0.0078125,51.0014,80379
0.00714111,0.0307617,0.943848,-0,0.15213,0.30426,9.15527e-05,0.000213623,0,0,0,-0.0078125,0.0078125,51.0214,80394
0.0101929,0.0297241,0.945068,0.15213,0.15213,0.15213,9.15527e-05,0.000213623,0,0,0,-0.0078125,0.0078125,51.0414,80424
0.00921631,0.0300903,0.953796,-0.15213,0.15213,-0,9.15527e-05,0.000213623,0,0,0,-0.0078125,0.0078125,51.0616,80439
0.00805664,0.0259399,0.946472,-0,-0.30426,0.15213,9.15527e-05,0.000213623,0,0,0,-0.0078125,0.0078125,51.0816,80454
0.00738525,0.0274658,0.944824,0.15213,0.15213,-0,9.15527e-05,0.000213623,0,0,0,-0.0078125,0.0078125,51.1016,80484
0.00805664,0.0283203,0.945068,-0,-0,-0,9.15527e-05,0.000213623,0,0,0,-0.0078125,0.0078125,51.1218,80499
0.00842285,0.0279541,0.943542,-0,-0.15213,-0,9.15527e-05,0.000213623,0,0,0,-0.0078125,0.0078125,51.1431,80514
0.00866699,0.0299683,0.945923,-0,-0,0.30426,9.15527e-05,0.000213623,0,0,0,-0.0078125,0.0078125,51.1618,80544
0.0101929,0.0308228,0.947937,-0,0.15213,-0,9.15527e-05,0.000213623,0,0,0,-0.0078125,0.0078125,51.1811,80559
0.0078125,0.0294189,0.951538,-0.15213,-0,-0,9.15527e-05,0.000213623,0,0,0,-0.0078125,0.0078125,51.2011,80574
0.00762939,0.0289307,0.945679,0.15213,-0,-0,9.15527e-05,0.000213623,0,0,0,-0.0078125,0.0078125,51.2215,80604
0.00927734,0.0287476,0.951172,-0.15213,-0,0.15213,9.15527e-05,0.000213623,0,0,0,-0.0078125,0.0078125,51.2413,80619
0.00866699,0.0297852,0.947754,-0,0.15213,-0,9.15527e-05,0.000213623,0,0,0,-0.0078125,0.0078125,51.2613,80634
0.00518799,0.0300903,0.940918,0.15213,-0,0.30426,9.15527e-05,0.000213623,0,0,0,-0.0078125,0.0078125,51.2814,80664
0.00701904,0.0296021,0.948853,-0,-0.45639,-0,9.15527e-05,0.000213623,0,0,0,-0.0078125,0.0078125,51.3032,80679
0.00585938,0.0300903,0.952759,-0,-0,-0,9.15527e-05,0.000213623,0,0,0,-0.0078125,0.0078125,51.3216,80694
0.00909424,0.0317383,0.93988,0.15213,0.15213,0.15213,9.15527e-05,0.000213623,0,0,0,-0.0078125,0.0078125,51.3417,80724
0.00775146,0.0302124,0.941467,-0,0.15213,-0,9.15527e-05,0.000213623,0,0,0,-0.0078125,0.0078125,51.3614,80739
0.0101929,0.0281982,0.944275,0.15213,0.15213,0.15213,9.15527e-05,0.000213623,0,0,0,-0.0078125,0.0078125,51.3827,80754
0.0101318,0.0309448,0.947571,-0,-0,0.15213,9.15527e-05,0.000213623,0,0,0,-0.0078125,0.0078125,51.4017,80784
0.00531006,0.0315552,0.944153,0.15213,0.15213,-0,9.15527e-05,0.000213623,0,0,0,-0.0078125,0.0078125,51.4219,80799
0.00756836,0.0292358,0.944031,-0,-0.15213,0.45639,9.15527e-05,0.000213623,0,0,0,-0.0078125,0.0078125,51.4416,80814
0.00842285,0.03125,0.93988,0.30426,0.30426,0.30426,9.15527e-05,0.000213623,0,0,0,-0.0078125,0.0078125,51.4619,80844
0.00915527,0.0287476,0.944397,0.15213,0.15213,-0,9.15527e-05,0.000213623,0,0,0,-0.0078125,0.0078125,51.482,80859
0.0101929,0.0303955,0.944519,0.15213,0.30426,0.15213,9.15527e-05,0.000213623,0,0,0,-0.0078125,0.0078125,51.5018,80874
0.0101929,0.0308838,0.941162,-0,-0,0.15213,9.15527e-05,0.000213623,0,0,0,-0.0078125,0.0078125,51.5218,80904
0.0119019,0.0324097,0.948669,-0,-0,0.15213,9.15527e-05,0.000213623,0,0,0,-0.0078125,0.0078125,51.5409,80919
0.00775146,0.0292358,0.944397,0.45639,0.608521,-0,9.15527e-05,0.000213623,0,0,0,-0.0078125,0.0078125,51.5612,80934
0.00683594,0.0313721,0.940796,0.30426,0.30426,-0,9.15527e-05,0.000213623,0,0,0,-0.0078125,0.0078125,51.5813,80964
0.00720215,0.0293579,0.951172,0.15213,0.15213,0.30426,9.15527e-05,0.000213623,0,0,0,-0.0078125,0.0078125,51.6013,80979
0.00775146,0.0302124,0.949463,-0,-0.15213,-0.15213,9.15527e-05,0.000213623,0,0,0,-0.0078125,0.0078125,51.6213,80994
0.00823975,0.0307617,0.944763,0.15213,0.15213,-0.15213,9.15527e-05,0.000213623,0,0,0,-0.0078125,0.0078125,51.6416,81024
0.00683594,0.02948,0.943481,-0,-0,0.30426,9.15527e-05,0.000213623,0,0,0,-0.0078125,0.0078125,51.6645,81039
0.00726318,0.0310059,0.940979,-0,-0,0.30426,9.15527e-05,0.000213623,0,0,0,-0.0078125,0.0078125,51.6815,81053
0.00817871,0.029541,0.947632,-0,-0,-0,9.15527e-05,0.000213623,0,0,0,-0.0078125,0.0078125,51.7018,81083
0.0100098,0.027832,0.952881,0.15213,0.30426,0.15213,9.15527e-05,0.000213623,0,0,0,-0.0078125,0.0078125,51.7218,81099
0.00708008,0.0321655,0.949158,-0.30426,-0,-0,9.15527e-05,0.000213623,0,0,0,-0.0078125,0.0078125,51.742,81113
0.00756836,0.0321655,0.944946,0.15213,0.15213,0.30426,9.15527e-05,0.000213623,0,0,0,-0.0078125,0.0078125,51.7621,81143
0.00891113,0.0299072,0.946045,-0,0.15213,-0,9.15527e-05,0.000213623,0,0,0,-0.0078125,0.0078125,51.7811,81159
0.0067749,0.0302124,0.948303,-0,-0.15213,0.30426,9.15527e-05,0.000213623,0,0,0,-0.0078125,0.0078125,51.8011,81173
0.00750732,0.0296021,0.947266,-0,-0.30426,0.30426,9.15527e-05,0.000213623,0,0,0,-0.0078125,0.0078125,51.8233,81203
0.00604248,0.0322876,0.946472,0.15213,0.15213,0.15213,9.15527e-05,0.000213623,0,0,0,-0.0078125,0.0078125,51.8414,81219
0.00933838,0.0326538,0.940002,0.15213,0.30426,0.30426,9.15527e-05,0.000213623,0,0,0,-0.0078125,0.0078125,51.8636,81233
0.00823975,0.0320435,0.945984,-0.30426,-0.15213,0.30426,9.15527e-05,0.000213623,0,0,0,-0.0078125,0.0078125,51.8817,81263
0.00939941,0.0320435,0.943359,-0,0.15213,-0,9.15527e-05,0.000213623,0,0,0,-0.0078125,0.0078125,51.9017,81279
0.00756836,0.032959,0.951904,-0,-0.15213,0.30426,9.15527e-05,0.000213623,0,0,0,-0.0078125,0.0078125,51.9215,81293
0.00787354,0.0327148,0.94989,-0.15213,-0,0.45639,9.15527e-05,0.000213623,0,0,0,-0.0078125,0.0078125,51.9418,81323
0.00592041,0.0297241,0.943665,-0.15213,-0.15213,-0,9.15527e-05,0.000213623,0,0,0,-0.0078125,0.0078125,51.9642,81339
0.0119019,0.0305786,0.949036,-0.30426,-0,0.15213,9.15527e-05,0.000213623,0,0,0,-0.0078125,0.0078125,51.982,81353
0.00836182,0.0281982,0.948059,0.30426,0.15213,0.15213,9.15527e-05,0.000213623,0,0,0,-0.0078125,0.0078125,52.002,81383
0.00653076,0.0293579,0.942383,-0,-0.45639,0.30426,9.15527e-05,0.000213623,0,0,0,-0.0078125,0.0078125,52.0271,81399
0.00671387,0.0303955,0.945984,-0,-0,-0,9.15527e-05,0.000213623,0,0,0,-0.0078125,0.0078125,52.043,81413
0.0088501,0.0299072,0.949524,-0,0.15213,-0,9.15527e-05,0.000213623,0,0,0,-0.0078125,0.0078125,52.0613,81443
0.00860596,0.0296021,0.946228,-0,0.15213,-0.45639,9.15527e-05,0.000213623,0,0,0,-0.0078125,0.0078125,52.0812,81459
0.00799561,0.0281372,0.949951,0.30426,0.45639,-0,9.15527e-05,0.000213623,0,0,0,-0.0078125,0.0078125,52.1012,81473
0.00939941,0.0316772,0.94696,0.45639,0.15213,0.15213,9.15527e-05,0.000213623,0,0,0,-0.0078125,0.0078125,52.1212,81503
0.00878906,0.0303345,0.947266,-0.15213,-0.15213,0.15213,9.15527e-05,0.000213623,0,0,0,-0.0078125,0.0078125,52.1413,81519
0.00646973,0.031311,0.945435,-0,-0,0.15213,9.15527e-05,0.000213623,0,0,0,-0.0078125,0.0078125,52.1618,81533
0.00933838,0.0306396,0.941467,-0.15213,-0,0.15213,9.15527e-05,0.000213623,0,0,0,-0.0078125,0.0078125,52.1818,81563
0.00775146,0.0311279,0.944397,-0.15213,-0.30426,0.30426,9.15527e-05,0.000213623,0,0,0,-0.0078125,0.0078125,52.2013,81579
0.0090332,0.0324097,0.944946,-0,-0.15213,-0,9.15527e-05,0.000213623,0,0,0,-0.0078125,0.0078125,52.2216,81593
0.010498,0.0317993,0.94812,-0,-0,-0,9.15527e-05,0.000213623,0,0,0,-0.0078125,0.0078125,52.2416,81623
0.0110474,0.0297852,0.947632,0.30426,0.30426,0.15213,9.15527e-05,0.000213623,0,0,0,-0.0078125,0.0078125,52.2615,81639
0.00665283,0.0285645,0.947693,-0,-0.15213,-0,9.15527e-05,0.000213623,0,0,0,-0.0078125,0.0078125,52.2824,81653
0.00769043,0.0297241,0.947815,-0,-0.15213,-0,9.15527e-05,0.000213623,0,0,0,-0.0078125,0.0078125,52.3019,81683
0.0078125,0.0283813,0.945923,0.15213,0.15213,-0,9.15527e-05,0.000213623,0,0,0,-0.0078125,0.0078125,52.3218,81699
0.00872803,0.0319214,0.945496,0.15213,0.15213,0.15213,9.15527e-05,0.000213623,0,0,0,-0.0078125,0.0078125,52.341,81713
0.00616455,0.0296631,0.944885,-0,-0.15213,0.15213,9.15527e-05,0.000213623,0,0,0,-0.0078125,0.0078125,52.3624,81743
0.00817871,0.0316162,0.946594,0.15213,0.15213,-0.15213,9.15527e-05,0.000213623,0,0,0,-0.0078125,0.0078125,52.3815,81759
0.00640869,0.0294189,0.944275,0.15213,0.30426,0.15213,9.15527e-05,0.000213623,0,0,0,-0.0078125,0.0078125,52.4029,81773
0.00512695,0.0296021,0.94519,-0.15213,0.15213,0.30426,9.15527e-05,0.000213623,0,0,0,-0.0078125,0.0078125,52.4214,81803
0.00939941,0.0321045,0.946167,-0,-0,0.15213,9.15527e-05,0.000213623,0,0,0,-0.0078125,0.0078125,52.4423,81819
0.00799561,0.0297852,0.946289,0.15213,0.15213,-0,9.15527e-05,0.000213623,0,0,0,-0.0078125,0.0078125,52.4613,81833
0.00744629,0.0307617,0.946838,0.15213,0.30426,0.30426,9.15527e-05,0.000213623,0,0,0,-0.0078125,0.0078125,52.4815,81863
0.00610352,0.0287476,0.945923,-0,-0,0.15213,9.15527e-05,0.000213623,0,0,0,-0.0078125,0.0078125,52.5015,81878
0.0102539,0.029541,0.948303,0.15213,0.15213,0.15213,9.15527e-05,0.000213623,0,0,0,-0.0078125,0.0078125,52.5218,81893
0.00958252,0.0296021,0.944031,0.15213,0.15213,0.15213,9.15527e-05,0.000213623,0,0,0,-0.0078125,0.0078125,52.5418,81923
0.00921631,0.0317383,0.946594,0.15213,0.30426,0.15213,9.15527e-05,0.000213623,0,0,0,-0.0078125,0.0078125,52.5619,81938
0.00701904,0.0291748,0.946167,0.15213,0.30426,-0,9.15527e-05,0.000213623,0,0,0,-0.0078125,0.0078125,52.5819,81953
0.00994873,0.0309448,0.940369,0.15213,0.30426,0.30426,9.15527e-05,0.000213623,0,0,0,-0.0078125,0.0078125,52.6041,81983
0.00891113,0.0269775,0.948608,-0.15213,-0.15213,0.30426,9.15527e-05,0.000213623,0,0,0,-0.0078125,0.0078125,52.6218,81998
0.00830078,0.0285034,0.950378,0.15213,0.30426,0.15213,9.15527e-05,0.000213623,0,0,0,-0.0078125,0.0078125,52.642,82013
0.00946045,0.0313721,0.94696,-0.15213,-0,0.15213,9.15527e-05,0.000213623,0,0,0,-0.0078125,0.0078125,52.6611,82043
0.00634766,0.0300293,0.943542,-0,-0,0.15213,9.15527e-05,0.000213623,0,0,0,-0.0078125,0.0078125,52.6828,82058
0.0067749,0.0290527,0.945435,-0,-0,-0.15213,9.15527e-05,0.000213623,0,0,0,-0.0078125,0.0078125,52.7014,82073
0.0078125,0.0303955,0.94635,-0,-0.15213,-0,9.15527e-05,0.000213623,0,0,0,-0.0078125,0.0078125,52.7216,82103
0.00994873,0.0293579,0.94043,0.15213,0.30426,0.45639,9.15527e-05,0.000213623,0,0,0,-0.0078125,0.0078125,52.7415,82118
0.00823975,0.0331421,0.944397,0.15213,0.15213,0.45639,9.15527e-05,0.000213623,0,0,0,-0.0078125,0.0078125,52.7616,82133
0.00726318,0.0297852,0.945923,-0,0.15213,0.15213,9.15527e-05,0.000213623,0,0,0,-0.0078125,0.0078125,52.7815,82163
0.00897217,0.0317383,0.949829,0.15213,0.45639,0.30426,9.15527e-05,0.000213623,0,0,0,-0.0078125,0.0078125,52.8022,82178
0.00738525,0.0294189,0.940613,0.15213,0.30426,-0,9.15527e-05,0.000213623,0,0,0,-0.0078125,0.0078125,52.8215,82193
0.00793457,0.0296631,0.942993,-0,-0.45639,0.30426,9.15527e-05,0.000213623,0,0,0,-0.0078125,0.0078125,52.8418,82223
0.00762939,0.0275269,0.944824,-0,-0,0.15213,9.15527e-05,0.000213623,0,0,0,-0.0078125,0.0078125,52.8619,82238
0.00463867,0.0290527,0.950928,0.15213,-0,-0,9.15527e-05,0.000213623,0,0,0,-0.0078125,0.0078125,52.8844,82253
0.00708008,0.0334473,0.948425,-0,-0.15213,0.15213,9.15527e-05,0.000213623,0,0,0,-0.0078125,0.0078125,52.9018,82283
0.00799561,0.0303955,0.94751,-0,0.15213,0.15213,9.15527e-05,0.000213623,0,0,0,-0.0078125,0.0078125,52.921,82298
0.00897217,0.0285034,0.944946,0.15213,0.15213,-0,9.15527e-05,0.000213623,0,0,0,-0.0078125,0.0078125,52.9415,82313
0.00476074,0.0340576,0.946594,0.15213,0.15213,-0,9.15527e-05,0.000213623,0,0,0,-0.0078125,0.0078125,52.9612,82343
0.00830078,0.0339966,0.944824,-0,-0.15213,0.15213,9.15527e-05,0.000213623,0,0,0,-0.0078125,0.0078125,52.9817,82358
0.0078125,0.0275879,0.946533,0.15213,0.30426,-0,9.15527e-05,0.000213623,0,0,0,-0.0078125,0.0078125,53.002,82373
0.00823975,0.0256958,0.943604,0.15213,0.30426,-0,9.15527e-05,0.000213623,0,0,0,-0.0078125,0.0078125,53.0209,82403
0.00830078,0.0319824,0.951355,0.15213,0.15213,-0.15213,9.15527e-05,0.000213623,0,0,0,-0.0078125,0.0078125,53.0411,82418
0.0057373,0.0298462,0.944946,0.15213,0.30426,-0,9.15527e-05,0.000213623,0,0,0,-0.0078125,0.0078125,53.0611,82433
0.00714111,0.0297241,0.945923,0.45639,0.15213,-0,9.15527e-05,0.000213623,0,0,0,-0.0078125,0.0078125,53.0816,82463
0.00799561,0.0317383,0.947083,-0,-0.15213,0.15213,9.15527e-05,0.000213623,0,0,0,-0.0078125,0.0078125,53.1012,82478
0.00817871,0.0327148,0.9505,-0,0.30426,0.15213,9.15527e-05,0.000213623,0,0,0,-0.0078125,0.0078125,53.1211,82493
0.00946045,0.0270386,0.946899,0.15213,0.15213,0.15213,9.15527e-05,0.000213623,0,0,0,-0.0078125,0.0078125,53.1414,82523
0.00817871,0.0317383,0.94812,0.15213,0.45639,0.30426,9.15527e-05,0.000213623,0,0,0,-0.0078125,0.0078125,53.1616,82538
0.0111694,0.0316162,0.945007,-0,-0.30426,-0,9.15527e-05,0.000213623,0,0,0,-0.0078125,0.0078125,53.1815,82553
0.0090332,0.0324707,0.947021,0.15213,0.608521,-0,9.15527e-05,0.000213623,0,0,0,-0.0078125,0.0078125,53.2015,82583
0.00750732,0.0286865,0.946594,-0.30426,-0.15213,0.15213,9.15527e-05,0.000213623,0,0,0,-0.0078125,0.0078125,53.2215,82598
0.00695801,0.0287476,0.951355,-0,-0.15213,0.30426,9.15527e-05,0.000213623,0,0,0,-0.0078125,0.0078125,53.2416,82613
0.00939941,0.0303955,0.94574,-0,-0.15213,0.30426,9.15527e-05,0.000213623,0,0,0,-0.0078125,0.0078125,53.2617,82643
0.00665283,0.031311,0.945679,-0.30426,-0.15213,-0.15213,9.15527e-05,0.000213623,0,0,0,-0.0078125,0.0078125,53.2818,82658
0.00958252,0.0316162,0.949341,0.15213,0.15213,-0,9.15527e-05,0.000213623,0,0,0,-0.0078125,0.0078125,53.3019,82673
0.00628662,0.0280762,0.950439,-0,-0.30426,0.15213,9.15527e-05,0.000213623,0,0,0,-0.0078125,0.0078125,53.3216,82703
0.00878906,0.0292358,0.950195,0.15213,0.15213,0.15213,9.15527e-05,0.000213623,0,0,0,-0.0078125,0.0078125,53.3418,82718
0.00915527,0.0305176,0.94812,-0,-0,0.30426,9.15527e-05,0.000213623,0,0,0,-0.0078125,0.0078125,53.3618,82733
0.00518799,0.0300293,0.948486,0.15213,0.30426,0.45639,9.15527e-05,0.000213623,0,0,0,-0.0078125,0.0078125,53.3818,82763
0.00817871,0.0300293,0.948547,0.15213,0.15213,0.15213,9.15527e-05,0.000213623,0,0,0,-0.0078125,0.0078125,53.4009,82778
0.00854492,0.027771,0.946472,0.15213,-0,-0,9.15527e-05,0.000213623,0,0,0,-0.0234375,0.0078125,53.421,82793
0.00830078,0.0280762,0.946838,0.15213,0.15213,-0,9.15527e-05,0.000213623,0,0,0,-0.0625,0.0078125,53.4409,82823
0.00628662,0.0322266,0.950989,0.15213,0.30426,0.15213,9.15527e-05,0.000213623,0,0,0,-0.078125,0.0078125,53.4611,82838
0.00866699,0.0290527,0.938843,0.15213,0.30426,0.15213,9.15527e-05,0.000213623,0,0,0,-0.078125,0.0078125,53.4815,82853
0.0045166,0.0288086,0.947876,-0,-0,0.15213,9.15527e-05,0.000213623,0,0,0,-0.078125,0.0078125,53.5017,82883
0.00933838,0.0286865,0.946411,-0,0.15213,-0.15213,9.15527e-05,0.000213623,0,0,0,-0.0078125,0.0078125,53.5213,82898
0.00592041,0.0308838,0.943481,0.15213,0.15213,-0,9.15527e-05,0.000213623,0,0,0,-0.0078125,0.0078125,53.5507,82928
0.00445557,0.0292969,0.942627,-0,-0.15213,0.15213,9.15527e-05,0.000213623,0,0,0,-0.0078125,0.0078125,53.5615,82943
0.00817871,0.0314331,0.948059,-0.30426,-0.15213,0.30426,9.15527e-05,0.000213623,0,0,0,-0.0078125,0.0078125,53.5878,82958
0.00671387,0.0303955,0.942383,0.15213,0.45639,0.30426,9.15527e-05,0.000213623,0,0,0,-0.0078125,0.0078125,53.6016,82973
0.0078125,0.0311279,0.947266,0.30426,0.15213,0.30426,9.15527e-05,0.000213623,0,0,0,-0.0078125,0.0078125,53.6218,83003
0.00891113,0.029541,0.945557,-0.15213,-0.15213,0.15213,9.15527e-05,0.000213623,0,0,0,-0.0078125,0.0078125,53.6408,83018
0.00946045,0.0288086,0.949524,0.15213,0.15213,0.15213,9.15527e-05,0.000213623,0,0,0,-0.0078125,0.0078125,53.661,83033
0.00793457,0.029541,0.944763,0.15213,0.15213,-0,9.15527e-05,0.000213623,0,0,0,-0.0078125,0.0078125,53.6814,83063
0.00866699,0.0297852,0.945923,-0,-0.15213,0.15213,9.15527e-05,0.000213623,0,0,0,-0.0078125,0.0078125,53.708,83078
0.00982666,0.0315552,0.947571,0.15213,0.15213,-0,9.15527e-05,0.000213623,0,0,0,-0.0078125,0.0078125,53.7214,83093
0.00897217,0.02948,0.947388,0.15213,0.15213,0.15213,9.15527e-05,0.000213623,0,0,0,-0.078125,0.0078125,53.7419,83123
0.00836182,0.0299072,0.947754,0.15213,0.15213,-0.15213,9.15527e-05,0.000213623,0,0,0,-0.078125,0.0078125,53.7617,83138
0.00872803,0.0303955,0.942993,-0,0.15213,0.30426,9.15527e-05,0.000213623,0,0,0,-0.078125,0.0078125,53.7816,83153
0.00787354,0.0307007,0.945496,0.15213,0.15213,0.15213,9.15527e-05,0.000213623,0,0,0,-0.078125,0.0078125,53.8023,83183
0.00561523,0.0313721,0.949158,-0,-0.15213,0.15213,9.15527e-05,0.000213623,0,0,0,-0.0859375,0.0078125,53.8218,83198
0.00714111,0.0286865,0.944885,-0.15213,-0,0.15213,9.15527e-05,0.000213623,0,0,0,-0.101562,0.0078125,53.8421,83213
0.00775146,0.0308228,0.94989,-0.15213,-0.15213,0.15213,9.15527e-05,0.000213623,0,0,0,-0.140625,0.0078125,53.8611,83243
0.00823975,0.0308838,0.947571,-0,-0,-0,9.15527e-05,0.000213623,0,0,0,-0.164062,0.0078125,53.8814,83258
0.0113525,0.0316772,0.942566,0.15213,0.15213,0.15213,9.15527e-05,0.000213623,0,0,0,-0.164062,0.0078125,53.9009,83272
-0.00140381,0.0266113,0.94989,0.15213,0.15213,-0,9.15527e-05,0.000213623,0,0,0,-0.171875,0.0078125,53.9209,83302
0.00665283,0.0353394,0.945679,-0,-0,0.30426,9.15527e-05,0.000213623,0,0,0,-0.179688,0.0078125,53.9412,83318
-0.00012207,0.0267334,0.944519,0.15213,0.15213,0.30426,9.15527e-05,0.000213623,0,0,0,-0.179688,0.0078125,53.9613,83333
-0.0144043,0.00335693,0.951111,0.30426,0.30426,1.06491,9.15527e-05,0.00012207,0,0,0,-0.179688,0.0078125,53.9814,83362
0.00183105,0.0230103,0.922913,0.608521,0.30426,1.5213,6.10352e-05,4.57764e-05,0,0,0,-0.1875,0.0078125,54.0019,83378
0.0336304,-0.00439453,0.922668,1.21704,0.608521,0.608521,4.57764e-05,-6.10352e-05,0,0,0,-0.1875,0.0078125,54.0215,83392
0.0327759,0.0471802,0.936829,-0,-0.30426,-0.608521,1.52588e-05,-0.000259399,0,0,0,-0.203125,0.0078125,54.0416,83422
-0.0177612,0.0493164,0.978943,-1.36917,-0.30426,0.30426,1.52588e-05,-0.000259399,0,0,0,-0.210938,0.0078125,54.062,83438
0.0165405,-0.0100708,0.924927,0.30426,0.30426,2.73834,0,-0.000274658,0,0,0,-0.234375,0.0078125,54.0817,83452
-0.00500488,0.0479126,0.942383,-0.45639,-0.760651,-0.760651,0,-0.000320435,0,0,0,-0.234375,0.0078125,54.1031,83482
0.0100708,-0.0103149,0.942383,1.21704,0.760651,-1.21704,0,-0.000366211,0,0,0,-0.234375,0.0078125,54.1214,83498
0.0369263,-0.0149536,0.938232,0.30426,-0,-0.15213,1.52588e-05,-0.000442505,0,0,0,-0.234375,0.0078125,54.141,83512
-0.0215454,0.0285645,0.925659,0.760651,0.15213,0.45639,6.10352e-05,-0.000747681,0,0,0,-0.234375,0.0078125,54.1611,83542
0.0139771,0.00311279,0.989624,-1.06491,-0.608521,-0.45639,6.10352e-05,-0.000915527,0,0,0,-0.242188,0.0078125,54.1811,83558
0.0253296,0.0245972,0.90387,0.608521,0.912781,-0.45639,7.62939e-05,-0.00111389,0,0,0,-0.25,0.0078125,54.2015,83572
0.0149536,-0.0385742,0.911255,0.30426,0.15213,0.760651,7.62939e-05,-0.00149536,0,0,0,-0.25,0.0078125,54.2223,83602
-0.0274658,0.012207,0.960083,0.45639,0.30426,0.30426,6.10352e-05,-0.00175476,0,0,0,-0.25,0.0078125,54.2414,83618
0.0263062,-0.0407715,0.962769,-1.67343,-0.15213,0.608521,3.05176e-05,-0.0020752,0,0,0,-0.25,0.0078125,54.2613,83632
0.0168457,0.0183716,0.957886,-0,-0.45639,-0.608521,1.52588e-05,-0.00280762,0,0,0,-0.257812,0.0078125,54.2821,83662
0.0169678,0.0557251,0.941223,-0.15213,0.15213,-1.36917,1.52588e-05,-0.00317383,0,0,0,-0.296875,0.0078125,54.302,83678
-0.0112305,0.067627,0.917236,1.21704,0.760651,-0.608521,1.52588e-05,-0.003479,0,0,0,-0.351562,0.0078125,54.3218,83692
-0.0282593,-0.0360107,0.918457,0.608521,0.608521,2.58621,0,-0.00410461,0,0,0,-0.375,0.0078125,54.3422,83722
-0.0182495,-0.0593872,0.975647,-1.5213,-0.30426,1.97769,-4.57764e-05,-0.00453186,0,0,0,-0.382812,0.0078125,54.3618,83738
-0.034668,-0.0730591,0.94043,-0,-0.15213,1.97769,-0.000137329,-0.00509644,0,0,0,-0.382812,0.0078125,54.3819,83752
-0.0328369,-0.0236816,0.983337,-1.67343,-0.912781,4.71603,-0.000534058,-0.00668335,0,0,0,-0.382812,0.0078125,54.4031,83782
0.0247192,-0.0669556,0.98645,-1.67343,-0.15213,5.17242,-0.000778198,-0.00764465,0,0,0,-0.382812,0.0078125,54.4213,83798
0.103516,-0.0223999,0.987671,-2.58621,1.06491,4.5639,-0.000946045,-0.00868225,0,0,0,-0.390625,0.0078125,54.4423,83812
-0.00701904,-0.0253906,0.926575,2.89047,0.760651,1.36917,-0.000961304,-0.0110321,0,0,0,-0.40625,0.0078125,54.4611,83842
-0.0119629,-0.088501,0.976501,-0.760651,-0.760651,2.58621,-0.000961304,-0.0123596,0,0,0,-0.40625,0.0078125,54.4832,83858
0.0143433,-0.0699463,0.955139,-0.45639,0.912781,3.80325,-0.000961304,-0.0138092,0,0,0,-0.429688,0.0078125,54.5015,83872
-0.0234985,-0.038208,0.934021,-2.12982,-0.760651,-0.760651,-0.00100708,-0.0170441,0,0,0,-0.4375,0.0078125,54.5215,83902
-0.0315552,-0.106323,0.918213,3.0426,0.608521,1.82556,-0.00108337,-0.0188293,0,0,0,-0.4375,0.0078125,54.5417,83918
0.00708008,-0.0462036,0.978088,-2.28195,-1.82556,5.02029,-0.00117493,-0.0207367,0,0,0,-0.4375,0.0078125,54.5614,83932
-0.0309448,-0.0374146,0.972961,-1.21704,0.15213,3.0426,-0.00119019,-0.0248718,0,0,0,-0.4375,0.0078125,54.5817,83962
0.0604248,-0.0426025,0.988342,-1.97769,-0.760651,3.95538,-0.00119019,-0.0270691,0,0,0,-0.445312,0.0078125,54.6017,83978
0.0130005,-0.113037,0.920837,1.5213,0.30426,1.82556,-0.00115967,-0.0293884,0,0,0,-0.445312,0.0078125,54.6221,83992
0.107178,-0.0303345,0.939026,-0.15213,0.608521,3.34686,-0.000930786,-0.0343475,0,0,0,-0.445312,0.0078125,54.643,84022
-0.0390015,-0.098938,0.927063,3.95538,6.08521,2.73834,-0.000732422,-0.0369568,0,0,0,-0.445312,0.0078125,54.661,84038
0.0352783,0.000305176,0.881775,-4.5639,-0.15213,3.49899,-0.000549316,-0.0396576,0,0,0,-0.445312,0.0078125,54.6813,84052
-0.0252686,-0.0532227,0.833191,2.73834,2.89047,1.36917,-0.000167847,-0.0453186,0,0,0,-0.453125,0.0078125,54.7011,84082
0.0158081,0.00115967,0.9776,-1.67343,-0.912781,1.82556,0,-0.0482483,0,0,0,-0.460938,0.0078125,54.7212,84098
-0.0551758,0.00921631,0.943054,1.36917,4.25964,3.0426,0.000106812,-0.0482483,0,0,0,-0.460938,0.0078125,54.7414,84112
-0.0450439,-0.0592651,0.941345,2.58621,0.608521,1.21704,7.62939e-05,-0.0482941,0,0,0,-0.460938,0.0078125,54.7621,84142
-0.0302734,0.00140381,1.01196,-2.12982,-2.73834,2.43408,-3.05176e-05,-0.0484009,0,0,0,-0.460938,0.0078125,54.7819,84157
0.0633545,-0.00604248,0.993164,1.82556,4.86816,3.65112,-0.000152588,-0.0485077,0,0,0,-0.460938,0.0078125,54.8019,84172
-0.0566406,-0.0137329,0.919617,-1.21704,2.12982,1.06491,-0.000366211,-0.0488586,0,0,0,-0.460938,0.0078125,54.8217,84202
-0.0454102,-0.0193481,1.02954,-1.82556,1.67343,2.58621,-0.000564575,-0.0490723,0,0,0,-0.460938,0.0078125,54.8419,84217
0.00360107,0.0430298,1.02258,-2.43408,3.80325,2.58621,-0.000823975,-0.0492859,0,0,0,-0.460938,0.0078125,54.8619,84232
-0.0719604,-0.0645752,0.896729,2.73834,3.95538,1.21704,-0.00134277,-0.0498047,0,0,0,-0.460938,0.0078125,54.882,84262
0.0231323,0.0584106,0.997803,-1.21704,3.19473,1.82556,-0.00166321,-0.0501251,0,0,0,-0.460938,0.0078125,54.901,84277
-0.0189819,0.074707,0.948486,-0,1.67343,1.97769,-0.00201416,-0.050354,0,0,0,-0.460938,0.0078125,54.9224,84292
-0.000244141,-0.0186157,0.868958,-0.608521,-1.36917,2.73834,-0.00285339,-0.050827,0,0,0,-0.460938,0.0078125,54.9414,84322
0.0352173,0.0653687,0.994019,-2.58621,1.5213,1.97769,-0.00328064,-0.0510559,0,0,0,-0.460938,0.0078125,54.9617,84337
0.0133667,-0.0328979,0.900574,-0.30426,2.28195,3.0426,-0.00370789,-0.0512848,0,0,0,-0.460938,0.0078125,54.9822,84352
-0.0245972,0.0164795,0.917664,0.45639,3.80325,1.67343,-0.00465393,-0.0515442,0,0,0,-0.460938,0.0078125,55.0022,84382
0.00408936,0.0205688,1.02203,-3.19473,4.25964,3.0426,-0.00517273,-0.0515442,0,0,0,-0.460938,0.0078125,55.0281,84397
-0.0227661,-0.0110474,0.852844,2.12982,1.82556,3.95538,-0.0057373,-0.0515442,0,0,0,-0.460938,0.0078125,55.0418,84412
-0.0400391,0.00506592,0.852966,0.45639,2.89047,2.73834,-0.00671387,-0.0515442,0,0,0,-0.460938,0.0078125,55.0653,84442
-0.0311279,0.0115967,1.0127,2.12982,0.15213,3.65112,-0.00724792,-0.0515442,0,0,0,-0.460938,0.0078125,55.082,84457
0.14447,0.0727539,0.939575,1.5213,2.43408,4.10751,-0.00772095,-0.0514832,0,0,0,-0.460938,0.0078125,55.101,84472
0.00592041,-0.00604248,0.790527,6.38947,1.21704,4.41177,-0.00839233,-0.0513306,0,0,0,-0.460938,0.0078125,55.121,84502
0.0838623,0.0290527,1.14679,1.5213,-2.43408,2.73834,-0.00866699,-0.0512543,0,0,0,-0.460938,0.0078125,55.141,84517
-0.0404663,0.00604248,0.808533,0.760651,-2.28195,1.36917,-0.00892639,-0.0511475,0,0,0,-0.460938,0.0078125,55.1625,84532
0.078186,0.0393066,1.11841,0.15213,1.06491,3.49899,-0.00932312,-0.0508423,0,0,0,-0.460938,0.0078125,55.1811,84562
0.00366211,0.0219727,0.75769,4.71603,3.80325,3.65112,-0.00944519,-0.0506287,0,0,0,-0.460938,0.0078125,55.2012,84577
-0.0482788,0.0535278,1.14838,-0,2.58621,4.86816,-0.00961304,-0.0503845,0,0,0,-0.460938,0.0078125,55.2223,84592
-0.204102,0.0970459,0.98645,1.82556,-2.73834,4.25964,-0.0100708,-0.0496674,0,0,0,-0.460938,0.0078125,55.2426,84622
-0.0513306,0.0455322,1.16333,-0.30426,4.41177,8.21503,-0.0113068,-0.048645,0,0,0,-0.460938,0.0078125,55.2772,84652
-0.0513306,0.0455322,1.16333,-0.30426,4.41177,8.21503,-0.0113068,-0.048645,0,0,0,-0.460938,0.0078125,55.2818,84652
0.00415039,-0.00262451,0.895569,1.36917,3.95538,6.84586,-0.0129242,-0.0473022,0,0,0,-0.460938,0.0078125,55.3012,84682
0.0935669,0.104797,1.24738,-6.08521,-2.89047,5.62881,-0.0137177,-0.0465393,0,0,0,-0.460938,0.0078125,55.3212,84697
0.0668335,0.0767822,0.835754,6.84586,2.89047,4.5639,-0.0144196,-0.0456848,0,0,0,-0.460938,0.0078125,55.3413,84712
0.259521,0.139771,1.4411,1.5213,-3.65112,5.17242,-0.0155334,-0.0438385,0,0,0,-0.476562,0.0078125,55.3614,84742
-0.246399,-0.0158081,0.275208,15.3651,1.5213,2.28195,-0.0159912,-0.0428162,0,0,0,-0.476562,0.0078125,55.3831,84757
0.0266113,0.0825806,1.17139,-10.9534,23.428,8.0629,-0.0166321,-0.041748,0,0,0,-0.476562,0.0078125,55.4015,84772
0.158508,-0.0391235,0.863647,-5.02029,0.912781,5.47668,-0.0176544,-0.0391541,0,0,0,-0.476562,0.0078125,55.4236,84802
0.062439,0.00231934,1.06866,6.99799,-1.5213,5.93307,-0.0179596,-0.0378418,0,0,0,-0.476562,0.0078125,55.4416,84817
0.076355,0.0428467,1.04694,2.43408,-1.21704,5.32455,-0.0181885,-0.0365295,0,0,0,-0.476562,0.0078125,55.462,84832
-0.00744629,0.0679932,0.817017,1.06491,0.30426,3.0426,-0.0184479,-0.0338593,0,0,0,-0.476562,0.0078125,55.482,84862
0.0383911,0.13147,1.33191,-8.82355,4.71603,8.0629,-0.0185547,-0.0323944,0,0,0,-0.476562,0.0078125,55.5048,84877
-0.0838013,0.092041,0.960632,1.21704,5.17242,4.10751,-0.0187073,-0.0308075,0,0,0,-0.476562,0.0078125,55.5211,84892
0.0333252,0.0125732,0.884827,4.5639,0.760651,6.23734,-0.0190125,-0.0275574,0,0,0,-0.476562,0.0078125,55.5411,84922
0.0325317,-0.0148315,0.918518,3.80325,0.15213,5.93307,-0.0191193,-0.0259705,0,0,0,-0.476562,0.0078125,55.5611,84937
0.069458,-0.00805664,0.897339,0.30426,-6.08521,6.38947,-0.0190887,-0.0229492,0,0,0,-0.476562,0.0078125,55.5845,84967
0.0791016,-0.0055542,0.987671,-2.28195,-1.67343,4.10751,-0.0189362,-0.0214996,0,0,0,-0.476562,0.0078125,55.6013,84982
-0.0350342,-0.0248413,0.881775,1.67343,-0.30426,2.73834,-0.0187836,-0.0200958,0,0,0,-0.476562,0.0078125,55.6213,84997
0.0328369,0.041748,0.952454,0.760651,0.760651,4.71603,-0.0186462,-0.0186768,0,0,0,-0.476562,0.0078125,55.6414,85012
-0.102234,0.0117188,0.958801,-2.73834,4.5639,3.0426,-0.0183411,-0.0157776,0,0,0,-0.476562,0.0078125,55.6613,85042
-0.0245361,0.0142822,1.00403,0.30426,4.71603,4.10751,-0.0183105,-0.0143127,0,0,0,-0.476562,0.0078125,55.6816,85057
-0.0487671,0.0357056,1.06036,1.36917,2.12982,0.45639,-0.0183563,-0.0128326,0,0,0,-0.476562,0.0078125,55.7016,85072
0.067749,0.0152588,0.98938,-1.36917,1.36917,3.65112,-0.0185089,-0.00990295,0,0,0,-0.476562,0.0078125,55.7216,85102
-0.0193481,0.0549927,0.850586,2.28195,-7.91077,2.58621,-0.0185547,-0.00842285,0,0,0,-0.476562,0.0078125,55.7418,85117
0.0114136,0.0621338,0.99176,-3.80325,-2.89047,0.30426,-0.0185394,-0.00552368,0,0,0,-0.476562,0.0078125,55.7621,85147
-0.107483,0.0820312,0.958496,0.760651,-2.73834,1.06491,-0.0185852,-0.0039978,0,0,0,-0.476562,0.0078125,55.781,85162
-0.1073,-0.00994873,1.07764,-1.06491,2.73834,3.0426,-0.0188141,-0.00244141,0,0,0,-0.476562,0.0078125,55.8017,85177
-0.0274658,0.0531616,0.740784,5.32455,3.0426,1.36917,-0.0191345,-0.000854492,0,0,0,-0.476562,0.0078125,55.8233,85192
0.0222168,-0.0696411,0.845276,2.89047,2.28195,3.0426,-0.0199585,0.00233459,0,0,0,-0.476562,0.0078125,55.8412,85222
-0.203308,0.219421,1.00244,-1.36917,-1.36917,1.97769,-0.0205231,0.00401306,0,0,0,-0.476562,0.0078125,55.8614,85237
-0.0930176,-0.0531616,0.802429,15.213,5.78094,4.5639,-0.0213165,0.00579834,0,0,0,-0.476562,0.0078125,55.8813,85252
-0.0697632,0.0566406,1.8053,-1.36917,-12.1704,4.10751,-0.0227814,0.00909424,0,0,0,-0.476562,0.0078125,55.9017,85282
-0.104736,-0.124878,0.353333,28.1441,10.0406,2.58621,-0.0236511,0.0106506,0,0,0,-0.476562,0.0078125,55.9217,85297
-0.00592041,0.134949,1.39923,-4.71603,5.78094,4.10751,-0.0245972,0.012207,0,0,0,-0.476562,-0.0551181,55.9415,85312
0.110779,-0.0437012,0.888611,-6.99799,5.47668,4.5639,-0.0262146,0.0155182,0,0,0,-0.476562,-0.244094,55.9617,85342
0.0856934,0.0414429,0.926636,2.28195,-2.43408,-0,-0.026825,0.0171509,0,0,0,-0.476562,-0.448819,55.9816,85357
-0.143127,0.266174,0.82196,-0,-3.0426,3.19473,-0.0274811,0.0189819,0,0,0,-0.476562,-0.527559,56.0017,85372
-0.131165,0.129761,0.791443,6.23734,-5.32455,19.0163,-0.029068,0.0234528,0,0,0,-0.476562,-0.535433,56.0221,85402
-0.328979,0.165588,1.03546,2.43408,-6.5416,21.9067,-0.0302277,0.0259857,0,0,0,-0.476562,-0.535433,56.0419,85417
-0.00476074,0.257935,0.992493,3.80325,-1.06491,31.1867,-0.031601,0.0287933,0,0,0,-0.476562,-0.543307,56.0619,85432
-0.222839,0.187134,1.03766,-0,-5.02029,41.9879,-0.0345154,0.035202,0,0,0,-0.476562,-0.543307,56.0819,85461
-0.189453,0.161316,0.92926,-1.67343,-3.19473,47.4646,-0.0363312,0.0387573,0,0,0,-0.476562,-0.543307,56.1009,85477
0.0530396,0.151245,0.921448,1.97769,-3.34686,51.42,-0.0382233,0.0424805,0,0,0,-0.476562,-0.559055,56.121,85491
-0.00933838,0.160645,0.991333,1.97769,-1.67343,60.6999,-0.0423889,0.0505829,0,0,0,-0.476562,-0.574803,56.141,85521
-0.186584,0.156372,0.927307,0.15213,-5.02029,64.9596,-0.0446777,0.0549164,0,0,0,-0.476562,-0.582677,56.1612,85537
-0.0670166,0.219421,0.902893,1.5213,-0.608521,69.9799,-0.0471039,0.0594788,0,0,0,-0.476562,-0.598425,56.1827,85551
-0.0881958,0.144348,1.06696,1.5213,0.45639,78.347,-0.0520935,0.0692139,0,0,0,-0.476562,-0.637795,56.2014,85581
-0.114746,0.155151,0.886047,1.67343,-0.15213,82.7588,-0.0547333,0.0743256,0,0,0,-0.476562,-0.724409,56.2243,85597
0.0302734,0.160706,0.908142,1.5213,-0.45639,86.1057,-0.0573883,0.0796204,0,0,0,-0.476562,-0.795276,56.2415,85611
-0.098877,0.117615,0.838257,7.45438,1.06491,90.3653,-0.0628662,0.0906372,0,0,0,-0.476562,-0.818898,56.2617,85641
-0.228271,0.170654,1.08276,1.21704,-6.99799,94.3207,-0.0658417,0.0963745,0,0,0,-0.476562,-0.818898,56.282,85657
-0.158325,0.145325,1.14984,-1.5213,-3.95538,99.7974,-0.0722656,0.108261,0,0,0,-0.476562,-0.818898,56.305,85686
-0.0822144,0.228516,0.955933,-1.97769,2.73834,103.144,-0.0756378,0.114487,0,0,0,-0.367188,-0.818898,56.3219,85701
0.0355225,0.124878,0.889893,-1.21704,-4.86816,106.643,-0.0789948,0.12088,0,0,0,-0.335938,-0.748031,56.3415,85717
-0.0252686,0.133118,0.994141,2.89047,-0.760651,109.838,-0.0822754,0.127396,0,0,0,-0.304688,-0.653543,56.3612,85731
0.292114,0.10437,0.903809,-2.28195,-1.36917,112.881,-0.0888519,0.1409,0,0,0,-0.296875,-0.574803,56.3812,85761
-0.42218,0.212524,0.937561,2.58621,6.38947,110.751,-0.0920868,0.147873,0,0,0,-0.28125,-0.330709,56.4012,85777
0.230469,0.149414,1.12799,1.21704,-1.5213,110.599,-0.0953827,0.155045,0,0,0,-0.257812,-0.181102,56.4213,85791
0.0258179,0.188538,0.967346,-6.23734,2.89047,109.382,-0.102127,0.170059,0,0,0,-0.242188,0.0078125,56.4412,85821
0.0340576,0.13623,0.574219,5.47668,-4.10751,109.077,-0.105453,0.177856,0,0,0,-0.242188,0.0078125,56.4617,85837
0.0286255,0.119019,0.417114,4.41177,2.89047,107.708,-0.108688,0.185745,0,0,0,-0.242188,0.0078125,56.4817,85851
0.0795288,-0.0519409,0.631897,-2.43408,3.49899,87.4748,-0.115356,0.201477,0,0,0,-0.234375,0.0078125,56.5016,85881
0.484802,-0.0147705,0.515747,2.28195,-3.34686,82.4545,-0.118362,0.209091,0,0,0,-0.226562,0.0078125,56.5227,85897
-0.192505,0.0155029,1.21423,3.0426,5.17242,83.6716,-0.12117,0.216568,0,0,0,-0.226562,0.0078125,56.5409,85911
0.821289,-0.20697,0.530518,11.1055,-13.0832,61.917,-0.125427,0.230316,0,0,0,-0.226562,0.0078125,56.5609,85941
-0.116882,0.180298,1.69611,-0.912781,5.32455,49.5944,-0.126678,0.236633,0,0,0,-0.226562,0.0078125,56.5811,85957
0.55481,-0.118408,0.884644,-3.0426,-4.41177,41.5315,-0.128998,0.249313,0,0,0,-0.210938,0.0078125,56.6014,85986
0.523987,-0.158142,0.504333,2.58621,6.69373,34.2293,-0.12941,0.255066,0,0,0,-0.1875,0.0078125,56.6213,86001
0.141968,-0.0286865,0.781555,2.12982,-6.38947,24.493,-0.129456,0.260513,0,0,0,-0.171875,0.0078125,56.6414,86017
-0.0583496,0.148376,1.302,-1.97769,3.49899,16.7343,-0.129547,0.271545,0,0,0,-0.132812,0.0078125,56.6631,86046
0.334534,0.162659,1.00342,1.06491,-2.43408,19.3205,-0.12941,0.277206,0,0,0,-0.0703125,0.0078125,56.6819,86061
-0.115906,0.195923,1.12592,-8.36716,-0.760651,8.82355,-0.128159,0.288376,0,0,0,-0.0390625,0.0078125,56.715,86091
-0.115906,0.195923,1.12592,-8.36716,-0.760651,8.82355,-0.128159,0.288376,0,0,0,-0.0390625,0.0078125,56.7222,86091
0.199036,0.124512,1.03461,-0.912781,-0.45639,-1.06491,-0.126282,0.299667,0,0,0,-0.0078125,0.0078125,56.7419,86121
-0.171936,0.0900879,0.904358,-1.97769,-1.36917,0.15213,-0.125168,0.305374,0,0,0,-0.0078125,0.0078125,56.7617,86137
0.0153198,0.083374,0.913208,1.21704,0.15213,-0.45639,-0.122986,0.316956,0,0,0,-0.0078125,0.0078125,56.7821,86166
-0.0217896,0.13208,1.01416,-2.12982,-0.15213,-2.43408,-0.121841,0.32283,0,0,0,-0.0078125,0.0078125,56.8017,86181
0.0544434,0.0643921,0.883423,1.82556,0.912781,-1.06491,-0.120651,0.328796,0,0,0,-0.0078125,0.0078125,56.8212,86197
-0.0137329,0.0556641,1.00403,-0.912781,-1.21704,0.45639,-0.119446,0.334763,0,0,0,-0.0078125,0.0078125,56.8415,86211
0.0020752,0.0778198,0.978271,-1.82556,-1.5213,0.30426,-0.116989,0.346802,0,0,0,-0.0078125,0.0078125,56.861,86241
0.0177612,0.0795288,0.9151,1.97769,1.21704,-0.45639,-0.115707,0.35289,0,0,0,-0.0078125,0.0078125,56.8814,86257
-0.000244141,0.0454712,0.955322,-0.15213,0.30426,-0.15213,-0.113098,0.359009,0,0,0,-0.0078125,0.0078125,56.9012,86286
0.0180664,0.0235596,0.927612,-0.15213,-0.30426,0.608521,-0.113098,0.359009,0,0,0,-0.0078125,0.0078125,56.9214,86301
0.0161743,0.0253296,0.969788,-0.30426,0.45639,-0,-0.113098,0.359009,0,0,0,-0.0078125,0.0078125,56.9414,86316
0.0219116,0.0184937,0.962952,0.30426,0.30426,-0.15213,-0.113098,0.358917,0,0,0,-0.0078125,0.0078125,56.9646,86346
0.0166626,0.0158081,0.937256,0.15213,-0,0.15213,-0.113098,0.35881,0,0,0,-0.0078125,0.0078125,56.9835,86361
0.0132446,0.017395,0.960754,-0,0.15213,0.608521,-0.113098,0.358688,0,0,0,-0.0078125,0.0078125,57.003,86376
0.0142212,0.00775146,0.932434,0.30426,0.45639,0.30426,-0.113098,0.358521,0,0,0,-0.0078125,0.0078125,57.0218,86391
0.0181274,0.0148926,0.938721,0.15213,0.30426,-0.15213,-0.113098,0.358078,0,0,0,-0.0078125,0.0078125,57.041,86421
0.0164185,0.0186157,0.951416,-0.15213,-0,0.30426,-0.113098,0.357803,0,0,0,-0.0078125,0.0078125,57.0609,86436
0.0142822,0.0180054,0.947021,0.15213,0.15213,0.45639,-0.113098,0.357498,0,0,0,-0.0078125,0.0078125,57.0812,86451
0.0140381,0.0272827,0.938293,-0,-0,0.15213,-0.113098,0.356827,0,0,0,-0.0078125,0.0078125,57.101,86481
0.0157471,0.03125,0.946289,0.30426,0.15213,0.30426,-0.113098,0.356827,0,0,0,-0.0078125,0.0078125,57.1212,86496
0.017395,0.0290527,0.948792,-0.15213,-0.15213,-0,-0.113098,0.356827,0,0,0,-0.101562,0.0078125,57.1414,86511
0.0127563,0.0199585,0.94812,-0,-0,-0.15213,-0.113098,0.356827,0,0,0,-0.125,0.0078125,57.1617,86541
0.0153809,0.0231323,0.949219,-0.15213,-0.15213,-0.15213,-0.113098,0.356827,0,0,0,-0.125,0.0078125,57.1815,86556
0.0113525,0.0247803,0.944092,-0.30426,-0.15213,-0,-0.113098,0.356827,0,0,0,-0.125,0.0078125,57.2016,86571
0.0166016,0.0185547,0.945557,-0.15213,-0.15213,-0,-0.113098,0.356812,0,0,0,-0.125,0.0078125,57.2236,86601
0.0133057,0.0235596,0.946411,-0,-0,-0,-0.113098,0.35675,0,0,0,-0.164062,0.0078125,57.2415,86616
0.0158081,0.0247192,0.940735,-0,-0.15213,0.45639,-0.113098,0.356689,0,0,0,-0.21875,0.0078125,57.2616,86631
0.048645,0.00177002,0.941895,0.15213,0.30426,0.608521,-0.113083,0.35643,0,0,0,-0.25,0.0078125,57.2816,86661
-0.0279541,-0.0317993,0.955627,-0,-0,0.608521,-0.113098,0.356216,0,0,0,-0.265625,0.0078125,57.3031,86676
0.0494995,-0.0309448,0.955139,0.15213,0.45639,2.89047,-0.113144,0.355438,0,0,0,-0.265625,0.0078125,57.3221,86706
0.00408936,-0.0189209,0.934326,-0.45639,0.30426,3.34686,-0.113159,0.354889,0,0,0,-0.265625,0.0078125,57.3419,86721
0.0210571,-0.0410156,0.916443,1.36917,0.45639,2.43408,-0.11319,0.354279,0,0,0,-0.265625,0.0078125,57.3617,86736
-0.00469971,-0.0490112,0.976135,-0.30426,0.15213,-0.912781,-0.113266,0.353561,0,0,0,-0.265625,0.0078125,57.3817,86751
0.0446167,-0.0194092,0.971863,-0.45639,0.45639,2.28195,-0.113541,0.351822,0,0,0,-0.265625,0.0078125,57.4009,86781
0.0512085,0.0298462,0.928894,-0.45639,1.06491,1.36917,-0.113647,0.350861,0,0,0,-0.273438,0.0078125,57.4212,86796
-0.0466309,0.0302124,0.980408,-0.45639,-0.30426,-1.06491,-0.11377,0.349899,0,0,0,-0.273438,0.0078125,57.4411,86811
0.0524902,-0.00610352,0.956543,0.15213,0.30426,0.608521,-0.114136,0.3479,0,0,0,-0.273438,0.0078125,57.4625,86841
0.0459595,-0.0455933,0.937744,1.06491,0.15213,2.73834,-0.114288,0.346786,0,0,0,-0.273438,0.0078125,57.4826,86856
0.0126343,-0.0316772,0.963867,-0.45639,-0.45639,2.89047,-0.114288,0.345566,0,0,0,-0.28125,0.0078125,57.5013,86871
-0.00189209,-0.020813,0.96698,-1.06491,-0.15213,-0.608521,-0.114471,0.342987,0,0,0,-0.28125,0.0078125,57.5217,86901
0.0863037,-0.0142822,0.922241,1.97769,1.06491,0.608521,-0.114563,0.341614,0,0,0,-0.28125,0.0078125,57.5429,86916
-0.00524902,-0.0548706,0.908386,1.21704,0.30426,1.67343,-0.114731,0.338654,0,0,0,-0.28125,0.0078125,57.5637,86946
0.0587158,-0.0318604,0.949463,0.912781,0.15213,1.21704,-0.114838,0.337036,0,0,0,-0.28125,0.0078125,57.5852,86961
0.0231934,-0.00939941,0.96283,-1.06491,-0.608521,-0.30426,-0.114944,0.335358,0,0,0,-0.28125,0.0078125,57.6018,86976
0.0714722,0.0477905,0.964722,-1.06491,-1.21704,1.06491,-0.115189,0.331848,0,0,0,-0.28125,0.0078125,57.622,87006
-0.0968628,0.00238037,0.956726,1.21704,0.15213,-1.21704,-0.115341,0.330093,0,0,0,-0.28125,0.0078125,57.6418,87021
-0.00946045,-0.00244141,0.915466,0.45639,-0.45639,1.82556,-0.11557,0.328354,0,0,0,-0.289062,0.0078125,57.661,87036
0.0790405,0.00994873,0.979919,-0.608521,0.15213,0.760651,-0.115784,0.326553,0,0,0,-0.304688,0.0078125,57.6811,87051
0.0712891,-0.00506592,0.953247,-2.12982,-2.58621,1.67343,-0.116287,0.322861,0,0,0,-0.34375,0.0078125,57.7009,87081
0.0181885,-0.0170898,0.950073,2.12982,-0,-0.30426,-0.116516,0.320923,0,0,0,-0.367188,0.0078125,57.721,87096
-0.0043335,-0.0310059,0.93103,-1.82556,-2.73834,0.912781,-0.11676,0.318924,0,0,0,-0.398438,0.0078125,57.7414,87111
-0.022522,-0.0375366,0.891052,-0,-0.912781,5.17242,-0.117508,0.314789,0,0,0,-0.414062,0.0078125,57.7611,87141
-0.085022,-0.0101318,0.996582,-0,-0.45639,5.47668,-0.118011,0.312683,0,0,0,-0.414062,0.0078125,57.7828,87156
0.0283813,-0.0521851,0.933411,-0,-2.12982,6.99799,-0.119293,0.308258,0,0,0,-0.421875,0.0078125,57.8026,87186
-0.0745239,-0.0429077,0.984924,0.608521,-0,7.45438,-0.120026,0.305939,0,0,0,-0.445312,0.0078125,57.8213,87201
-0.0140991,-0.06073,0.964539,1.67343,1.36917,8.82355,-0.12085,0.303558,0,0,0,-0.453125,0.0078125,57.8416,87216
0.0472412,-0.100708,0.891235,3.0426,2.89047,8.51929,-0.121719,0.301041,0,0,0,-0.460938,0.0078125,57.8614,87231
-0.0827637,-0.0424194,0.937012,1.06491,1.21704,9.73633,-0.123779,0.295761,0,0,0,-0.460938,0.0078125,57.8815,87261
0.083374,-0.0872803,0.987671,-0.608521,1.67343,9.73633,-0.124939,0.292999,0,0,0,-0.460938,0.0078125,57.9016,87276
-0.0437012,-0.0368042,0.891479,2.89047,3.34686,10.1927,-0.126099,0.290146,0,0,0,-0.46875,0.0078125,57.9216,87291
0.139404,-0.0419312,0.910889,-0,-0.15213,10.497,-0.128586,0.28421,0,0,0,-0.46875,0.0078125,57.9417,87321
-0.132812,-0.0509033,0.890869,1.97769,0.760651,9.73633,-0.129837,0.281128,0,0,0,-0.46875,0.0078125,57.961,87336
0.203186,-0.0737305,0.967346,1.97769,-4.25964,10.8012,-0.131104,0.277939,0,0,0,-0.46875,0.0078125,57.9811,87351
0.357422,-0.116882,0.828308,1.21704,-4.41177,9.43207,-0.133591,0.27124,0,0,0,-0.476562,0.0078125,58.0014,87381
-0.0826416,-0.0532227,0.974426,3.65112,0.760651,9.43207,-0.134689,0.267624,0,0,0,-0.476562,0.0078125,58.0214,87396
0.239075,-0.0403442,0.842896,1.36917,-2.28195,7.45438,-0.136993,0.260193,0,0,0,-0.484375,0.0078125,58.0416,87426
0.0771484,-0.0330811,0.990967,-1.21704,-1.5213,7.91077,-0.137939,0.256302,0,0,0,-0.484375,0.0078125,58.0616,87441
-0.15802,-0.0548706,1.09174,3.19473,4.5639,7.15012,-0.138962,0.25235,0,0,0,-0.492188,0.0078125,58.0822,87456
0.152466,-0.0516968,0.874939,-0.15213,0.760651,4.5639,-0.14003,0.248352,0,0,0,-0.492188,0.0078125,58.1021,87471
-0.0504761,-0.104126,0.994263,-0.45639,2.12982,5.93307,-0.141937,0.240097,0,0,0,-0.492188,0.0078125,58.1217,87501
0.157349,-0.0408325,0.888794,-1.21704,1.36917,3.34686,-0.142883,0.235809,0,0,0,-0.492188,0.0078125,58.1419,87516
0.0101929,-0.0268555,0.949158,2.12982,0.608521,1.97769,-0.143753,0.231445,0,0,0,-0.492188,0.0078125,58.1612,87531
0.00109863,-0.0210571,0.926025,0.15213,-1.06491,1.06491,-0.145432,0.222488,0,0,0,-0.492188,0.0078125,58.1813,87561
-0.0247192,-0.0230713,0.931641,-2.43408,-1.36917,1.67343,-0.146317,0.222488,0,0,0,-0.492188,0.0078125,58.2014,87576
-0.00683594,-0.0454712,0.883057,2.58621,3.49899,0.912781,-0.147995,0.222244,0,0,0,-0.492188,0.0078125,58.2213,87606
-0.0780029,0.0169067,0.999817,-4.10751,-1.5213,1.21704,-0.148911,0.222092,0,0,0,-0.492188,0.0078125,58.2433,87621
0.0481567,-0.0455933,0.963928,0.15213,1.82556,3.34686,-0.149841,0.221939,0,0,0,-0.421875,0.0078125,58.2613,87636
0.0057373,-0.00299072,1.05292,-2.58621,3.0426,1.82556,-0.15184,0.221329,0,0,0,-0.421875,0.0078125,58.2818,87666
0.0740356,0.0447388,0.84668,3.34686,-0,1.36917,-0.152802,0.220993,0,0,0,-0.414062,0.0078125,58.3016,87680
0.0327759,0.027771,0.948853,-2.12982,-3.19473,0.608521,-0.153687,0.220993,0,0,0,-0.40625,0.0078125,58.3214,87696
-0.145691,0.0441895,0.958984,-0.30426,0.912781,-1.82556,-0.154648,0.221069,0,0,0,-0.40625,0.0078125,58.3419,87710
0.0321655,0.00634766,0.883301,4.5639,2.12982,0.608521,-0.156601,0.221237,0,0,0,-0.40625,0.0078125,58.3615,87740
-0.184631,0.0579224,0.975647,0.912781,-0.45639,-0.15213,-0.157654,0.221375,0,0,0,-0.40625,0.0078125,58.3818,87756
0.00604248,0.0444336,0.929321,3.34686,1.82556,-0.608521,-0.159668,0.221786,0,0,0,-0.40625,0.0078125,58.4048,87785
-0.0861816,0.0268555,0.918152,3.95538,1.97769,1.06491,-0.16066,0.222061,0,0,0,-0.40625,0.0078125,58.422,87800
0.0670776,0.128418,1.06134,-5.62881,0.608521,1.82556,-0.161636,0.222443,0,0,0,-0.40625,0.0078125,58.4424,87816
-0.133545,0.0217285,0.932251,-1.97769,0.15213,0.30426,-0.163498,0.223328,0,0,0,-0.40625,0.0078125,58.4614,87845
-0.0349731,0.0820923,0.808655,-3.0426,-1.82556,2.43408,-0.164551,0.223907,0,0,0,-0.40625,0.0078125,58.4813,87860
0.0336914,0.0709839,1.25232,-1.82556,1.21704,1.36917,-0.165588,0.224579,0,0,0,-0.40625,-0.173228,58.5016,87876
-0.152649,-0.00378418,0.859924,1.36917,-0.45639,-1.21704,-0.166672,0.225327,0,0,0,-0.40625,-0.299213,58.5212,87890
-0.0661011,0.158813,0.798523,3.80325,3.95538,4.25964,-0.167877,0.227051,0,0,0,-0.40625,-0.472441,58.5412,87920
-0.0794067,0.226196,1.07343,-1.82556,0.30426,9.88846,-0.167877,0.228256,0,0,0,-0.398438,-0.472441,58.5614,87936
-0.105286,0.152405,0.990051,-1.67343,-2.12982,18.2556,-0.16803,0.231461,0,0,0,-0.398438,-0.472441,58.5813,87965
-0.0348511,0.187439,0.952148,1.67343,2.12982,21.9067,-0.168152,0.233414,0,0,0,-0.390625,-0.472441,58.6014,87980
-0.0811157,0.165283,0.910645,-0.608521,1.82556,25.8621,-0.168259,0.235611,0,0,0,-0.382812,-0.472441,58.6219,87996
-0.338074,0.222229,1.05493,-1.36917,-0.912781,35.7506,-0.168701,0.240768,0,0,0,-0.382812,-0.472441,58.6416,88025
0.104736,0.0958252,0.95874,-2.28195,-0.30426,38.9453,-0.169067,0.243759,0,0,0,-0.382812,-0.472441,58.6618,88040
-0.0513306,0.147827,1.04724,0.608521,-1.06491,40.6187,-0.169342,0.246841,0,0,0,-0.382812,-0.472441,58.682,88056
0.21936,0.136658,0.997314,1.21704,-2.12982,48.5295,-0.170227,0.253876,0,0,0,-0.382812,-0.472441,58.7039,88085
-0.472412,0.197327,1.04303,3.65112,0.45639,50.9636,-0.170746,0.257736,0,0,0,-0.382812,-0.472441,58.7245,88100
0.284607,0.0775757,0.966736,1.36917,-1.67343,55.0711,-0.171295,0.26181,0,0,0,-0.382812,-0.472441,58.7416,88116
-0.356873,0.210083,1.14886,3.34686,-3.34686,59.635,-0.171799,0.266022,0,0,0,-0.382812,-0.472441,58.7613,88130
-0.324646,0.200195,1.11713,3.49899,-1.36917,65.5681,-0.173264,0.275391,0,0,0,-0.367188,-0.472441,58.7813,88160
0.272095,0.137512,0.761597,-2.73834,0.15213,69.0671,-0.173996,0.280411,0,0,0,-0.335938,-0.472441,58.8014,88176
-0.462219,0.199097,1.35461,-0.760651,-2.73834,73.631,-0.174728,0.285645,0,0,0,-0.28125,-0.354331,58.8216,88190
-0.683044,0.242004,1.2403,1.5213,0.608521,79.7162,-0.1763,0.296539,0,0,0,-0.257812,-0.173228,58.8414,88220
0.342468,0.0601807,0.914795,4.5639,1.5213,81.0854,-0.177231,0.302338,0,0,0,-0.242188,0.0078125,58.8615,88236
0.0562744,0.106323,0.956909,2.28195,1.21704,80.9332,-0.17897,0.314468,0,0,0,-0.242188,0.0078125,58.8816,88265
0.470337,0.0734253,0.86261,4.25964,-5.62881,79.5641,-0.179489,0.320541,0,0,0,-0.242188,0.0078125,58.9021,88280
-0.211487,0.00634766,1.17889,2.12982,2.43408,77.13,-0.17984,0.326508,0,0,0,-0.242188,0.0078125,58.9217,88296
0.188721,0.113098,1.18658,0.30426,-0.912781,64.9596,-0.180054,0.337708,0,0,0,-0.242188,0.0078125,58.9422,88325
-0.199036,0.00671387,0.992615,1.67343,1.97769,60.8521,-0.179977,0.343185,0,0,0,-0.242188,0.0078125,58.9609,88340
0.735474,-0.0977783,0.809631,2.73834,-1.36917,54.919,-0.179626,0.348358,0,0,0,-0.242188,0.0078125,58.9812,88356
-0.143982,0.0603027,1.10358,0.760651,1.5213,46.8561,-0.17897,0.353256,0,0,0,-0.242188,0.0078125,59.0019,88370
0.418396,-0.0414429,1.04706,2.89047,0.30426,36.8155,-0.177261,0.362305,0,0,0,-0.242188,0.0078125,59.0216,88400
-0.217957,0.0891724,1.05103,0.15213,1.97769,32.2516,-0.176117,0.366531,0,0,0,-0.242188,0.0078125,59.0433,88416
-0.24054,0.186707,1.22235,0.912781,1.82556,26.3185,-0.17363,0.374893,0,0,0,-0.242188,0.0078125,59.0633,88445
0.194946,-0.109436,0.874451,3.34686,0.608521,24.0366,-0.172348,0.379105,0,0,0,-0.242188,0.0078125,59.0821,88460
0.0533447,0.012207,1.13037,0.15213,-0.30426,18.1035,-0.171005,0.383133,0,0,0,-0.242188,0.0078125,59.1009,88476
0.0782471,0.0264282,1.03754,1.67343,0.30426,15.213,-0.168015,0.390793,0,0,0,-0.242188,0.0078125,59.1214,88505
0.214172,-0.0460205,0.910706,0.30426,0.30426,12.4747,-0.166321,0.394409,0,0,0,-0.242188,0.0078125,59.1412,88520
0.147461,-0.0111084,0.967224,0.30426,0.15213,7.30225,-0.16449,0.397827,0,0,0,-0.242188,0.0078125,59.1613,88536
-0.146057,0.00671387,0.989624,-0.30426,-1.06491,-2.73834,-0.160629,0.404434,0,0,0,-0.242188,0.0078125,59.1832,88565
0.121277,-0.00909424,0.930115,-0.912781,-0.15213,1.21704,-0.158783,0.40773,0,0,0,-0.242188,0.0078125,59.2012,88580
-0.00811768,0.00708008,0.956299,1.21704,1.36917,-0.30426,-0.156876,0.410965,0,0,0,-0.242188,0.0078125,59.2231,88595
0.0222778,-0.00732422,0.986145,-1.82556,-0.30426,0.760651,-0.154999,0.417374,0,0,0,-0.242188,0.0078125,59.2434,88625
0.0545044,0.00933838,0.907593,1.5213,0.45639,-0.30426,-0.154984,0.420517,0,0,0,-0.304688,0.0078125,59.2616,88640
-0.0751953,0.0372314,0.982971,-1.21704,-0.30426,-0.760651,-0.154999,0.423691,0,0,0,-0.3125,0.0078125,59.2818,88655
0.0374756,-0.0160522,1.03723,-1.97769,-1.5213,2.58621,-0.155029,0.429916,0,0,0,-0.34375,0.0078125,59.3019,88685
-0.00616455,-0.0335083,0.894348,1.67343,1.36917,1.67343,-0.15506,0.432938,0,0,0,-0.375,0.0078125,59.3217,88700
-0.0449829,-0.0299683,1.01807,-1.82556,-1.36917,1.97769,-0.155182,0.435913,0,0,0,-0.390625,0.0078125,59.3428,88715
-0.0698242,-0.0429688,0.976501,0.760651,0.608521,1.67343,-0.155441,0.441681,0,0,0,-0.390625,0.0078125,59.3613,88745
0.0274048,-0.0776367,0.909851,-1.06491,-0.45639,4.25964,-0.155685,0.444458,0,0,0,-0.390625,0.0078125,59.3814,88760
-0.0319214,-0.0791626,0.996887,-0.30426,0.912781,4.41177,-0.156021,0.447144,0,0,0,-0.390625,0.0078125,59.4011,88775
0.0222168,-0.0697021,0.935181,1.36917,1.82556,2.89047,-0.156799,0.452194,0,0,0,-0.390625,0.0078125,59.4212,88805
0.0598755,-0.0422974,0.889771,-0.30426,0.912781,2.73834,-0.157211,0.454544,0,0,0,-0.398438,0.0078125,59.4414,88820
0.076355,-0.0596313,1.01483,-1.67343,-0.30426,5.32455,-0.157608,0.456772,0,0,0,-0.398438,0.0078125,59.4613,88835
-0.0916748,-0.0462646,1.09564,-2.58621,1.36917,2.28195,-0.158661,0.461075,0,0,0,-0.414062,0.0078125,59.4823,88865
-0.0155029,-0.0316772,0.884216,0.15213,0.912781,2.12982,-0.159363,0.463196,0,0,0,-0.4375,0.0078125,59.502,88880
0.0594482,-0.0361328,1.00037,1.97769,3.0426,2.12982,-0.160095,0.465271,0,0,0,-0.4375,0.0078125,59.5213,88895
-0.152161,-0.0340576,0.965027,-0.912781,-1.06491,4.5639,-0.161743,0.469193,0,0,0,-0.4375,0.0078125,59.544,88925
0.0375977,-0.0472412,0.902649,-1.21704,2.12982,3.49899,-0.16275,0.471146,0,0,0,-0.4375,0.0078125,59.5617,88940
-0.0390625,-0.0588379,1.02405,-0.45639,-0.608521,3.65112,-0.163834,0.473038,0,0,0,-0.4375,0.0078125,59.5837,88955
0.00720215,-0.0340576,0.955017,0.15213,-0.912781,4.71603,-0.166046,0.476562,0,0,0,-0.4375,0.0078125,59.6018,88985
-0.0689697,-0.0125732,0.888794,1.36917,-0.760651,6.69373,-0.167221,0.478287,0,0,0,-0.4375,0.0078125,59.6216,89000
0.09198,-0.043457,0.989563,-0,-0.912781,5.93307,-0.168427,0.47995,0,0,0,-0.4375,0.0078125,59.6425,89015
-0.181396,0.0637207,0.939148,-1.82556,0.608521,5.17242,-0.170837,0.483093,0,0,0,-0.4375,0.0078125,59.6623,89045
-0.0306396,-0.0479126,0.932129,-2.28195,-2.73834,7.15012,-0.172226,0.484772,0,0,0,-0.4375,0.0078125,59.6822,89060
-0.0307617,-0.0470581,1.01917,-1.82556,0.15213,6.5416,-0.175232,0.488144,0,0,0,-0.4375,0.0078125,59.7182,89090
0.000366211,-0.0414429,0.943176,1.97769,3.80325,5.78094,-0.176865,0.489792,0,0,0,-0.4375,0.0078125,59.7226,89105
0.0626831,0.0263672,1.11462,-0.45639,-0.760651,6.5416,-0.178482,0.491394,0,0,0,-0.4375,0.0078125,59.741,89120
-0.0588989,0.0713501,0.781982,8.51929,6.99799,8.67142,-0.180069,0.493057,0,0,0,-0.4375,0.0078125,59.761,89135
-0.0964355,0.0531006,1.08746,-9.88846,5.62881,9.12781,-0.181717,0.494858,0,0,0,-0.4375,0.0078125,59.7811,89150
0.140442,-0.0319824,0.988831,-1.97769,-3.49899,9.27994,-0.185196,0.498489,0,0,0,-0.4375,0.0078125,59.8016,89180
-0.00476074,-0.000732422,0.948486,1.5213,7.15012,10.497,-0.18689,0.500198,0,0,0,-0.4375,0.0078125,59.8212,89195
-0.0484619,0.00976562,1.00146,-1.21704,1.21704,7.91077,-0.190353,0.503632,0,0,0,-0.4375,0.0078125,59.8421,89225
0.0742798,-0.0615845,0.908813,0.608521,-3.0426,5.93307,-0.192123,0.50531,0,0,0,-0.4375,0.0078125,59.8613,89240
0.140137,-0.0112305,0.790283,-1.97769,-4.71603,6.5416,-0.193832,0.506866,0,0,0,-0.4375,0.0078125,59.8826,89255
-0.0308838,0.0127563,0.94751,-3.49899,-0,4.5639,-0.19722,0.509995,0,0,0,-0.4375,0.0078125,59.9016,89285
0.0385742,-0.0584106,0.985229,-1.06491,-0.760651,4.71603,-0.198959,0.511566,0,0,0,-0.445312,0.0078125,59.9218,89300
0.0550537,0.0495605,0.872375,4.41177,3.0426,2.12982,-0.200684,0.513077,0,0,0,-0.445312,0.0078125,59.9419,89315
0.0625,-0.0141602,0.869507,4.5639,6.5416,3.65112,-0.204071,0.513062,0,0,0,-0.445312,0.0078125,59.9615,89345
-0.0140991,-0.0204468,1.11353,-3.80325,-3.19473,2.73834,-0.20578,0.513,0,0,0,-0.445312,0.0078125,59.9815,89360
0.0349731,0.0437622,1.04712,-1.21704,3.95538,0.45639,-0.207489,0.512939,0,0,0,-0.445312,0.0078125,60.0014,89375
0.0651245,0.0514526,0.930603,-4.25964,-1.21704,3.0426,-0.210785,0.512695,0,0,0,-0.445312,0.0078125,60.0214,89405
-0.0325928,-0.0650024,1.04004,2.12982,-0.912781,-0.15213,-0.212402,0.512527,0,0,0,-0.445312,0.0078125,60.0423,89420
-0.0727539,0.146423,1.09094,-3.80325,-0,1.97769,-0.214081,0.512451,0,0,0,-0.445312,0.0078125,60.0616,89435
0.0935669,-0.00305176,1.03333,-1.21704,-1.82556,1.36917,-0.217316,0.512436,0,0,0,-0.445312,0.0078125,60.0815,89465
-0.00109863,-0.050354,0.958435,0.15213,-2.12982,0.15213,-0.218887,0.512344,0,0,0,-0.445312,0.0078125,60.1016,89480
0.041748,0.0535278,0.998047,0.760651,1.06491,2.28195,-0.220459,0.512238,0,0,0,-0.445312,0.0078125,60.1232,89495
0.109314,0.0106812,0.953796,0.45639,-3.49899,0.912781,-0.223679,0.51207,0,0,0,-0.445312,0.0078125,60.1418,89525
0.0854492,0.0457153,0.949036,1.06491,-1.06491,2.28195,-0.225174,0.511948,0,0,0,-0.445312,0.0078125,60.1616,89540
0.0247192,0.0565796,0.939697,-0,-2.89047,1.97769,-0.226578,0.511826,0,0,0,-0.445312,0.0078125,60.182,89555
-0.093689,-0.0148926,1.07965,0.760651,-1.67343,0.608521,-0.229416,0.511673,0,0,0,-0.445312,0.0078125,60.2019,89585
-0.0541382,0.00970459,0.963928,-0,-0.912781,1.67343,-0.230972,0.511673,0,0,0,-0.445312,0.0078125,60.2234,89600
-0.00323486,-0.00195312,0.929199,0.608521,-3.49899,1.82556,-0.232574,0.511703,0,0,0,-0.445312,0.0078125,60.2411,89615
0.0012207,0.0306396,1.00446,1.82556,2.58621,0.760651,-0.232574,0.511765,0,0,0,-0.445312,0.0078125,60.2611,89630
0.0960693,-0.00384521,0.768738,3.80325,4.25964,4.5639,-0.232712,0.512039,0,0,0,-0.453125,0.0078125,60.2831,89660
0.0129395,0.0106812,1.10419,-0.45639,-3.19473,2.28195,-0.232742,0.512146,0,0,0,-0.453125,0.0078125,60.3012,89675
0.0153809,0.097229,1.10034,-4.71603,1.06491,2.73834,-0.232697,0.51236,0,0,0,-0.453125,0.0078125,60.3212,89705
0.00335693,-0.0828857,0.926392,-0.15213,-6.99799,0.912781,-0.232666,0.512497,0,0,0,-0.453125,0.0078125,60.343,89720
-0.000610352,0.00866699,1.11761,-0.608521,-1.06491,0.912781,-0.232666,0.512589,0,0,0,-0.46875,0.0078125,60.3629,89735
0.0484619,0.03479,0.833313,-1.06491,-1.67343,1.5213,-0.232651,0.512711,0,0,0,-0.507812,0.0078125,60.3816,89750
-0.0806274,-0.0253296,0.971558,-0,-1.36917,0.912781,-0.232498,0.512756,0,0,0,-0.53125,0.0078125,60.4014,89780
0.0877686,-0.0392456,0.925598,-5.17242,-2.58621,2.58621,-0.232468,0.512741,0,0,0,-0.539062,0.0078125,60.4216,89795
-0.0727539,-0.0327759,1.10742,-0.760651,-1.36917,3.19473,-0.232544,0.512512,0,0,0,-0.539062,0.0078125,60.4417,89825
0.0189209,-0.038147,0.85498,-0.30426,3.49899,4.71603,-0.232712,0.512375,0,0,0,-0.539062,0.0078125,60.4616,89840
0.16333,-0.0806274,1.03546,-1.5213,-1.5213,3.49899,-0.232834,0.512115,0,0,0,-0.539062,0.0078125,60.482,89855
0.1698,-0.134094,0.635803,6.84586,2.58621,3.95538,-0.2332,0.511383,0,0,0,-0.539062,0.0078125,60.5019,89884
-0.0385132,0.137878,1.25592,-6.23734,1.06491,2.43408,-0.233337,0.510925,0,0,0,-0.539062,0.0078125,60.5219,89899
0.103333,0.022522,0.923767,-2.43408,3.19473,2.73834,-0.233383,0.510559,0,0,0,-0.539062,0.0078125,60.5419,89915
-0.0728149,-0.000610352,1.03162,-0.30426,7.30225,2.89047,-0.233475,0.50972,0,0,0,-0.539062,0.0078125,60.5613,89944
0.0187378,0.0714111,0.937744,-4.71603,0.45639,2.43408,-0.233551,0.509384,0,0,0,-0.539062,0.0078125,60.581,89959
0.0233765,-0.0426636,1.00092,-4.86816,-0.608521,2.89047,-0.233612,0.509048,0,0,0,-0.539062,0.0078125,60.6012,89975
-0.0891724,-0.0240479,0.735046,1.97769,2.12982,1.97769,-0.233749,0.508728,0,0,0,-0.539062,0.0078125,60.6213,89989
0.0834351,-0.0100708,1.03821,3.34686,1.5213,3.34686,-0.234161,0.508102,0,0,0,-0.539062,0.0078125,60.6413,90019
-0.112793,0.141602,1.08209,-7.15012,-8.51929,3.65112,-0.234344,0.507874,0,0,0,-0.546875,0.0078125,60.6614,90035
-0.117859,-0.0608521,0.925781,5.62881,-7.60651,5.17242,-0.234802,0.507721,0,0,0,-0.546875,0.0078125,60.6817,90064
0.0927734,0.0960693,0.988037,-2.89047,-1.82556,4.41177,-0.235092,0.50769,0,0,0,-0.546875,0.0078125,60.7019,90079
-0.0921021,-0.0195923,1.01978,2.73834,4.25964,5.17242,-0.235352,0.507721,0,0,0,-0.546875,0.0078125,60.7217,90095
0.00897217,-0.0032959,1.21204,4.41177,-11.1055,6.99799,-0.235947,0.507889,0,0,0,-0.546875,0.0078125,60.7416,90124
-0.244629,-0.0117798,0.369446,7.91077,6.23734,7.75864,-0.236374,0.508087,0,0,0,-0.546875,0.0078125,60.7619,90139
0.238098,0.0441895,1.55023,-16.8864,-17.495,6.38947,-0.236801,0.508301,0,0,0,-0.546875,0.0078125,60.7821,90155
0.184753,-0.112915,1.4184,-2.28195,-20.3854,5.93307,-0.237427,0.508286,0,0,0,-0.546875,0.0078125,60.802,90184
-0.123413,-0.041626,0.51532,19.3205,17.0386,6.38947,-0.237762,0.508072,0,0,0,-0.546875,0.0078125,60.8219,90199
