raw_accel_x,raw_accel_y,raw_accel_z,raw_gyro_x,raw_gyro_y,raw_gyro_z,world_accel_x,world_accel_y,yaw,x,y,z,left_encoder_rate,right_encoder_rate,left_motor,right_motor,temp,fpga time,navx time
-0.00952148,-0.0169678,1.01514,-0.12207,-0.0610352,-0.12207,0,0,6.04,-0.185059,-0.0769806,0,0,0,0,0,40.26,642.145,1873745
-0.00854492,-0.0187378,1.01428,0,0,-0.0610352,0,-0.001,0,0,0,0,0,0,0,0,40.26,642.161,1873761
-0.00787354,-0.0192871,1.01782,-0.0610352,-0.12207,0,0.001,-0.002,0,0,0,0,0,0,0,0,40.26,642.174,1873775
-0.00891113,-0.0182495,1.01569,-0.12207,-0.12207,0,0,-0.001,0,0,0,0,0,0,0,0,40.26,642.192,1873790
-0.00933838,-0.0166016,1.01605,0,0,-0.12207,0,0,0,0,0,0,0,0,0,0,40.26,642.213,1873805
-0.00769043,-0.0194092,1.01379,0,0,-0.0610352,0.001,-0.002,0,0,0,0,0,0,0,0,40.26,642.233,1873821
-0.0109253,-0.0172119,1.01715,-0.0610352,-0.183105,0,-0.001,0,0,0,0,0,0,0,0,0,40.26,642.254,1873850
-0.00982666,-0.0176392,1.01996,0.0610352,-0.183105,0,0,0,0,0,0,0,0,0,0,0,40.26,642.272,1873865
-0.00909424,-0.0164795,1.01471,-0.12207,-0.0610352,-0.12207,0,0,0,0,0,0,0,0,0,0,40.26,642.294,1873881
-0.00695801,-0.0164795,1.0155,-0.0610352,-0.0610352,-0.12207,0.002,0,0,0,0,0,0,0,0,0,40.26,642.312,1873910
-0.0111694,-0.0182495,1.01361,-0.0610352,-0.12207,0,-0.001,-0.001,0,0,0,0,0,0,0,0,40.26,642.333,1873925
-0.00830078,-0.0158691,1.01587,-0.0610352,-0.183105,-0.0610352,0,0.001,0,0,0,0,0,0,0,0,40.26,642.353,1873955
-0.00921631,-0.0184326,1.01288,-0.12207,-0.0610352,-0.0610352,0,-0.001,0,0,0,0,0,0,0,0,40.26,642.373,1873970
-0.0114136,-0.0194092,1.00885,0,0.0610352,-0.0610352,-0.002,-0.002,0,0,0,0,0,0,0,0,40.26,642.393,1873985
-0.0109253,-0.0163574,1.01825,0,0.0610352,-0.0610352,-0.001,0,0,0,0,0,0,0,0,0,40.27,642.413,1874015
-0.00921631,-0.0169678,1.01636,0.0610352,0,0,0,0,0,0,0,0,0,0,0,0,40.27,642.433,1874030
-0.00994873,-0.0199585,1.01343,0,0.0610352,-0.12207,0,-0.002,0,0,0,0,0,0,0,0,40.27,642.453,1874045
-0.010498,-0.0199585,1.01678,0,0,-0.0610352,-0.001,-0.002,0,0,0,0,0,0,0,0,40.27,642.473,1874061
-0.0098877,-0.0153809,1.01697,-0.0610352,-0.12207,-0.0610352,0,0.001,0,0,0,0,0,0,0,0,40.27,642.494,1874091
-0.010498,-0.0172119,1.01495,-0.0610352,-0.12207,-0.0610352,-0.001,0,0,0,0,0,0,0,0,0,40.27,642.513,1874106
-0.0101318,-0.017395,1.0141,-0.0610352,-0.0610352,-0.0610352,0,0,0,0,0,0,0,0,0,0,40.27,642.533,1874121
-0.00964355,-0.0178833,1.01471,-0.183105,-0.12207,-0.12207,0,0,0,0,0,0,0,0,0,0,40.27,642.553,1874151
-0.0103149,-0.0175171,1.01544,0,0,-0.12207,-0.001,0,0,0,0,0,0,0,0,0,40.27,642.575,1874166
-0.0088501,-0.0203247,1.01501,-0.0610352,-0.0610352,0,0,-0.003,0,0,0,0,0,0,0,0,40.27,642.593,1874196
-0.0115356,-0.0178223,1.01025,0,0,-0.183105,-0.002,0,0,0,0,0,0,0,0,0,40.27,642.613,1874211
-0.00854492,-0.0155029,1.01611,-0.12207,-0.12207,-0.0610352,0,0.001,0,0,0,0,0,0,0,0,40.27,642.633,1874226
-0.00585938,-0.0150146,1.01648,-0.0610352,-0.12207,-0.0610352,0.003,0.002,0,0,0,0,0,0,0,0,40.27,642.654,1874241
-0.00744629,-0.0179443,1.01642,0,0,-0.12207,0.001,0,0,0,0,0,0,0,0,0,40.27,642.673,1874271
-0.00714111,-0.0187988,1.00787,-0.183105,-0.12207,0,0.002,-0.001,0,0,0,0,0,0,0,0,40.27,642.693,1874286
-0.00878906,-0.0161133,1.01453,0,0,0.0610352,0,0,0,0,0,0,0,0,0,0,40.27,642.719,1874316
-0.00671387,-0.0175781,1.00989,-0.0610352,-0.12207,-0.183105,0.002,0,0,0,0,0,0,0,0,0,40.27,642.733,1874331
-0.0106812,-0.017395,1.01544,0,0,0,-0.001,0,0,0,0,0,0,0,0,0,40.27,642.753,1874346
-0.0067749,-0.0166626,1.01068,-0.0610352,-0.12207,-0.12207,0.002,0,0,0,0,0,0,0,0,0,40.27,642.774,1874376
-0.0114746,-0.0149536,1.01556,0.0610352,0.0610352,-0.0610352,-0.002,0.002,0,0,0,0,0,0,0,0,40.27,642.793,1874391
-0.0101318,-0.0194702,1.01593,-0.0610352,-0.0610352,0.0610352,0,-0.002,0,0,0,0,0,0,0,0,40.27,642.815,1874406
-0.00823975,-0.017395,1.01343,-0.0610352,-0.12207,-0.0610352,0.001,0,0,0,0,0,0,0,0,0,40.27,642.833,1874436
-0.00842285,-0.0177002,1.01428,0.0610352,0,0.0610352,0,0,0,0,0,0,0,0,0,0,40.27,642.853,1874451
-0.00976562,-0.0166626,1.01746,-0.0610352,0,-0.0610352,0,0,0,0,0,0,0,0,0,0,40.27,642.874,1874466
-0.010437,-0.019043,1.0105,0,0,0,0,-0.001,-0.01,0,0,0,0,0,0,0,40.27,642.893,1874496
-0.00787354,-0.0170288,1.01459,-0.0610352,-0.12207,-0.12207,0.001,0,-0.01,0,0,0,0,0,0,0,40.27,642.918,1874511
-0.00842285,-0.0213623,1.01526,0,-0.0610352,-0.12207,0.001,-0.004,-0.01,0,0,0,0,0,0,0,40.3,642.934,1874526
-0.0102539,-0.0144653,1.01306,0,0,0,0,0.002,-0.01,0,0,0,0,0,0,0,40.3,642.956,1874556
-0.0098877,-0.0149536,1.01978,-0.12207,-0.12207,-0.12207,0,0.002,-0.01,0,0,0,0,0,0,0,40.3,642.973,1874571
-0.0111084,-0.0144653,1.01733,0,0.0610352,0,-0.001,0.002,-0.01,0,0,0,0,0,0,0,40.3,642.993,1874586
-0.0088501,-0.0200195,1.01886,-0.12207,-0.0610352,0.0610352,0,-0.002,-0.01,0,0,0,0,0,0,0,40.3,643.013,1874601
-0.0127563,-0.0181885,1.0188,-0.0610352,-0.12207,-0.0610352,-0.003,-0.001,-0.01,0,0,0,0,0,0,0,40.3,643.033,1874631
-0.00823975,-0.0181885,1.01263,-0.0610352,-0.12207,0,0.001,-0.001,-0.01,0,0,0,0,0,0,0,40.3,643.052,1874646
-0.00970459,-0.015625,1.01868,0.0610352,0.0610352,0,0,0.001,-0.01,0,0,0,0,0,0,0,40.3,643.074,1874676
-0.00738525,-0.0178223,1.01031,-0.12207,-0.0610352,-0.0610352,0.002,0,-0.01,0,0,0,0,0,0,0,40.3,643.092,1874691
-0.0115967,-0.0182495,1.01202,-0.0610352,-0.12207,-0.0610352,-0.002,-0.001,-0.01,0,0,0,0,0,0,0,40.3,643.112,1874706
-0.00842285,-0.0184326,1.01007,-0.12207,-0.183105,-0.0610352,0.001,-0.001,-0.01,0,0,0,0,0,0,0,40.3,643.132,1874721
-0.00970459,-0.0169678,1.01385,-0.12207,-0.12207,0,0,0,-0.01,0,0,0,0,0,0,0,40.3,643.153,1874751
-0.00830078,-0.0160522,1.01068,-0.12207,-0.0610352,-0.0610352,0.001,0.001,-0.01,0,0,0,0,0,0,0,40.3,643.176,1874766
-0.00866699,-0.0150757,1.01532,-0.0610352,-0.12207,0,0,0.002,-0.01,0,0,0,0,0,0,0,40.3,643.192,1874781
-0.00946045,-0.015686,1.01581,-0.12207,-0.0610352,-0.0610352,0,0.001,-0.01,0,0,0,0,0,0,0,40.3,643.212,1874811
-0.00909424,-0.0164185,1.01392,-0.244141,-0.0610352,-0.0610352,0,0,-0.01,0,0,0,0,0,0,0,40.3,643.232,1874826
-0.00866699,-0.0172729,1.01007,-0.0610352,-0.183105,-0.0610352,0,0,-0.01,0,0,0,0,0,0,0,40.3,643.252,1874841
-0.00769043,-0.0163574,1.01404,-0.0610352,-0.12207,0,0.001,0,-0.01,0,0,0,0,0,0,0,40.3,643.272,1874871
-0.00946045,-0.0160522,1.01483,0,-0.0610352,-0.12207,0,0.001,-0.01,0,0,0,0,0,0,0,40.3,643.293,1874886
-0.00811768,-0.0187988,1.01984,0,0.0610352,-0.0610352,0.001,-0.001,-0.01,0,0,0,0,0,0,0,40.3,643.312,1874901
-0.0100098,-0.0160522,1.01605,0.12207,0,-0.0610352,0,0.001,-0.02,0,0,0,0,0,0,0,40.3,643.333,1874931
-0.00848389,-0.017395,1.01404,-0.0610352,-0.12207,-0.0610352,0,0,-0.02,0,0,0,0,0,0,0,40.3,643.353,1874946
-0.00952148,-0.0171509,1.01251,-0.12207,-0.0610352,-0.0610352,0,0,-0.02,0,0,0,0,0,0,0,40.3,643.373,1874976
-0.00842285,-0.0178833,1.01538,-0.12207,-0.12207,0.0610352,0,0,-0.02,0,0,0,0,0,0,0,40.3,643.393,1874991
-0.0090332,-0.0146484,1.01221,0.0610352,0,0,0,0.002,-0.02,0,0,0,0,0,0,0,40.3,643.414,1875006
-0.0124512,-0.0178833,1.0163,0,0,-0.12207,-0.003,0,-0.02,0,0,0,0,0,0,0,40.3,643.433,1875022
-0.00958252,-0.0184326,1.01538,-0.0610352,-0.12207,-0.0610352,0,-0.001,-0.02,0,0,0,0,0,0,0,40.29,643.452,1875051
-0.00939941,-0.0143433,1.01007,-0.0610352,-0.244141,-0.12207,0,0.002,-0.02,0,0,0,0,0,0,0,40.29,643.475,1875066
-0.00604248,-0.0174561,1.01935,-0.0610352,-0.12207,-0.0610352,0.003,0,-0.02,0,0,0,0,0,0,0,40.29,643.493,1875082
-0.0101318,-0.0176392,1.01538,-0.12207,-0.183105,-0.0610352,0,0,-0.02,0,0,0,0,0,0,0,40.29,643.513,1875111
-0.0114136,-0.0177612,1.01318,-0.12207,-0.0610352,0.0610352,-0.002,0,-0.02,0,0,0,0,0,0,0,40.29,643.533,1875126
-0.0100098,-0.0192871,1.01038,-0.0610352,-0.12207,-0.12207,0,-0.002,-0.02,0,0,0,0,0,0,0,40.29,643.553,1875142
-0.00854492,-0.0175171,1.01654,-0.12207,0.0610352,0.0610352,0,0,-0.02,0,0,0,0,0,0,0,40.29,643.573,1875171
-0.00817871,-0.0185547,1.01703,-0.0610352,-0.12207,-0.12207,0.001,-0.001,-0.02,0,0,0,0,0,0,0,40.29,643.593,1875186
-0.00891113,-0.0177002,1.01215,-0.0610352,-0.0610352,-0.0610352,0,0,-0.02,0,0,0,0,0,0,0,40.29,643.613,1875202
-0.0114136,-0.015564,1.01752,-0.12207,-0.12207,0,-0.001,0.001,-0.02,0,0,0,0,0,0,0,40.29,643.635,1875231
-0.00891113,-0.0163574,1.01068,-0.0610352,-0.183105,0,0,0,-0.02,0,0,0,0,0,0,0,40.29,643.653,1875246
-0.00878906,-0.0186157,1.01544,0,0,-0.0610352,0,-0.001,-0.02,0,0,0,0,0,0,0,40.29,643.673,1875262
-0.00726318,-0.0179443,1.01178,-0.0610352,-0.244141,0,0.002,0,-0.02,0,0,0,0,0,0,0,40.29,643.693,1875291
-0.0113525,-0.0172119,1.01306,-0.0610352,-0.0610352,-0.0610352,-0.001,0,-0.02,0,0,0,0,0,0,0,40.29,643.713,1875306
-0.00518799,-0.0161133,1.01221,-0.183105,0.0610352,-0.12207,0.004,0,-0.02,0,0,0,0,0,0,0,40.29,643.737,1875336
-0.00872803,-0.0181274,1.0166,0,-0.0610352,-0.0610352,0,0,-0.02,0,0,0,0,0,0,0,40.29,643.753,1875351
-0.0103149,-0.017395,1.01288,-0.12207,-0.0610352,-0.183105,0,0,-0.02,0,0,0,0,0,0,0,40.29,643.774,1875366
-0.00585938,-0.0168457,1.01691,0,-0.0610352,0,0.003,0,-0.02,0,0,0,0,0,0,0,40.29,643.793,1875382
-0.00762939,-0.0157471,1.01691,0,0,-0.12207,0.001,0.001,-0.02,0,0,0,0,0,0,0,40.29,643.813,1875411
-0.0101929,-0.0170898,1.01379,-0.0610352,-0.0610352,0,0,0,-0.02,0,0,0,0,0,0,0,40.29,643.834,1875426
-0.00952148,-0.0195312,1.01447,-0.12207,-0.12207,-0.183105,0,-0.002,-0.02,0,0,0,0,0,0,0,40.29,643.853,1875456
-0.010498,-0.0172729,1.01843,-0.0610352,-0.0610352,-0.0610352,-0.001,0,-0.02,0,0,0,0,0,0,0,40.29,643.873,1875471
-0.0065918,-0.0153809,1.01324,-0.0610352,-0.183105,-0.12207,0.002,0.001,-0.02,0,0,0,0,0,0,0,40.29,643.893,1875486
-0.0100098,-0.0169067,1.01093,-0.12207,-0.0610352,0,0,0,-0.02,0,0,0,0,0,0,0,40.29,643.913,1875502
-0.00994873,-0.0158081,1.01282,0,0,0,0,0.001,-0.02,0,0,0,0,0,0,0,40.29,643.933,1875532
-0.00866699,-0.0120239,1.01227,-0.0610352,0,-0.0610352,0,0.005,-0.02,0,0,0,0,0,0,0,40.25,643.952,1875547
-0.00805664,-0.0132446,1.0127,0,0,-0.12207,0.001,0.003,-0.02,0,0,0,0,0,0,0,40.25,643.974,1875577
-0.00805664,-0.0159912,1.00897,-0.0610352,-0.0610352,0,0.001,0,-0.02,0,0,0,0,0,0,0,40.25,643.992,1875592
-0.00830078,-0.0192871,1.01343,-0.0610352,-0.0610352,0,0.001,-0.002,-0.02,0,0,0,0,0,0,0,40.25,644.014,1875607
-0.00842285,-0.0172119,1.01837,-0.12207,-0.12207,-0.12207,0.001,0,-0.02,0,0,0,0,0,0,0,40.25,644.033,1875622
-0.00830078,-0.0172119,1.00928,-0.0610352,-0.12207,-0.0610352,0.001,0,-0.02,0,0,0,0,0,0,0,40.25,644.053,1875652
-0.0115356,-0.0182495,1.01788,-0.0610352,-0.0610352,-0.12207,-0.002,-0.001,-0.02,0,0,0,0,0,0,0,40.25,644.072,1875667
-0.00915527,-0.0178833,1.01306,0,-0.0610352,-0.12207,0,0,-0.02,0,0,0,0,0,0,0,40.25,644.092,1875682
-0.010498,-0.0153198,1.01135,-0.0610352,-0.0610352,-0.0610352,-0.001,0.001,-0.02,0,0,0,0,0,0,0,40.25,644.113,1875712
-0.00872803,-0.0158691,1.01349,-0.0610352,-0.12207,-0.183105,0,0.001,-0.02,0,0,0,0,0,0,0,40.25,644.133,1875727
-0.00622559,-0.0165405,1.01215,-0.0610352,-0.0610352,0,0.003,0,-0.02,0,0,0,0,0,0,0,40.25,644.153,1875742
-0.00915527,-0.0180664,1.01782,-0.0610352,-0.0610352,-0.0610352,0,0,-0.02,0,0,0,0,0,0,0,40.25,644.173,1875772
-0.00482178,-0.0154419,1.01392,-0.12207,-0.0610352,0,0.004,0.001,-0.02,0,0,0,0,0,0,0,40.25,644.194,1875787
-0.0098877,-0.0180054,1.0155,0,0,-0.183105,0,0,-0.02,0,0,0,0,0,0,0,40.25,644.213,1875802
-0.0078125,-0.0193481,1.0188,-0.12207,-0.0610352,-0.0610352,0.001,-0.002,-0.02,0,0,0,0,0,0,0,40.25,644.234,1875832
-0.0122681,-0.0172729,1.0141,-0.0610352,-0.0610352,0.0610352,-0.002,0,-0.02,0,0,0,0,0,0,0,40.25,644.253,1875847
-0.0120239,-0.0177002,1.0224,-0.0610352,-0.0610352,0,-0.002,0,-0.02,0,0,0,0,0,0,0,40.25,644.273,1875862
-0.0055542,-0.0172729,1.01178,-0.0610352,-0.0610352,-0.0610352,0.003,0,-0.02,0,0,0,0,0,0,0,40.25,644.293,1875892
-0.00769043,-0.0160522,1.01453,0.0610352,0,-0.183105,0.001,0,-0.02,0,0,0,0,0,0,0,40.25,644.314,1875907
-0.0118408,-0.0766602,1.03485,-1.83105,-0.12207,0.183105,-0.002,-0.058,-0.02,0,-0.000106812,0,0,0,0,0,40.25,644.337,1875937
-0.0199585,-0.0343628,1.01404,-2.44141,-0.12207,-0.427246,-0.01,-0.015,-0.02,0,-0.000244141,0,0,0,0,0,40.25,644.353,1875952
0.0045166,-0.00231934,0.988953,-0.366211,-0.183105,-0.488281,0.013,0.016,-0.01,0,-0.000244141,0,0,0,0,0,40.25,644.376,1875967
-0.00872803,-0.0360107,1.02795,2.31934,-0.12207,0.0610352,0,-0.017,0,0,-0.000274658,0,0,0,0,0,40.25,644.394,1875997
-0.00311279,-0.0318604,1.02216,1.64795,0,-0.427246,0.006,-0.013,0,0,-0.000335693,0,0,0,0,0,40.25,644.413,1876012
-0.0128174,-0.0236206,1.01953,0.610352,-0.12207,-1.15967,-0.003,-0.005,0,0,-0.000335693,0,0,0,0,0,40.25,644.433,1876027
-0.0153809,-0.0142822,1.01685,-0.854492,-0.183105,-2.0752,-0.006,0.004,0.02,0,-0.000335693,0,0,0,0,0,40.25,644.454,1876042
-0.0112915,-0.00152588,1.00775,-0.915527,-0.244141,-0.915527,-0.002,0.017,0.07,0,-0.000335693,0,0,0,0,0,40.27,644.474,1876072
-0.00976562,0.00750732,1.00696,-0.0610352,-0.0610352,-0.610352,0,0.025,0.07,0,-0.000305176,0,0,0,0,0,40.27,644.492,1876087
0.00549316,-0.0333862,1.00836,0.549316,-0.183105,0.610352,0.014,-0.015,0.07,0,-0.000274658,0,0,0,0,0,40.27,644.513,1876102
-0.00665283,-0.0369263,1.01569,-1.2207,-0.305176,6.04248,0.002,-0.017,-0.06,0,-0.000289917,0,0,0,0,0,40.27,644.533,1876132
0.0106201,-0.00769043,1.00446,-0.549316,0.12207,8.05664,0.019,0.011,-0.16,0,-0.000320435,0,0,0,0,0,40.27,644.556,1876147
-0.0159302,-0.0272217,1.00751,-0.0610352,0,10.7422,-0.006,-0.008,-0.32,0,-0.000320435,0,0,0,0,0,40.27,644.573,1876162
0.00323486,-0.019104,1.01324,-0.366211,0.0610352,13.0005,0.012,0,-0.69,0,-0.00038147,0,0,0,0,0,40.27,644.594,1876192
-0.0128784,-0.00946045,1.00555,-0.12207,0.12207,13.7329,-0.003,0.01,-0.89,0,-0.000411987,0,0,0,0,0,40.27,644.613,1876207
-0.0123901,-0.0275879,1.01331,-0.12207,-0.183105,13.5498,-0.002,-0.007,-1.1,0,-0.000411987,0,0,0,0,0,40.27,644.634,1876222
-0.0151978,-0.0134888,1.00488,-0.427246,-0.244141,10.6201,-0.005,0.006,-1.44,0,-0.000411987,0,0,0,0,0,40.27,644.653,1876252
-0.0161743,0.00970459,1.00989,0,-0.427246,9.39941,-0.007,0.029,-1.6,0,-0.00038147,0,0,0,0,0,40.27,644.674,1876267
-0.0169678,-0.0372314,1.0036,0.244141,-0.549316,8.48389,-0.006,-0.018,-1.85,0,-0.000289917,0,0,0,0,0,40.27,644.696,1876297
-0.0065918,-0.019104,1.0163,0,-0.671387,8.66699,0.003,0,-1.98,0,-0.000289917,0,0,0,0,0,40.27,644.714,1876312
-0.00476074,-0.0313721,1.01581,-0.366211,-0.549316,9.27734,0.005,-0.011,-2.12,0,-0.000289917,0,0,0,0,0,40.27,644.733,1876327
-0.012146,-0.0360107,1.0152,-0.427246,-0.549316,10.6201,-0.002,-0.016,-2.27,0,-0.000289917,0,0,0,0,0,40.27,644.753,1876342
0.00140381,-0.0192871,1.00195,0.0610352,-0.12207,12.085,0.01,0,-2.62,0,-0.000289917,0,0,0,0,0,40.27,644.773,1876372
-0.003479,-0.0177002,1.0177,0.244141,-0.12207,12.4512,0.005,0.002,-2.81,0,-0.000289917,0,0,0,0,0,40.27,644.793,1876387
-0.0108032,-0.0435181,1.0202,-0.366211,-0.0610352,12.6953,0,-0.023,-3,0,-0.000305176,0,0,0,0,0,40.27,644.814,1876403
-0.00146484,-0.00183105,1.01477,-0.366211,-0.12207,13.0005,0.006,0.018,-3.39,0,-0.000335693,0,0,0,0,0,40.27,644.833,1876432
-0.0112915,-0.0112305,1.00641,-0.0610352,-0.0610352,12.6953,-0.002,0.008,-3.58,0,-0.000335693,0,0,0,0,0,40.27,644.853,1876447
-0.0163574,-0.00408936,1.00488,0.12207,-0.305176,11.7187,-0.007,0.014,-3.77,0,-0.000335693,0,0,0,0,0,40.27,644.873,1876463
-0.0162964,-0.0253296,1.02209,-0.0610352,-0.488281,10.0708,-0.006,-0.006,-4.09,0,-0.000335693,0,0,0,0,0,40.27,644.893,1876492
-0.0109863,-0.0216675,1.01459,-0.305176,-0.793457,9.76562,-0.001,-0.002,-4.24,0,-0.000335693,0,0,0,0,0,40.27,644.913,1876507
-0.00720215,-0.0181274,1.01202,-0.0610352,-0.549316,10.1318,0.002,0.001,-4.39,0,-0.000335693,0,0,0,0,0,40.27,644.932,1876523
-0.000976562,-0.0128174,1.01196,0.244141,-0.549316,11.3525,0.007,0.006,-4.71,0,-0.000335693,0,0,0,0,0,40.27,644.953,1876552
-0.00909424,-0.0247803,1.01532,0.183105,-0.488281,11.4746,0,-0.005,-4.89,0,-0.000335693,0,0,0,0,0,40.27,644.972,1876567
-0.0098877,-0.0354614,1.02136,-0.0610352,-0.244141,11.6577,0,-0.016,-5.06,0,-0.000335693,0,0,0,0,0,40.27,644.993,1876583
0.00292969,-0.123047,1.02557,-2.92969,-0.244141,13.2446,0.021,-0.1,-5.44,1.52588e-05,-0.000427246,0,0,0,0,0,40.27,645.013,1876612
-0.0239868,0.0117798,0.983643,-3.05176,-0.183105,13.977,-0.018,0.031,-5.64,4.57764e-05,-0.000549316,0,0,0,0,0,40.27,645.034,1876627
0.00219727,0.0022583,0.973206,0.0610352,-0.183105,12.8174,0.008,0.024,-5.84,6.10352e-05,-0.000640869,0,0,0,0,0,40.27,645.053,1876643
-0.0220947,-0.108337,1.03503,0.976562,-0.488281,13.2446,-0.002,-0.087,-6.22,6.10352e-05,-0.000915527,0,0,0,0,0,40.27,645.073,1876672
-0.0308228,-0.0557861,1.01483,-0.732422,-0.488281,13.7939,-0.017,-0.035,-6.43,6.10352e-05,-0.00117493,0,0,0,0,0,40.27,645.092,1876687
-0.0172119,-0.0230713,1.00433,-0.549316,-0.854492,15.1978,-0.007,-0.001,-6.65,6.10352e-05,-0.00146484,0,0,0,0,0,40.27,645.113,1876703
-0.0252686,-0.0218506,1.00433,-0.0610352,-0.854492,15.5029,-0.015,-0.001,-7.12,6.10352e-05,-0.00209045,0,0,0,0,0,40.27,645.134,1876732
-0.00598145,-0.00579834,1.02161,1.0376,-0.976562,15.3198,0.001,0.017,-7.35,6.10352e-05,-0.00239563,0,0,0,0,0,40.27,645.156,1876747
0.00567627,-0.0301514,1.02081,1.64795,-0.732422,14.8315,0.015,-0.006,-7.57,6.10352e-05,-0.00239563,0,0,0,0,0,40.27,645.173,1876763
0.0140991,-0.124023,1.02795,-3.11279,-1.15967,15.3809,0.036,-0.095,-8.05,9.15527e-05,-0.00257874,0,0,0,0,0,40.27,645.193,1876792
0.00695801,0.0249634,0.993652,-4.94385,-0.732422,14.8926,0.008,0.051,-8.28,0.000137329,-0.00274658,0,0,0,0,0,40.27,645.212,1876807
-0.00445557,0.0306396,0.95575,-2.01416,-0.854492,13.0615,-0.004,0.054,-8.49,0.000198364,-0.00285339,0,0,0,0,0,40.27,645.233,1876823
-0.0162354,-0.12616,1.06342,2.0752,0.244141,8.78906,0.008,-0.099,-8.79,0.000198364,-0.0030365,0,0,0,0,0,40.27,645.253,1876852
-0.0146484,-0.0626831,0.973206,0.305176,-0.0610352,7.50732,0,-0.039,-8.91,0.000198364,-0.00325012,0,0,0,0,0,40.27,645.274,1876867
-0.0406494,-0.0788574,1.04419,0.610352,0,10.5591,-0.022,-0.056,-9.05,0.000183105,-0.00354004,0,0,0,0,0,40.27,645.293,1876883
-0.0474243,-0.0582275,0.985718,0.610352,-0.366211,12.146,-0.033,-0.039,-9.41,0.000137329,-0.00416565,0,0,0,0,0,40.27,645.313,1876912
-0.012085,0.00866699,0.997437,1.34277,-1.34277,15.5029,-0.009,0.032,-9.62,7.62939e-05,-0.00450134,0,0,0,0,0,40.27,645.333,1876928
-0.0012207,-0.0458374,1.03271,0.610352,-0.427246,14.4653,0.01,-0.018,-9.85,1.52588e-05,-0.00482178,0,0,0,0,0,40.27,645.353,1876943
-0.00390625,-0.117493,1.02594,-1.83105,-1.2207,17.6392,0.02,-0.089,-10.32,3.05176e-05,-0.00566101,0,0,0,0,0,40.27,645.375,1876973
0.0128784,0.00299072,1.05212,-2.80762,-0.183105,15.5029,0.015,0.034,-10.57,7.62939e-05,-0.00616455,0,0,0,0,0,40.27,645.393,1876988
0.00201416,-0.0200195,0.991577,-1.58691,-0.976562,15.9912,0.008,0.007,-10.8,0.000137329,-0.00663757,0,0,0,0,0,40.27,645.413,1877003
-0.00299072,-0.13385,1.01642,1.0376,-0.244141,12.8174,0.025,-0.104,-11.24,0.000167847,-0.00753784,0,0,0,0,0,40.27,645.433,1877033
-0.0067749,-0.0178833,1.06543,0.488281,-0.0610352,11.5356,0,0.01,-11.43,0.000213623,-0.0080719,0,0,0,0,0,40.27,645.455,1877048
-0.010498,-0.11145,0.993408,0.671387,0.305176,10.376,0.014,-0.083,-11.75,0.000350952,-0.00912476,0,0,0,0,0,40.26,645.48,1877078
-0.0396729,-0.0255127,1.08441,1.77002,-0.305176,11.4746,-0.031,-0.003,-11.92,0.000427246,-0.00973511,0,0,0,0,0,40.26,645.493,1877093
-0.0298462,-0.0653687,1.05334,1.52588,-0.12207,11.4746,-0.012,-0.041,-12.1,0.000473022,-0.010376,0,0,0,0,0,40.26,645.515,1877108
-0.0515747,-0.159058,1.02997,0,0,12.5732,-0.013,-0.138,-12.28,0.000488281,-0.0111389,0,0,0,0,0,40.26,645.533,1877123
-0.0350342,-0.003479,1.01825,0.366211,-0.610352,14.8926,-0.031,0.016,-12.68,0.000473022,-0.0127869,0,0,0,0,0,40.26,645.553,1877153
-0.00164795,-0.00848389,1.00244,-0.183105,-0.976562,15.7471,0.002,0.018,-12.93,0.000442505,-0.0135651,0,0,0,0,0,40.26,645.573,1877168
0.0377197,0.00793457,0.976746,-0.976562,-0.671387,14.7705,0.036,0.042,-13.15,0.000442505,-0.0143127,0,0,0,0,0,40.26,645.593,1877183
-0.00299072,0.0160522,1.00488,0.0610352,-0.610352,14.2212,-0.004,0.041,-13.59,0.000411987,-0.015564,0,0,0,0,0,40.26,645.613,1877213
0.0279541,-0.0351562,0.97345,0.488281,0.12207,14.3433,0.037,-0.002,-13.8,0.000396729,-0.0161133,0,0,0,0,0,40.26,645.633,1877228
0.00579834,-0.0263062,1.06097,0.366211,-0.549316,15.3198,0.013,0.002,-14.03,0.000427246,-0.0166779,0,0,0,0,0,40.26,645.654,1877243
0.024292,0.0115967,0.941895,-2.13623,-0.915527,13.7329,0.021,0.042,-14.49,0.000473022,-0.0166626,0,0,0,0,0,40.26,645.673,1877273
-0.00366211,0.00805664,1.02301,0.183105,-0.854492,13.3667,-0.004,0.034,-14.69,0.00050354,-0.0165863,0,0,0,0,0,40.26,645.693,1877288
-0.00323486,-0.192261,1.08344,-1.40381,-0.671387,13.3667,0.047,-0.157,-14.9,0.000579834,-0.0166016,0,0,0,0,0,40.26,645.713,1877303
-0.0343628,-0.00512695,1.01068,-0.244141,-0.915527,9.27734,-0.032,0.015,-15.26,0.000732422,-0.0169678,0,0,0,0,0,40.26,645.737,1877333
0.00531006,-0.00189209,1.02069,1.89209,-0.549316,9.82666,0.005,0.028,-15.4,0.000778198,-0.0171204,0,0,0,0,0,40.26,645.752,1877348
-0.00756836,0.0321655,0.936035,3.479,-1.34277,9.46045,-0.016,0.055,-15.54,0.000823975,-0.0172272,0,0,0,0,0,40.26,645.772,1877363
0.0261841,-0.00891113,1.07104,1.09863,-0.488281,10.2539,0.026,0.027,-15.8,0.000839233,-0.0175781,0,0,0,0,0,40.26,645.793,1877393
0.00823975,-0.0393677,0.928284,-0.0610352,-1.09863,11.6577,0.017,-0.01,-15.98,0.00088501,-0.0177612,0,0,0,0,0,40.26,645.813,1877408
-0.00463867,0.00921631,0.941833,-0.0610352,-0.427246,12.2681,-0.008,0.032,-16.16,0.000946045,-0.0179443,0,0,0,0,0,40.26,645.833,1877423
0.0280762,0.0498047,0.953003,-1.28174,-1.34277,12.207,0.011,0.081,-16.55,0.000946045,-0.0180359,0,0,0,0,0,40.26,645.853,1877453
0.0476685,-0.0109253,0.901306,-0.488281,-0.366211,12.2681,0.048,0.027,-16.72,0.000991821,-0.0179443,0,0,0,0,0,40.26,645.873,1877468
0.0335693,0.208618,1.00342,0.732422,-0.915527,11.2305,-0.029,0.235,-16.91,0.0010376,-0.0176849,0,0,0,0,0,40.26,645.893,1877483
0.0349731,0.0274048,0.980286,1.46484,0.366211,14.4653,0.025,0.061,-17.29,0.00109863,-0.0168304,0,0,0,0,0,40.26,645.913,1877513
-0.0186768,-0.0200806,0.951416,0.366211,-0.0610352,14.5874,-0.011,-0.001,-17.51,0.00114441,-0.0163422,0,0,0,0,0,40.26,645.933,1877528
-0.0160522,-0.0352783,1.04474,0.0610352,-1.15967,14.9536,-0.004,-0.012,-17.74,0.00117493,-0.0158691,0,0,0,0,0,40.26,645.952,1877543
0.0065918,0.0186768,0.928955,-1.0376,-1.40381,16.9067,0,0.042,-18.25,0.00120544,-0.0148773,0,0,0,0,0,40.26,645.974,1877573
-0.00152588,0.019165,0.963379,-1.46484,-1.40381,18.1274,-0.007,0.041,-18.51,0.00120544,-0.0142975,0,0,0,0,0,40.26,645.995,1877588
-0.0137329,0.104248,1.03473,-0.915527,-1.28174,16.7847,-0.046,0.12,-18.77,0.00115967,-0.0135956,0,0,0,0,0,40.26,646.013,1877603
0.0491333,0.0148926,1.01733,-0.610352,-0.610352,16.4185,0.04,0.055,-19.28,0.00111389,-0.0119476,0,0,0,0,0,40.26,646.033,1877633
-0.0185547,-0.0516968,1.03717,-0.549316,-0.12207,15.0146,-0.001,-0.029,-19.51,0.00114441,-0.0110626,0,0,0,0,0,40.26,646.054,1877648
0.0193481,0.00115967,0.987061,-0.427246,-1.0376,14.4043,0.016,0.031,-19.73,0.00119019,-0.0101929,0,0,0,0,0,40.26,646.073,1877663
0.0164795,-0.0213623,1.00067,-1.77002,-0.427246,15.9912,0.02,0.01,-20.18,0.00135803,-0.00813293,0,0,0,0,0,40.26,646.093,1877693
-0.0291138,-0.133423,1.0625,-0.732422,0.0610352,16.2964,0.016,-0.108,-20.42,0.00149536,-0.00712585,0,0,0,0,0,40.26,646.114,1877708
-0.116638,-0.0672607,1.05609,-0.427246,1.15967,17.8223,-0.087,-0.077,-20.68,0.00158691,-0.00624084,0,0,0,0,0,40.26,646.134,1877723
0.0142822,-0.128235,1.03723,-0.671387,0.305176,20.2026,0.057,-0.087,-21.24,0.00172424,-0.00466919,0,0,0,0,0,40.26,646.155,1877753
0.000854492,0.0661011,1.00403,-1.09863,-0.854492,22.583,-0.026,0.088,-21.57,0.00184631,-0.00392151,0,0,0,0,0,40.26,646.174,1877768
-0.00701904,-0.0767212,1.00647,1.09863,-1.09863,23.1934,0.019,-0.047,-21.91,0.00195312,-0.00314331,0,0,0,0,0,40.26,646.195,1877783
-0.0259399,-0.0480957,1.01056,-0.12207,-1.09863,29.9683,-0.008,-0.028,-22.76,0.00227356,-0.00180054,0,0,0,0,0,40.26,646.213,1877813
-0.000915527,-0.0498657,1.04816,-0.427246,0.183105,31.3721,0.015,-0.019,-23.22,0.00245667,-0.00119019,0,0,0,0,0,40.26,646.234,1877828
0.0374146,0.104065,0.98584,-1.2207,-2.19727,33.0811,-0.011,0.135,-23.71,0.00245667,-0.00050354,0,0,0,0,0,40.26,646.254,1877844
-0.00268555,0.0355225,1.01025,-1.28174,-1.34277,34.5459,-0.021,0.057,-24.73,0.00242615,0.00114441,0,0,0,0,0,40.26,646.273,1877873
0.0106812,-0.0119019,1.01007,-0.12207,-1.34277,35.5225,0.009,0.019,-25.78,0.00228882,0.00315857,0,0,0,0,0,40.26,646.308,1877904
0.0266724,-0.0228271,1.00482,-0.427246,-1.40381,32.959,0.028,0.016,-26.29,0.00224304,0.00315857,0,0,0,0,0,40.26,646.318,1877918
0.0482178,-0.00976562,1.03943,-2.31934,-2.13623,32.0435,0.041,0.038,-26.77,0.00224304,0.00318909,0,0,0,0,0,40.26,646.334,1877933
-0.0484619,0.013916,0.96521,-0.244141,-1.77002,31.7383,-0.055,0.013,-27.25,0.00222778,0.00326538,0,0,0,0,0,40.26,646.353,1877948
0.0111084,0.000549316,1.03363,0.732422,-0.976562,31.4941,0.002,0.03,-27.74,0.00216675,0.00337219,0,0,0,0,0,40.26,646.373,1877964
0.0055542,-0.0264893,1.01556,-0.305176,-1.34277,30.7007,0.01,0.003,-28.68,0.00213623,0.00358582,0,0,0,0,0,40.26,646.402,1877993
0.0114746,0.00274658,0.979553,-0.183105,-0.793457,30.1514,0.001,0.031,-29.12,0.00213623,0.00370789,0,0,0,0,0,40.26,646.413,1878008
0.0280762,-0.0384521,1.00604,-0.671387,-1.83105,30.0903,0.035,0.004,-29.58,0.00215149,0.00386047,0,0,0,0,0,40.26,646.432,1878024
0.0396118,0.0576172,0.965454,-0.793457,-1.58691,30.7007,-0.003,0.092,-30.5,0.00219727,0.00427246,0,0,0,0,0,40.26,646.454,1878053
0.0111694,0.0148315,0.995667,-0.366211,-1.77002,30.9448,-0.007,0.041,-30.96,0.00219727,0.00462341,0,0,0,0,0,40.26,646.472,1878068
-0.0370483,-0.0698853,1.05145,-0.793457,-0.671387,31.0059,-0.004,-0.054,-31.43,0.00219727,0.00495911,0,0,0,0,0,40.26,646.493,1878084
0.0689697,0.118042,0.949646,-1.15967,-1.95312,32.0435,-0.014,0.158,-32.36,0.00213623,0.0057373,0,0,0,0,0,40.26,646.512,1878113
0.0533447,0.00524902,1.02954,-1.09863,-1.95312,31.8603,0.032,0.056,-32.84,0.00210571,0.0063324,0,0,0,0,0,40.26,646.533,1878128
-0.0305786,-0.0129395,0.955261,-1.64795,-1.15967,31.311,-0.027,-0.006,-33.79,0.0020752,0.00759888,0,0,0,0,0,40.26,646.556,1878158
0.00262451,0.062561,0.989075,0.244141,-1.89209,31.9824,-0.043,0.075,-34.26,0.00201416,0.008255,0,0,0,0,0,40.26,646.572,1878173
-0.0216064,0.0670166,1.02936,-0.0610352,-1.58691,32.2876,-0.067,0.065,-34.74,0.00186157,0.0090332,0,0,0,0,0,40.26,646.593,1878188
-0.00872803,-0.0595703,0.92749,-0.549316,-2.19727,30.3955,0.016,-0.033,-35.2,0.00167847,0.0098114,0,0,0,0,0,40.26,646.613,1878204
-0.012146,-0.0270386,1.0528,-0.12207,-1.95312,29.4189,-0.006,-0.007,-36.12,0.00151062,0.0115509,0,0,0,0,0,40.26,646.633,1878233
-0.0166626,0.0164185,0.997864,0.976562,-0.610352,29.7241,-0.034,0.023,-36.57,0.0014801,0.0124664,0,0,0,0,0,40.26,646.653,1878248
0.0628662,0.0553589,1.0188,1.15967,-1.34277,29.541,0.004,0.102,-37.02,0.00143433,0.0134583,0,0,0,0,0,40.26,646.673,1878264
-0.00366211,0.0785522,0.966125,-0.610352,-1.83105,28.8086,-0.063,0.078,-37.89,0.00134277,0.0155945,0,0,0,0,0,40.26,646.693,1878293
0.0314941,-0.14032,1.0379,-1.95312,-1.70898,27.9541,0.097,-0.069,-38.31,0.00131226,0.0166931,0,0,0,0,0,40.26,646.714,1878308
-0.0177612,-0.131165,1.0387,-3.96728,0,27.5269,0.052,-0.091,-38.73,0.00138855,0.0176697,0,0,0,0,0,40.26,646.733,1878324
0.0167236,-0.038147,1.00531,1.95312,0.732422,25.0244,0.021,0.002,-39.5,0.00152588,0.0185852,0,0,0,0,0,40.26,646.754,1878354
0.0255737,-0.0905762,1.0481,2.86865,0.0610352,24.7803,0.061,-0.031,-39.88,0.00164795,0.0185547,0,0,0,0,0,40.26,646.773,1878369
-0.0098877,-0.160889,1.05273,1.77002,-0.183105,24.6582,0.079,-0.107,-40.25,0.00186157,0.0184479,0,0,0,0,0,40.26,646.793,1878384
0.00213623,-0.0673828,1.04608,0,-1.09863,28.9917,0.029,-0.027,-41.05,0.00228882,0.0181122,0,0,0,0,0,40.26,646.813,1878414
-0.0595093,-0.0454102,1.0509,0,-1.64795,30.4565,-0.031,-0.051,-41.51,0.00248718,0.0178986,0,0,0,0,0,40.26,646.833,1878429
-0.0688477,-0.039978,0.985474,-0.610352,-1.70898,30.3955,-0.04,-0.055,-41.97,0.00262451,0.0176086,0,0,0,0,0,40.26,646.853,1878444
0.0253296,0.0471802,1.04309,1.09863,-2.19727,30.5786,-0.031,0.071,-42.9,0.00283813,0.0171509,0,0,0,0,0,40.26,646.873,1878474
0.00201416,-0.0788574,1.05701,2.56348,-1.46484,28.6865,0.037,-0.037,-43.34,0.00292969,0.0169983,0,0,0,0,0,40.26,646.893,1878489
0.0150146,0.0194092,1.02777,1.28174,-0.915527,29.8462,-0.02,0.042,-43.78,0.0030365,0.016861,0,0,0,0,0,40.26,646.913,1878504
0.0378418,-0.0281982,1.04663,0.305176,0.610352,30.0293,0.028,0.023,-44.68,0.00323486,0.0167694,0,0,0,0,0,40.26,646.936,1878534
0.0203247,-0.00561523,1.07312,-0.976562,0.549316,29.541,0,0.027,-45.12,0.00335693,0.0167847,0,0,0,0,0,40.26,646.954,1878549
0.00793457,0.0350952,0.970032,-1.28174,0.793457,30.4565,-0.036,0.046,-45.58,0.00344849,0.016861,0,0,0,0,0,40.26,646.973,1878564
-0.0460815,-0.126404,1.1701,-0.305176,1.40381,29.541,0.038,-0.101,-46.47,0.00369263,0.016983,0,0,0,0,0,40.26,646.993,1878594
-0.0288696,-0.0762939,1.03046,-0.549316,0.610352,31.311,0.017,-0.056,-46.93,0.00387573,0.0168915,0,0,0,0,0,40.27,647.014,1878609
-0.0146484,-0.109253,0.987366,0.610352,-0.0610352,31.189,0.053,-0.069,-47.39,0.00410461,0.0167236,0,0,0,0,0,40.27,647.034,1878624
0.0221558,-0.0471191,1.08698,-0.244141,-2.68555,31.6772,0.03,0.002,-48.33,0.00456238,0.0163116,0,0,0,0,0,40.27,647.053,1878654
-0.0130615,-0.227173,1.01648,-2.19727,-0.244141,33.1421,0.144,-0.144,-48.82,0.00491333,0.0160217,0,0,0,0,0,40.27,647.073,1878669
0.0404663,0.0279541,1.01569,0.976562,-1.34277,32.7759,-0.013,0.064,-49.31,0.00534058,0.0156708,0,0,0,0,0,40.27,647.093,1878684
-0.0141602,-0.00543213,0.939087,0.488281,-2.19727,33.3252,-0.022,-0.001,-50.28,0.00610352,0.0151978,0,0,0,0,0,40.27,647.117,1878714
0.0519409,-0.0111694,1.05017,1.0376,-0.976562,32.2876,0.021,0.046,-50.77,0.00646973,0.0150146,0,0,0,0,0,40.27,647.134,1878729
-0.00744629,-0.0111084,1.01721,0.976562,-0.793457,31.7383,-0.015,0,-51.25,0.00683594,0.0148621,0,0,0,0,0,40.27,647.153,1878744
0.0521851,0.0646973,0.930237,0.366211,-0.915527,32.5317,-0.036,0.091,-52.22,0.00759888,0.0146637,0,0,0,0,0,40.27,647.174,1878774
-0.0585327,-0.074646,1.08472,1.0376,-0.12207,32.6538,0.003,-0.079,-52.71,0.00798035,0.0146179,0,0,0,0,0,40.27,647.193,1878789
0.0140381,0.00946045,0.881287,-0.976562,-1.89209,32.959,-0.016,0.026,-53.69,0.0085907,0.0144653,0,0,0,0,0,40.27,647.218,1878819
0.0203247,-0.0421143,1.10352,-1.28174,-0.305176,33.6304,0.024,0.003,-54.19,0.00888062,0.0144348,0,0,0,0,0,40.27,647.233,1878834
0.0043335,0.0818481,1.05304,0.0610352,-1.52588,31.5552,-0.084,0.061,-54.68,0.00914001,0.0144348,0,0,0,0,0,40.27,647.253,1878849
-0.0204468,-0.0445557,0.946106,0,-1.58691,31.6162,0.006,-0.033,-55.15,0.00933838,0.0144653,0,0,0,0,0,40.27,647.273,1878864
0.0380249,0.0665894,1.04584,0.976562,-1.95312,29.2969,-0.054,0.077,-56.06,0.0092926,0.0145874,0,0,0,0,0,40.27,647.293,1878894
-0.0606079,-0.0586548,1.05066,0.976562,-0.915527,29.0527,-0.005,-0.074,-56.5,0.00921631,0.014679,0,0,0,0,0,40.27,647.314,1878909
0.0531616,-0.00372314,0.92804,1.40381,-1.28174,31.189,0.013,0.049,-56.95,0.00914001,0.0147552,0,0,0,0,0,40.27,647.333,1878924
-0.0546265,-0.0519409,0.97406,1.2207,-2.56348,30.4565,-0.003,-0.067,-57.85,0.00881958,0.0151215,0,0,0,0,0,40.27,647.354,1878954
0.0235596,0.0426025,0.98877,2.44141,-2.31934,31.8603,-0.042,0.048,-58.33,0.00860596,0.0153046,0,0,0,0,0,40.27,647.376,1878969
0.0119629,-0.0285645,0.954102,1.0376,-1.95312,31.25,0.013,0,-58.81,0.00836182,0.0155029,0,0,0,0,0,40.27,647.393,1878984
0.0307617,0.055481,0.953796,1.52588,-2.50244,31.6162,-0.049,0.057,-59.75,0.00785828,0.0158997,0,0,0,0,0,40.27,647.413,1879014
0.0157471,-0.0227051,1.01984,1.09863,-1.95312,31.3721,0.009,0.004,-60.69,0.00732422,0.0161438,0,0,0,0,0,40.27,647.442,1879044
0.0157471,-0.0227051,1.01984,1.09863,-1.95312,31.3721,0.009,0.004,-60.69,0.00732422,0.0161438,0,0,0,0,0,40.27,647.453,1879044
0.0421143,0.0183716,0.950562,1.15967,-0.976562,31.3721,-0.012,0.046,-61.61,0.00675964,0.0161896,0,0,0,0,0,40.27,647.473,1879074
0.00183105,-0.0258789,1.01404,0.915527,-0.854492,31.5552,0.006,-0.01,-62.09,0.00643921,0.0162506,0,0,0,0,0,40.27,647.493,1879089
0.00366211,-0.0147705,1.0799,0.244141,-0.549316,30.3345,-0.003,-0.003,-62.56,0.00643921,0.0162964,0,0,0,0,0,40.27,647.513,1879104
0.0175781,0.0100098,0.952209,-0.183105,-0.732422,31.7383,-0.016,0.019,-63.5,0.00643921,0.0162964,0,0,0,0,0,40.29,647.533,1879134
-0.00866699,0.0167236,1.09381,-0.427246,-0.366211,31.9824,-0.037,0,-63.98,0.00640869,0.0162964,0,0,0,0,0,40.29,647.552,1879149
-0.00933838,0.0413818,0.943848,1.52588,-1.28174,33.6304,-0.056,0.007,-64.97,0.0062561,0.0162964,0,0,0,0,0,40.29,647.575,1879179
0.0356445,-0.0662231,0.991455,1.0376,-1.0376,32.5317,0.059,0.002,-65.46,0.00614929,0.0162964,0,0,0,0,0,40.29,647.593,1879194
0.0216064,-0.0228882,1.07599,0.0610352,-1.28174,34.79,0.012,0.008,-65.98,0.00610352,0.0162964,0,0,0,0,0,40.29,647.613,1879209
0.0065918,-0.00482178,0.984009,0.12207,-1.34277,33.6304,-0.008,0.001,-66.49,0.00610352,0.0162964,0,0,0,0,0,40.29,647.632,1879225
0.0332031,-0.0209351,1.12103,-0.12207,-0.12207,32.7148,0.014,0.018,-67.5,0.00610352,0.0163879,0,0,0,0,0,40.29,647.653,1879254
0.0032959,0.0170288,1.0033,-0.488281,-1.28174,33.5693,-0.03,0.005,-68,0.00608826,0.0164795,0,0,0,0,0,40.29,647.672,1879269
0.0118408,-0.0374756,0.950256,-0.793457,-0.0610352,32.4707,0.024,-0.007,-68.49,0.006073,0.0164795,0,0,0,0,0,40.29,647.693,1879285
0.0645752,0.0130615,0.997742,-0.976562,-0.0610352,32.959,-0.005,0.06,-68.97,0.006073,0.01651,0,0,0,0,0,40.29,647.712,1879299
0.00305176,0.0527344,0.956482,-1.0376,-0.0610352,33.02,-0.064,0.016,-69.96,0.00602722,0.0166626,0,0,0,0,0,40.29,647.732,1879329
0.00848389,-0.00866699,0.987061,-1.52588,0.244141,32.1655,-0.005,0,-70.45,0.00593567,0.0166626,0,0,0,0,0,40.29,647.752,1879345
-0.0355225,0.0264282,1.01691,-2.92969,-0.12207,33.3252,-0.054,-0.029,-71.44,0.00566101,0.0167236,0,0,0,0,0,40.29,647.773,1879374
0.0217285,0.0261841,0.959473,-2.86865,-1.64795,33.2031,-0.036,0.024,-71.93,0.00543213,0.0167389,0,0,0,0,0,40.29,647.792,1879389
-0.0239868,-0.0229492,1.03815,-2.68555,-1.58691,32.959,-0.005,-0.034,-72.43,0.00518799,0.0167542,0,0,0,0,0,40.29,647.812,1879405
-0.0012207,-0.0875244,1.07471,-2.13623,-1.83105,32.959,0.061,-0.031,-73.43,0.0045929,0.0167542,0,0,0,0,0,40.29,647.837,1879434
0.0236206,-0.0610352,1.01752,-1.64795,-1.58691,31.9824,0.044,0,-73.91,0.00436401,0.0167236,0,0,0,0,0,40.29,647.853,1879449
-0.012146,0.00665283,0.962219,-0.488281,-2.19727,31.5552,-0.029,-0.015,-74.39,0.00416565,0.0166931,0,0,0,0,0,40.29,647.873,1879465
0.108093,0.114136,0.937561,-0.0610352,-2.86865,30.2734,-0.101,0.128,-74.85,0.00386047,0.0167236,0,0,0,0,0,40.29,647.892,1879479
0.00823975,-0.0344238,0.966736,-0.976562,-1.83105,28.8086,0.015,-0.007,-75.74,0.00297546,0.0170746,0,0,0,0,0,40.29,647.913,1879509
-0.00817871,-0.1026,1.13885,-0.244141,1.52588,29.3579,0.073,-0.039,-76.64,0.00205994,0.0174866,0,0,0,0,0,40.29,647.938,1879539
-0.0343628,-0.0906982,1.04572,-0.793457,1.83105,27.71,0.058,-0.061,-77.06,0.00170898,0.0176239,0,0,0,0,0,40.29,647.954,1879554
-0.0332031,-0.0114746,0.950928,1.89209,1.34277,28.8696,-0.016,-0.041,-77.48,0.00137329,0.0176849,0,0,0,0,0,40.29,647.974,1879569
-0.0579834,-0.0263672,1.07129,2.99072,0.366211,27.832,-0.007,-0.069,-78.36,0.00105286,0.0177002,0,0,0,0,0,40.29,648.007,1879599
-0.0568848,-0.0808105,1.01135,0.793457,-0.732422,32.3486,0.047,-0.078,-78.82,0.00106812,0.0175934,0,0,0,0,0,40.29,648.021,1879614
0.0178833,-0.0210571,0.958191,1.15967,-1.2207,32.1045,0.005,0.006,-79.31,0.00112915,0.0174255,0,0,0,0,0,40.26,648.038,1879629
0.00817871,-0.0633545,1.08594,1.0376,-1.64795,32.8369,0.042,-0.011,-79.8,0.00123596,0.0174255,0,0,0,0,0,40.26,648.054,1879645
0.0325928,0.0167847,0.951965,0.854492,-2.86865,33.9966,-0.029,0.027,-80.81,0.00146484,0.0173492,0,0,0,0,0,40.26,648.081,1879674
0.0131836,-0.0374146,0.998352,0.976562,-2.2583,32.4707,0.02,-0.002,-81.31,0.00157166,0.0173187,0,0,0,0,0,40.26,648.093,1879689
0.0383301,0.0675659,0.998535,0.915527,-2.2583,32.0435,-0.08,0.037,-81.8,0.00161743,0.0173187,0,0,0,0,0,40.26,648.113,1879705
0.0680542,0.000549316,0.970703,1.77002,-1.15967,31.0669,-0.008,0.056,-82.73,0.00160217,0.0174408,0,0,0,0,0,40.26,648.144,1879734
0.0126343,-0.0238647,1.04486,1.0376,0.732422,29.9683,0.007,-0.002,-83.19,0.00160217,0.0175629,0,0,0,0,0,40.26,648.157,1879749
0.0649414,0.041687,0.95697,0.671387,0.183105,30.9448,-0.05,0.057,-83.65,0.00157166,0.0177307,0,0,0,0,0,40.26,648.174,1879765
-0.024353,-0.0463867,0.98999,-0.183105,-0.366211,31.8603,0.028,-0.039,-85.05,0.00134277,0.0183105,0,0,0,0,0,40.26,648.216,1879810
-0.000854492,0.00323486,0.945312,0,-0.793457,33.4473,-0.018,-0.011,-85.55,0.00126648,0.0184784,0,0,0,0,0,40.26,648.235,1879825
-0.00610352,-0.0151978,1.04779,-1.0376,-1.95312,33.1421,-0.002,-0.018,-86.54,0.00114441,0.0187073,0,0,0,0,0,40.26,648.253,1879855
0.000976562,0.0266113,0.97876,0.427246,-1.77002,34.5459,-0.042,-0.008,-87.06,0.00105286,0.0187836,0,0,0,0,0,40.26,648.273,1879870
0.0283813,-0.0213623,1.01398,0.488281,-0.976562,33.2031,0.006,0.015,-87.57,0.000946045,0.0187836,0,0,0,0,0,40.26,648.293,1879885
0.0230103,-0.0202637,1.09424,-0.854492,-0.793457,33.5693,0.003,0.009,-88.07,0.000854492,0.0187836,0,0,0,0,0,40.26,648.313,1879900
0.076355,0.0386963,0.984314,0.366211,-0.0610352,33.6304,-0.052,0.064,-89.08,0.000549316,0.0189056,0,0,0,0,0,40.26,648.335,1879930
0.0127563,-0.0288696,1.09436,-0.12207,1.40381,32.0435,0.012,-0.002,-89.56,0.000350952,0.0190277,0,0,0,0,0,40.26,648.354,1879945
0.00115967,-0.0403442,0.942322,-0.427246,1.09863,32.959,0.026,-0.011,-90.56,-0.000152588,0.0193481,0,0,0,0,0,40.26,648.373,1879975
0.0351562,0.00305176,0.982483,-0.488281,0.427246,33.1421,-0.018,0.022,-91.06,-0.000427246,0.019516,0,0,0,0,0,40.26,648.393,1879990
-0.0119629,-0.0118408,1.08771,-1.89209,0.549316,33.4473,-0.004,-0.025,-91.56,-0.000427246,0.0196838,0,0,0,0,0,40.26,648.413,1880005
-0.0316162,-0.0222168,0.972168,-1.52588,-0.366211,32.6538,0.008,-0.042,-92.56,-0.000518799,0.0199738,0,0,0,0,0,40.26,648.434,1880035
0.00384521,0.00177002,1.03503,-2.62451,-0.793457,33.3862,-0.019,-0.009,-93.06,-0.000564575,0.0200653,0,0,0,0,0,40.26,648.453,1880050
0.00305176,0.0313721,1.02521,-2.99072,-0.488281,33.3862,-0.049,-0.011,-93.56,-0.000671387,0.0201416,0,0,0,0,0,40.26,648.474,1880065
0.0194702,0.00653076,0.999084,-2.38037,-0.732422,31.9214,-0.025,0.006,-94.05,-0.000839233,0.0201416,0,0,0,0,0,40.26,648.493,1880080
0.0579224,0.0139771,0.991333,-0.976562,-1.77002,32.959,-0.036,0.043,-95.04,-0.00108337,0.0201263,0,0,0,0,0,40.26,648.513,1880110
0.017395,-0.0539551,0.96936,0.183105,-1.46484,33.1421,0.034,0.009,-95.54,-0.00120544,0.0201569,0,0,0,0,0,40.26,648.534,1880125
0.0146484,-0.12738,1.15912,0.488281,-0.0610352,33.02,0.104,0.012,-96.04,-0.00123596,0.0201569,0,0,0,0,0,40.25,648.553,1880140
-0.00292969,-0.10675,1.04211,1.46484,0.183105,33.5083,0.088,-0.004,-97.06,-0.000808716,0.0200195,0,0,0,0,0,40.25,648.573,1880170
0.0115356,0.0244751,1.04926,0.610352,-0.854492,32.8369,-0.044,-0.006,-97.56,-0.000488281,0.0199127,0,0,0,0,0,40.25,648.594,1880185
0.00286865,-0.0482788,1.02057,0.854492,0.244141,32.5317,0.029,-0.004,-98.54,0.000198364,0.0197449,0,0,0,0,0,40.25,648.613,1880215
-0.0195923,-0.00653076,1.09125,4.39453,1.15967,31.311,-0.009,-0.034,-99.01,0.000595093,0.0196381,0,0,0,0,0,40.25,648.634,1880230
0.0263062,-0.0529175,1.0437,0.610352,-0.915527,31.6162,0.031,0.019,-99.48,0.00100708,0.0195312,0,0,0,0,0,40.25,648.652,1880245
0.0327759,0.0404053,1.0379,0.793457,-0.244141,31.7383,-0.061,0.009,-100.45,0.00184631,0.0192719,0,0,0,0,0,40.25,648.673,1880275
-0.0142822,-0.0560303,1.03253,0.183105,-1.58691,31.4331,0.041,-0.019,-100.92,0.00224304,0.0191193,0,0,0,0,0,40.25,648.692,1880290
0.0328979,0.071106,0.933228,0.0610352,-1.77002,30.3955,-0.09,0.004,-101.39,0.00260925,0.0191193,0,0,0,0,0,40.25,648.714,1880305
0.0554199,0.143066,1.06818,1.58691,-3.11279,20.752,-0.167,0.007,-102.16,0.00325012,0.0190887,0,0,0,0,0,40.25,648.734,1880335
-0.0883789,-0.0268555,1.03973,1.28174,0.244141,20.1416,0.031,-0.096,-102.47,0.00344849,0.0190125,0,0,0,0,0,40.25,648.758,1880350
0.100403,0.0736084,0.928528,4.76074,-2.62451,17.8223,-0.105,0.067,-102.75,0.00360107,0.0189056,0,0,0,0,0,40.25,648.772,1880365
-0.0113525,0.0422363,0.960022,2.99072,-1.28174,16.3574,-0.048,-0.035,-103.24,0.00398254,0.0188446,0,0,0,0,0,40.25,648.793,1880395
0.0482178,-0.0374146,1.00262,1.2207,-1.28174,14.2822,0.015,0.04,-103.47,0.00416565,0.0187988,0,0,0,0,0,40.25,648.812,1880410
0.0296021,0.0424805,1.00714,2.62451,-0.732422,13.4888,-0.057,0.002,-103.67,0.0043335,0.0187988,0,0,0,0,0,40.25,648.834,1880425
0.0767212,0.0163574,0.984131,0.244141,-0.854492,13.6108,-0.042,0.055,-104.09,0.00465393,0.0187378,0,0,0,0,0,40.25,648.858,1880455
-0.00982666,-0.0383911,0.978638,-0.183105,0.427246,13.855,0.031,-0.015,-104.29,0.00482178,0.0187378,0,0,0,0,0,40.25,648.873,1880470
0.0249634,0.0629272,1.01971,1.09863,0.305176,14.4653,-0.075,-0.006,-104.51,0.00494385,0.0187378,0,0,0,0,0,40.25,648.894,1880485
-0.0361938,-0.0010376,0.984558,1.09863,0.854492,15.1367,0.003,-0.049,-104.93,0.00515747,0.0187225,0,0,0,0,0,40.25,648.913,1880515
0.0263672,-0.0432739,1.02399,-0.12207,-1.52588,15.0146,0.027,0.021,-105.16,0.00531006,0.0186768,0,0,0,0,0,40.25,648.934,1880530
0.00653076,0.0601196,1.05768,1.15967,-0.183105,16.1133,-0.067,-0.025,-105.4,0.00541687,0.018631,0,0,0,0,0,40.25,648.952,1880545
0.0234985,0.00958252,1.06146,2.13623,-1.28174,16.5405,-0.021,0.004,-105.9,0.00559998,0.0184937,0,0,0,0,0,40.25,648.973,1880575
-0.000610352,-0.0368652,1.03204,1.46484,-0.305176,17.7002,0.03,-0.005,-106.16,0.00570679,0.0184937,0,0,0,0,0,40.25,648.992,1880590
0.0129395,-0.00726318,1.00275,1.52588,-0.732422,17.6392,-0.001,0,-106.42,0.00582886,0.0184937,0,0,0,0,0,40.25,649.012,1880606
0.0043335,0.0446777,1.01288,2.01416,0,18.5547,-0.047,-0.024,-106.95,0.00610352,0.0184784,0,0,0,0,0,40.25,649.033,1880635
0.069458,-0.039978,1.0545,2.13623,0.488281,16.0522,0.014,0.062,-107.21,0.00621033,0.0184784,0,0,0,0,0,40.28,649.053,1880650
-0.0408936,-0.0151367,1.06732,1.64795,1.58691,17.1509,0.024,-0.05,-107.45,0.00634766,0.0185089,0,0,0,0,0,40.28,649.073,1880666
-0.0012207,-0.0159912,1.03058,2.2583,1.09863,17.8223,0.013,-0.01,-107.72,0.00650024,0.0184784,0,0,0,0,0,40.28,649.092,1880680
-0.0404053,-0.0335083,0.997925,2.80762,-0.12207,18.7988,0.044,-0.041,-108.25,0.00688171,0.0183868,0,0,0,0,0,40.28,649.112,1880710
-0.0100098,-0.0181274,0.999451,3.60107,-0.915527,18.7378,0.02,-0.016,-108.54,0.00712585,0.0182953,0,0,0,0,0,40.28,649.133,1880726
-0.041748,-0.022583,1.00861,3.479,-1.46484,19.5923,0.037,-0.044,-109.1,0.00767517,0.0180359,0,0,0,0,0,40.28,649.153,1880755
0.020752,-0.0449219,0.973816,3.2959,-2.01416,19.5923,0.038,0.022,-109.4,0.00802612,0.017868,0,0,0,0,0,40.28,649.173,1880770
-0.0141602,0.0197144,1.07123,2.86865,-1.40381,19.043,-0.009,-0.032,-109.69,0.00837708,0.0177002,0,0,0,0,0,40.28,649.194,1880786
0.0139771,-0.00268555,1.00958,4.45557,-0.915527,19.165,0.002,0.002,-109.98,0.00837708,0.0175171,0,0,0,0,0,40.28,649.213,1880800
0.0343018,0.0158081,1.00281,4.69971,-1.28174,18.1274,-0.019,0.014,-110.54,0.00837708,0.017334,0,0,0,0,0,40.28,649.234,1880830
-0.0264893,-0.0308838,1.09039,4.69971,-0.427246,18.6768,0.047,-0.026,-110.82,0.00839233,0.0173187,0,0,0,0,0,40.28,649.253,1880846
0.0456543,0.00476074,1.03101,5.49316,-1.28174,17.7612,-0.01,0.029,-111.09,0.00843811,0.0173187,0,0,0,0,0,40.28,649.272,1880860
0.0303345,-0.00634766,1.00836,7.56836,-0.183105,17.6392,0.008,0.02,-111.65,0.00848389,0.0172424,0,0,0,0,0,40.28,649.293,1880890
-0.00537109,0.013855,1.11987,7.20215,-0.427246,18.3105,0.005,-0.02,-111.92,0.00848389,0.0171967,0,0,0,0,0,40.28,649.313,1880906
-0.00866699,0.00915527,0.979553,9.09424,-1.34277,17.5781,0.013,-0.019,-112.48,0.00848389,0.0170898,0,0,0,0,0,40.28,649.333,1880935
0.0214844,-0.0124512,1.02698,8.97217,-0.305176,19.8364,0.024,0.017,-112.78,0.0085144,0.0170898,0,0,0,0,0,40.28,649.354,1880950
0.00939941,0.019104,1.067871,0.1929,-0.976562,18.6157,0.003,-0.005,-113.07,0.00856018,0.0170898,0,0,0,0,0,40.28,649.373,1880966
-0.024292,-0.0362549,1.04877,6.95801,-0.610352,17.8223,0.072,-0.012,-113.6,0.00854492,0.0170898,0,0,0,0,0,40.28,649.393,1880995
0.0377808,0.0879517,0.936157,4.45557,-0.854492,14.3433,-0.067,-0.004,-113.85,0.00852966,0.0170898,0,0,0,0,0,40.28,649.413,1881010
0.0333252,0.0828857,0.982849,0.183105,-2.13623,14.3433,-0.059,-0.007,-114.05,0.00843811,0.0170898,0,0,0,0,0,40.28,649.434,1881026
-0.0159302,0.0704956,0.939758,-2.68555,-0.854492,10.8643,-0.028,-0.047,-114.23,0.00828552,0.0170593,0,0,0,0,0,40.28,649.453,1881040
0.0477295,0.00891113,1.02484,-5.7373,-0.793457,8.97217,0.002,0.034,-114.54,0.00772095,0.016861,0,0,0,0,0,40.28,649.473,1881070
0.0303955,0.159058,1.03571,-4.27246,-0.488281,7.87353,-0.126,-0.043,-114.65,0.00732422,0.0167542,0,0,0,0,0,40.28,649.496,1881086
0.0337524,0.0478516,1.00006,-1.15967,0.12207,9.94873,-0.027,0.005,-114.96,0.0062561,0.0166321,0,0,0,0,0,40.28,649.513,1881115
-0.00958252,0.00665283,0.981873,-2.38037,-0.12207,10.437,0.027,-0.016,-115.11,0.00569153,0.0166321,0,0,0,0,0,40.28,649.533,1881130
0.0563965,-0.0436401,1.05627,-1.95312,0.305176,12.8174,0.045,0.064,-115.29,0.00517273,0.0166626,0,0,0,0,0,40.28,649.553,1881146
-0.0258789,-0.0748901,0.976685,-3.17383,-0.244141,15.1978,0.105,0.004,-115.68,0.00422668,0.0166931,0,0,0,0,0,40.3,649.574,1881175
0.0114136,-0.0366821,1.00958,-3.11279,-0.0610352,16.6016,0.054,0.02,-115.94,0.00387573,0.0166931,0,0,0,0,0,40.3,649.594,1881191
0.0196533,-0.0098877,1.06885,-2.68555,-0.671387,16.8457,0.027,0.015,-116.18,0.00358582,0.0167389,0,0,0,0,0,40.3,649.613,1881206
-0.034729,0.0751953,1.0127,-2.2583,0.732422,18.9819,-0.026,-0.07,-116.46,0.00331116,0.0167236,0,0,0,0,0,40.3,649.633,1881221
0.0184326,-0.00250244,1.00134,-1.95312,-0.549316,18.0664,0.018,0.011,-117,0.00265503,0.0166779,0,0,0,0,0,40.3,649.653,1881251
0.00250244,-0.0129395,0.983398,-2.2583,-0.183105,16.6626,0.033,0.002,-117.54,0.00210571,0.0165558,0,0,0,0,0,40.3,649.68,1881281
0.00250244,-0.0129395,0.983398,-2.2583,-0.183105,16.6626,0.033,0.002,-117.54,0.00210571,0.0165558,0,0,0,0,0,40.3,649.693,1881281
0.00567627,0.0419312,1.03461,0.976562,0.671387,17.7612,-0.014,-0.02,-118.07,0.0015564,0.0163422,0,0,0,0,0,40.3,649.714,1881311
0.00305176,0.0414429,1.07788,0.610352,-0.549316,15.5029,-0.012,-0.023,-118.3,0.00125122,0.0161896,0,0,0,0,0,40.3,649.733,1881326
0.00946045,0.00561523,1.00861,-0.793457,0,15.9912,0.014,0,-118.78,0.000701904,0.0158234,0,0,0,0,0,40.3,649.753,1881356
0.0700684,-0.00152588,1.00391,0.305176,-1.34277,14.0991,-0.008,0.056,-118.99,0.000442505,0.0156555,0,0,0,0,0,40.3,649.78,1881371
-0.0493774,-0.071167,0.945496,-1.40381,-0.793457,15.3809,0.108,-0.013,-119.21,0.000259399,0.0155334,0,0,0,0,0,40.3,649.794,1881386
-0.00610352,0.103271,1.08203,0.488281,0.976562,15.8691,-0.061,-0.061,-119.67,0.000106812,0.015274,0,0,0,0,0,40.3,649.813,1881416
0.0216675,-0.036438,0.979614,0.610352,-0.671387,15.3809,0.043,0.032,-119.91,1.52588e-05,0.0151062,0,0,0,0,0,40.3,649.834,1881431
0.000854492,-0.0137329,0.941589,0.0610352,-2.0752,15.564,0.033,0.003,-120.14,0,0.0149689,0,0,0,0,0,40.3,649.853,1881446
0.015564,-0.072937,1.04449,-1.95312,-2.01416,15.5029,0.078,0.046,-120.61,4.57764e-05,0.0146179,0,0,0,0,0,40.3,649.872,1881476
0.0366211,0.0718994,0.934937,-1.28174,-1.52588,16.2964,-0.059,-0.009,-120.86,0.00012207,0.0144806,0,0,0,0,0,40.3,649.892,1881491
-0.0367432,0.0120239,0.979004,-2.01416,-0.793457,16.9678,0.03,-0.041,-121.12,0.000183105,0.0142975,0,0,0,0,0,40.3,649.912,1881506
-0.0292358,0.10022,0.98877,-1.2207,-0.488281,17.6392,-0.048,-0.082,-121.61,0.000259399,0.0138397,0,0,0,0,0,40.3,649.935,1881536
0.0859375,0.0756836,1.00732,-1.15967,-1.70898,16.1743,-0.087,0.027,-121.87,0.000183105,0.0135498,0,0,0,0,0,40.3,649.952,1881551
0.00970459,0.0425415,1.0744,-1.70898,-0.549316,16.1743,-0.018,-0.02,-122.1,3.05176e-05,0.0132599,0,0,0,0,0,40.3,649.972,1881566
0.0426025,0.107483,0.996826,-0.305176,-0.549316,17.5781,-0.092,-0.027,-122.36,-0.000183105,0.0129395,0,0,0,0,0,40.3,649.992,1881581
0.0338135,0.0900879,0.976257,-1.83105,0.793457,16.2354,-0.072,-0.026,-122.85,-0.000732422,0.0122681,0,0,0,0,0,40.3,650.012,1881611
0.0130005,0.0131226,1.14178,-1.77002,1.28174,15.3809,0.005,-0.002,-123.09,-0.00106812,0.0119019,0,0,0,0,0,40.3,650.033,1881626
-0.0324707,-0.0438232,1.0036,-1.34277,0.0610352,17.334,0.074,-0.008,-123.57,-0.0018158,0.0115204,0,0,0,0,0,40.3,650.053,1881656
-0.043335,-0.00512695,1.03687,-2.19727,0.671387,16.7847,0.049,-0.039,-123.83,-0.00209045,0.0114899,0,0,0,0,0,40.26,650.073,1881671
0.0209961,0.0474243,1.0484,-0.366211,-1.15967,18.5547,-0.03,-0.015,-124.09,-0.00236511,0.0114136,0,0,0,0,0,40.26,650.092,1881686
0.0574951,0.0296631,0.996582,0.427246,-1.34277,18.7378,-0.037,0.024,-124.38,-0.00268555,0.0113525,0,0,0,0,0,40.26,650.112,1881701
-0.0455322,-0.205933,0.857666,-1.28174,-3.23486,17.9443,0.212,0.075,-124.91,-0.00314331,0.0113068,0,0,0,0,0,40.26,650.133,1881731
0.0258789,0.0545044,0.990479,0.305176,-1.52588,17.7612,-0.039,-0.016,-125.16,-0.00317383,0.0113373,0,0,0,0,0,40.26,650.152,1881746
0.027832,0.0304565,1.07965,-1.40381,-1.28174,16.4795,-0.019,-0.001,-125.42,-0.00323486,0.0113678,0,0,0,0,0,40.26,650.173,1881761
0.0594482,-0.0769653,0.998047,-1.64795,-1.52588,14.8315,0.047,0.086,-125.91,-0.00349426,0.011322,0,0,0,0,0,40.26,650.193,1881791
0.00610352,0.0430298,0.983521,-0.732422,-0.305176,16.2964,-0.019,-0.027,-126.14,-0.00361633,0.0113525,0,0,0,0,0,40.26,650.213,1881806
0.0377808,-0.0209961,0.96637,-0.366211,0.183105,15.7471,0.013,0.036,-126.38,-0.00361633,0.0113678,0,0,0,0,0,40.26,650.233,1881821
0.0236206,0.0621948,0.995728,-0.488281,0.549316,16.7236,-0.044,-0.024,-126.86,-0.00370789,0.0114288,0,0,0,0,0,40.26,650.253,1881851
-0.0127563,-0.0938721,0.991089,-1.34277,-0.366211,15.1367,0.101,0.04,-127.1,-0.0037384,0.0114594,0,0,0,0,0,40.26,650.273,1881866
0.000854492,-0.0436401,0.994019,-2.92969,-0.366211,17.1509,0.052,0.02,-127.58,-0.00370789,0.0115204,0,0,0,0,0,40.26,650.294,1881896
0.00152588,0.112122,1.06586,-0.549316,-1.2207,16.7847,-0.07,-0.075,-127.83,-0.00370789,0.0115051,0,0,0,0,0,40.26,650.313,1881911
0.0160522,-0.046814,1.02124,-0.488281,-0.488281,18.6157,0.045,0.034,-128.09,-0.00372314,0.0114746,0,0,0,0,0,40.26,650.333,1881926
-0.0253296,-0.00933838,1.05408,0.854492,-0.671387,17.7002,0.042,-0.02,-128.64,-0.00375366,0.0113983,0,0,0,0,0,40.26,650.353,1881956
0.0626221,-0.0175781,0.949219,0.610352,-0.732422,18.0054,-0.008,0.053,-128.92,-0.0037384,0.0113678,0,0,0,0,0,40.26,650.373,1881971
-0.0126953,-0.0799561,1.0105,-1.28174,-0.244141,17.334,0.089,0.034,-129.18,-0.00367737,0.0114136,0,0,0,0,0,40.26,650.395,1881986
0.00311279,-0.038269,1.02295,-2.2583,1.64795,16.1133,0.045,0.02,-129.66,-0.00360107,0.0113831,0,0,0,0,0,40.26,650.415,1882016
0.0706177,0.123657,1.0108,-0.488281,-0.427246,13.1836,-0.122,-0.031,-129.88,-0.00363159,0.0113525,0,0,0,0,0,40.26,650.433,1882031
0.0153198,-0.0679321,1.00677,-0.366211,0.915527,14.8926,0.06,0.048,-130.08,-0.00370789,0.011322,0,0,0,0,0,40.26,650.453,1882046
0.00720215,0.0656128,0.913635,-0.244141,-0.305176,16.7847,-0.038,-0.042,-130.34,-0.00376892,0.0113068,0,0,0,0,0,40.26,650.473,1882061
0.024292,0.187073,1.03876,1.2207,0.610352,17.8833,-0.139,-0.11,-130.84,-0.00401306,0.0112152,0,0,0,0,0,40.26,650.497,1882091
-0.0909424,-0.269653,0.855896,-1.2207,-1.77002,17.1509,0.278,0.103,-131.11,-0.0040741,0.0111389,0,0,0,0,0,40.26,650.513,1882107
0.057312,0.0482788,0.96875,-1.34277,-1.2207,19.8364,-0.057,0.005,-131.39,-0.0039978,0.0111389,0,0,0,0,0,40.26,650.533,1882121
0.0161133,0.116516,1.04413,-0.427246,-1.83105,19.4702,-0.08,-0.072,-131.96,-0.00387573,0.0111084,0,0,0,0,0,40.26,650.553,1882151
-0.0324097,-0.065918,0.979919,-0.854492,0.12207,20.3857,0.086,0.013,-132.27,-0.00382996,0.0110168,0,0,0,0,0,40.26,650.573,1882167
0.0107422,-0.0662842,1.0542,-0.0610352,-0.549316,19.043,0.059,0.045,-132.86,-0.00367737,0.0109558,0,0,0,0,0,40.26,650.594,1882196
0.0412598,0.0126343,0.954407,0.305176,-0.183105,19.7144,-0.021,0.014,-133.16,-0.00357056,0.0109863,0,0,0,0,0,40.26,650.613,1882211
0.00817871,-0.0078125,1.02374,0.366211,-0.427246,18.8599,0.017,0.004,-133.45,-0.003479,0.0109863,0,0,0,0,0,40.26,650.635,1882227
0.0246582,0.0239868,0.976257,0.610352,-1.09863,19.6533,-0.017,-0.005,-133.74,-0.003479,0.0109863,0,0,0,0,0,40.26,650.653,1882241
0.0692139,0.00762939,1.02014,0.488281,-1.58691,19.6533,-0.036,0.038,-134.33,-0.00338745,0.0109253,0,0,0,0,0,40.26,650.673,1882271
-0.0474854,-0.0559692,0.956726,0.305176,-1.40381,19.8975,0.09,0,-134.62,-0.00331116,0.01091,0,0,0,0,0,40.26,650.693,1882287
0.0266113,0.0426636,1.01025,-1.28174,-1.58691,18.8599,-0.031,-0.017,-135.19,-0.00300598,0.0108185,0,0,0,0,0,40.26,650.713,1882316
-0.0222168,0.076355,0.971008,-0.183105,-1.15967,18.9819,-0.02,-0.076,-135.48,-0.00288391,0.0106964,0,0,0,0,0,40.26,650.733,1882331
0.0249023,0.0239868,1.09961,0.488281,-2.56348,16.1133,-0.014,-0.006,-135.74,-0.00279236,0.0105133,0,0,0,0,0,40.26,650.754,1882347
0.060791,0.0805054,0.961304,0.549316,-1.89209,17.4561,-0.081,-0.022,-135.99,-0.0027771,0.0103149,0,0,0,0,0,40.26,650.773,1882361
0.0197754,0.0172119,1.02972,0.366211,-0.915527,15.625,-0.006,-0.005,-136.5,-0.00279236,0.00996399,0,0,0,0,0,40.26,650.803,1882391
0.00634766,-0.0349121,0.977173,-0.610352,0.12207,16.9678,0.038,0.023,-136.75,-0.00276184,0.00979614,0,0,0,0,0,40.26,650.815,1882407
0.0641479,0.113953,0.999817,-0.244141,-1.40381,17.4561,-0.105,-0.046,-137.02,-0.00279236,0.0096283,0,0,0,0,0,40.26,650.833,1882421
-0.0795898,0.1073,0.9422,-2.01416,0.793457,17.0898,0.004,-0.139,-137.54,-0.00291443,0.00912476,0,0,0,0,0,40.26,650.853,1882451
0.0440063,-0.00860596,1.04333,-2.19727,-0.427246,17.395,-0.007,0.028,-137.79,-0.00297546,0.00875854,0,0,0,0,0,40.26,650.873,1882467
-0.0338745,0.108459,1.03058,-0.976562,-0.976562,18.7378,-0.027,-0.11,-138.08,-0.00305176,0.0083313,0,0,0,0,0,40.26,650.893,1882481
0.0166016,-0.0120239,0.961548,-1.70898,-2.62451,16.1133,0.013,0.012,-138.58,-0.00315857,0.00741577,0,0,0,0,0,40.26,650.913,1882511
-0.0210571,0.0543823,1.03992,-0.671387,-1.52588,18.3716,0,-0.063,-138.85,-0.00315857,0.00694275,0,0,0,0,0,40.26,650.932,1882527
0.065918,-0.0183716,0.950195,-0.305176,-2.01416,14.8926,-0.019,0.049,-139.09,-0.00315857,0.00646973,0,0,0,0,0,40.26,650.952,1882541
-0.000549316,0.0100708,1.04266,-0.244141,-0.12207,15.4419,0.014,-0.016,-139.54,-0.00315857,0.00566101,0,0,0,0,0,40.26,650.972,1882571
0.0302124,-0.0598755,1.099,-0.244141,-0.610352,14.1602,0.037,0.056,-139.76,-0.00312805,0.00531006,0,0,0,0,0,40.26,650.992,1882587
0.0105591,0.0134888,0.999939,-1.15967,0.183105,16.6626,0.003,-0.012,-140,-0.00306702,0.00497437,0,0,0,0,0,40.26,651.012,1882602
0.0379639,-0.00994873,1.00262,-0.976562,-0.488281,16.8457,-0.004,0.022,-140.49,-0.00299072,0.00428772,0,0,0,0,0,40.26,651.032,1882632
-0.0308838,-0.0310059,1.04675,-1.28174,-1.0376,19.2261,0.063,-0.005,-140.77,-0.00294495,0.00396729,0,0,0,0,0,40.26,651.053,1882647
0.0135498,-0.0252075,0.977783,-0.610352,-1.15967,17.7612,0.023,0.018,-141.06,-0.00285339,0.00366211,0,0,0,0,0,40.26,651.072,1882662
0.0162354,0.026062,0.979065,-0.12207,-1.89209,19.8364,-0.01,-0.02,-141.65,-0.00273132,0.00311279,0,0,0,0,0,40.28,651.092,1882692
-0.0327759,-0.0257568,1.06775,-1.34277,-1.28174,19.5312,0.061,-0.01,-141.94,-0.00270081,0.00282288,0,0,0,0,0,40.28,651.113,1882707
0.0457764,0.145691,1.00385,-0.0610352,-0.549316,19.6533,-0.106,-0.097,-142.23,-0.00268555,0.00247192,0,0,0,0,0,40.28,651.133,1882722
0.0126953,0.127747,1.04895,0.183105,-0.244141,17.8833,-0.066,-0.104,-142.8,-0.0027771,0.00177002,0,0,0,0,0,40.28,651.153,1882752
-0.0281982,-0.00439453,1.02643,-0.305176,0.793457,19.165,0.045,-0.023,-143.08,-0.00283813,0.00132751,0,0,0,0,0,40.28,651.173,1882767
0.00836182,0.0344238,1.02649,-1.46484,1.15967,17.0898,-0.007,-0.033,-143.6,-0.00309753,0.000244141,0,0,0,0,0,40.28,651.194,1882797
-0.0045166,0.0145264,1.01508,-2.2583,1.34277,16.9678,0.014,-0.024,-143.86,-0.00309753,-0.000366211,0,0,0,0,0,40.28,651.213,1882812
0.06604,-0.184082,0.976013,-1.83105,-0.732422,14.8315,0.072,0.177,-144.09,-0.0030365,-0.00088501,0,0,0,0,0,40.28,651.233,1882827
-0.00634766,0.0482178,0.966919,-1.58691,0.183105,17.2119,-0.005,-0.053,-144.34,-0.00292969,-0.00131226,0,0,0,0,0,40.28,651.253,1882842
0.0355225,0.0310669,1.00323,-1.09863,-0.427246,18.1274,-0.029,-0.016,-144.86,-0.00267029,-0.00221252,0,0,0,0,0,40.28,651.273,1882872
-0.00195312,-0.0206299,1.01221,0.244141,-0.915527,19.165,0.03,0.004,-145.15,-0.00253296,-0.00221252,0,0,0,0,0,40.28,651.294,1882887
-0.00518799,-0.0205078,0.993164,-0.793457,-0.305176,21.4844,0.032,0.002,-145.75,-0.00216675,-0.00224304,0,0,0,0,0,40.28,651.315,1882917
0.0229492,-0.0342407,0.986938,-1.2207,-0.732422,20.3857,0.017,0.029,-146.06,-0.00193787,-0.00224304,0,0,0,0,0,40.28,651.333,1882932
0.0183105,0.00531006,1.08124,-1.0376,-0.183105,19.9585,0,-0.007,-146.37,-0.00169373,-0.00224304,0,0,0,0,0,40.28,651.353,1882947
0.0355225,0.00939941,1.02478,-1.0376,0.854492,19.9585,-0.017,0,-146.67,-0.00169373,-0.00222778,0,0,0,0,0,40.28,651.372,1882962
0.000427246,0.0505981,1.00153,-0.12207,-0.244141,18.5547,-0.01,-0.054,-147.25,-0.00169373,-0.00212097,0,0,0,0,0,40.28,651.393,1882992
0.0305786,-0.0383301,1.07104,-0.488281,-0.183105,19.043,0.013,0.035,-147.82,-0.00164795,-0.00209045,0,0,0,0,0,40.28,651.429,1883022
0.000793457,-0.0163574,1.04504,0.793457,-0.427246,18.7988,0.026,0.002,-148.42,-0.00154114,-0.00212097,0,0,0,0,0,40.28,651.454,1883052
0.0123901,0.0214233,1.05951,0.0610352,-0.12207,20.3247,-0.003,-0.024,-148.71,-0.00146484,-0.00216675,0,0,0,0,0,40.28,651.472,1883067
0.019165,-0.0466309,0.946899,-0.671387,-0.244141,19.2261,0.024,0.038,-149.01,-0.00137329,-0.00221252,0,0,0,0,0,40.28,651.493,1883082
-0.0115967,0.0500488,1.08325,-1.40381,1.40381,19.3481,0.004,-0.062,-149.58,-0.00125122,-0.00244141,0,0,0,0,0,40.28,651.513,1883112
0.0387573,0.0461426,0.987488,-0.976562,0.183105,18.9209,-0.039,-0.032,-149.88,-0.00123596,-0.00267029,0,0,0,0,0,40.28,651.534,1883127
0.0428467,-0.0155029,1.06372,-0.488281,0.610352,17.395,-0.009,0.021,-150.14,-0.00125122,-0.00291443,0,0,0,0,0,40.28,651.553,1883142
0.0271606,0.0263672,1.06842,-1.28174,0.610352,17.334,-0.017,-0.023,-150.69,-0.00137329,-0.003479,0,0,0,0,0,40.28,651.574,1883172
0.0691528,0.157532,1.02686,-1.0376,-0.0610352,18.9819,-0.118,-0.118,-150.96,-0.00154114,-0.00387573,0,0,0,0,0,40.28,651.594,1883187
0.019043,0.0801392,1.10535,-0.610352,-0.305176,18.9819,-0.034,-0.075,-151.54,-0.0019989,-0.00505066,0,0,0,0,0,40.27,651.623,1883217
0.0151367,-0.0875854,1.00653,-0.976562,-0.244141,19.7754,0.047,0.07,-151.82,-0.00222778,-0.00569153,0,0,0,0,0,40.27,651.634,1883232
0.00439453,0.0903931,0.958679,-0.915527,-2.31934,19.3481,-0.028,-0.09,-152.12,-0.00242615,-0.0063324,0,0,0,0,0,40.27,651.653,1883247
0.0473633,0.000183105,1.07111,-0.549316,-0.610352,17.9443,-0.021,0.007,-152.39,-0.00267029,-0.00704956,0,0,0,0,0,40.27,651.672,1883262
-0.0100708,-0.0183716,1.03094,-0.244141,-1.28174,16.7236,0.038,-0.002,-152.95,-0.00325012,-0.00849915,0,0,0,0,0,40.27,651.693,1883292
0.0984497,-0.0128174,0.973572,-0.671387,-0.915527,18.3716,-0.062,0.042,-153.21,-0.0035553,-0.00920105,0,0,0,0,0,40.27,651.715,1883307
-0.0012207,0.000488281,0.998291,-0.854492,0.305176,17.7612,0.021,-0.015,-153.48,-0.00389099,-0.00990295,0,0,0,0,0,40.27,651.733,1883322
-0.0375977,-0.0117798,0.985168,-1.46484,1.46484,17.334,0.059,-0.02,-153.98,-0.00465393,-0.0112762,0,0,0,0,0,40.27,651.753,1883352
0.0601807,-0.0102539,0.973022,-1.89209,0.183105,17.334,-0.03,0.02,-154.24,-0.00502014,-0.0119781,0,0,0,0,0,40.27,651.773,1883367
-0.0130005,-0.0531006,0.998901,-1.89209,0.305176,16.2964,0.054,0.027,-154.48,-0.00537109,-0.0126343,0,0,0,0,0,40.27,651.793,1883382
-0.00274658,-0.0252075,1.04071,-3.11279,-0.610352,18.1885,0.032,0.004,-155.03,-0.00588989,-0.0140076,0,0,0,0,0,40.27,651.813,1883412
0.00494385,0.079834,0.990112,-2.01416,-1.09863,18.6157,-0.019,-0.087,-155.3,-0.00611877,-0.0147705,0,0,0,0,0,40.27,651.833,1883427
-0.0123291,-0.00769043,1.01978,-1.58691,-0.793457,18.6768,0.033,-0.015,-155.59,-0.0063324,-0.0155945,0,0,0,0,0,40.27,651.853,1883442
-0.00195312,-0.0471802,1.03662,-1.58691,-0.488281,18.4937,0.04,0.024,-156.13,-0.00679016,-0.0173645,0,0,0,0,0,40.27,651.873,1883472
0.0704956,0.0394897,0.961548,-1.58691,-1.34277,18.4326,-0.062,-0.025,-156.41,-0.00704956,-0.0182648,0,0,0,0,0,40.27,651.893,1883488
0.0408325,0.0304565,1.0451,-1.28174,0.549316,17.4561,-0.029,-0.031,-156.92,-0.00761414,-0.0200348,0,0,0,0,0,40.27,651.916,1883517
0.0238037,-0.0446167,1.10358,-1.28174,0.854492,16.5405,0.016,0.029,-157.18,-0.00791931,-0.0209198,0,0,0,0,0,40.27,651.935,1883532
0.0440674,0.00482178,0.927551,-1.46484,0.183105,17.8223,-0.025,-0.005,-157.44,-0.00822449,-0.0217896,0,0,0,0,0,40.27,651.954,1883548
0.0187378,0.0167847,1.02539,-2.99072,0.244141,18.6768,-0.006,-0.029,-157.99,-0.0087738,-0.0234528,0,0,0,0,0,40.27,651.974,1883577
-0.0170898,-0.0407104,1.04401,-3.41797,0,19.5312,0.047,0.009,-158.28,-0.00900269,-0.0242767,0,0,0,0,0,40.27,651.994,1883592
0.0292969,-0.00653076,0.942627,-3.41797,-1.46484,19.3481,-0.01,-0.003,-158.57,-0.00921631,-0.0242767,0,0,0,0,0,40.27,652.013,1883608
-0.00378418,-0.0209351,0.973633,-3.78418,-1.0376,19.7754,0.026,-0.003,-158.86,-0.00939941,-0.0242767,0,0,0,0,0,40.27,652.034,1883622
0.0358276,0.0620117,0.951416,-4.45557,-1.34277,20.0806,-0.041,-0.069,-159.76,-0.0100403,-0.0243378,0,0,0,0,0,40.27,652.073,1883668
0.026062,-0.0402222,0.979797,-4.39453,-1.34277,18.9819,0.003,0.021,-160.05,-0.0102997,-0.0244293,0,0,0,0,0,40.27,652.089,1883682
-0.00860596,-0.0353394,1.03107,-5.31006,0.305176,19.5923,0.034,0.001,-160.62,-0.0108643,-0.0246887,0,0,0,0,0,40.28,652.113,1883712
0.0499268,0.0187378,1.00952,-5.06592,-0.0610352,17.5781,-0.039,-0.031,-160.9,-0.0111542,-0.0248566,0,0,0,0,0,40.28,652.138,1883728
0.0288696,0.078125,0.994934,-3.23486,-0.732422,16.8457,-0.039,-0.094,-161.15,-0.0114899,-0.025116,0,0,0,0,0,40.28,652.153,1883742
-0.0111694,-0.0654907,1.0354,0.427246,-0.0610352,14.7705,0.044,0.027,-161.63,-0.0122833,-0.0258179,0,0,0,0,0,40.28,652.172,1883772
0.00201416,-0.0808105,1.00909,2.0752,0.671387,15.9302,0.036,0.046,-161.88,-0.0126343,-0.0261078,0,0,0,0,0,40.28,652.193,1883788
-0.0119019,-0.0941162,1.05212,3.17383,0.549316,14.8315,0.054,0.054,-162.1,-0.0129089,-0.0263519,0,0,0,0,0,40.28,652.213,1883802
0.0476074,-0.0734863,1.03101,0.12207,0.183105,17.8833,-0.01,0.053,-162.59,-0.0130615,-0.026413,0,0,0,0,0,40.28,652.237,1883832
0.0628052,-0.0476074,0.98468,-0.915527,-1.89209,15.8691,-0.033,0.033,-162.84,-0.0131073,-0.0263214,0,0,0,0,0,40.28,652.254,1883848
-0.017395,-0.0536499,1.00104,-1.58691,-1.40381,17.6392,0.044,0.015,-163.09,-0.0131531,-0.0261993,0,0,0,0,0,40.28,652.274,1883862
0.0111084,0.0317993,1.0094,1.52588,-0.793457,15.4419,-0.006,-0.058,-163.6,-0.0133057,-0.0259094,0,0,0,0,0,40.28,652.293,1883892
0.0688477,0.170959,0.950256,1.58691,-1.89209,15.9912,-0.101,-0.174,-163.85,-0.0134888,-0.0259247,0,0,0,0,0,40.28,652.316,1883908
0.0297852,-0.0530396,0.991455,1.70898,-1.46484,15.3198,-0.001,0.029,-164.08,-0.0137329,-0.0260468,0,0,0,0,0,40.28,652.332,1883922
-0.0227661,0.0143433,1.0343,1.95312,-0.183105,17.8223,0.031,-0.049,-164.59,-0.0142059,-0.0261688,0,0,0,0,0,40.28,652.354,1883952
0.0184937,-0.0279541,1.00439,0.12207,-1.2207,17.5781,0.002,0.003,-164.86,-0.0144043,-0.0262756,0,0,0,0,0,40.28,652.373,1883968
0.0129395,-0.022522,0.947205,0.427246,-0.793457,19.4092,0.006,-0.001,-165.14,-0.0146027,-0.0262756,0,0,0,0,0,40.28,652.393,1883982
0.0166626,0.00823975,1.09277,0.183105,-0.549316,18.2495,-0.003,-0.034,-165.69,-0.0148773,-0.0263367,0,0,0,0,0,40.28,652.413,1884012
0.034729,0.0267334,0.981873,-0.0610352,-0.366211,19.2871,-0.026,-0.044,-165.98,-0.0150299,-0.0264435,0,0,0,0,0,40.28,652.432,1884028
0.0324097,-0.00695801,1.05719,-0.183105,-1.09863,17.5171,-0.015,-0.014,-166.25,-0.0151978,-0.0265961,0,0,0,0,0,40.28,652.453,1884043
0.0371704,-0.00671387,1.05859,-0.488281,0.610352,19.104,-0.019,-0.013,-166.81,-0.0153809,-0.0267639,0,0,0,0,0,40.28,652.473,1884073
0.0490723,-0.00384521,1.02393,-0.854492,0.427246,16.6626,-0.032,-0.013,-167.07,-0.0154114,-0.0267639,0,0,0,0,0,40.28,652.496,1884088
-0.010376,-0.0227051,0.980042,-2.01416,1.52588,19.4092,0.028,-0.007,-167.35,-0.0154419,-0.0267639,0,0,0,0,0,40.28,652.513,1884103
0.0317383,0.00201416,1.11823,-2.31934,0.854492,19.043,-0.016,-0.027,-167.92,-0.0154572,-0.0267792,0,0,0,0,0,40.28,652.533,1884133
-0.0751343,-0.0963745,1.01544,-1.28174,1.40381,18.9819,0.106,0.049,-168.21,-0.0153961,-0.0267944,0,0,0,0,0,40.28,652.553,1884148
0.0309448,-0.057312,1.05273,-1.95312,-0.732422,18.4326,-0.005,0.031,-168.48,-0.015274,-0.0267487,0,0,0,0,0,40.28,652.573,1884163
0.000793457,-0.106384,1.01837,-0.610352,-1.0376,17.2729,0.032,0.073,-169.02,-0.0149994,-0.0266418,0,0,0,0,0,40.28,652.599,1884193
-0.0426636,-0.0717773,1.01593,0.488281,0.12207,15.625,0.068,0.032,-169.27,-0.0147858,-0.0265198,0,0,0,0,0,40.28,652.613,1884208
-0.0178833,-0.125305,1.05151,1.09863,1.28174,16.7236,0.054,0.088,-169.5,-0.0144958,-0.0263062,0,0,0,0,0,40.25,652.634,1884223
-0.029541,-0.0978394,1.01062,-0.183105,0.854492,15.625,0.059,0.06,-169.96,-0.0137939,-0.0256195,0,0,0,0,0,40.25,652.656,1884253
0.0270996,-0.0123291,1.00751,-0.12207,1.40381,16.4185,-0.011,-0.013,-170.2,-0.013382,-0.0252075,0,0,0,0,0,40.25,652.673,1884268
0.0700073,0.0675659,1.02087,-0.915527,-0.183105,15.4419,-0.066,-0.086,-170.43,-0.013031,-0.0248566,0,0,0,0,0,40.25,652.693,1884283
0.0335693,-0.0777588,1.06738,-0.305176,0.183105,16.4185,-0.007,0.049,-170.92,-0.0122681,-0.0243225,0,0,0,0,0,40.25,652.713,1884313
-0.0380249,-0.105957,1.05609,-0.244141,1.83105,16.4795,0.067,0.066,-171.17,-0.0118256,-0.0239716,0,0,0,0,0,40.25,652.733,1884328
-0.0785522,-0.118958,1.03912,1.46484,0.793457,17.4561,0.108,0.074,-171.43,-0.011261,-0.0235138,0,0,0,0,0,40.25,652.753,1884343
0.00189209,-0.0134277,1.04388,-0.12207,1.34277,18.9209,0.012,-0.017,-171.97,-0.00978088,-0.0223846,0,0,0,0,0,40.25,652.774,1884373
0.0515747,0.0541382,0.970093,-0.12207,-1.28174,17.6392,-0.046,-0.076,-172.24,-0.0090332,-0.0218506,0,0,0,0,0,40.25,652.795,1884388
-0.00384521,0.067627,1.00024,-0.183105,-1.34277,18.3105,0.007,-0.098,-172.51,-0.00831604,-0.0214386,0,0,0,0,0,40.25,652.813,1884403
0.0400391,-0.00811768,1.02783,1.70898,1.46484,16.5405,-0.025,-0.018,-173.05,-0.0067749,-0.0205994,0,0,0,0,0,40.25,652.833,1884433
0.0344849,0.0675049,1.00812,1.2207,0.915527,16.6626,-0.029,-0.093,-173.3,-0.00602722,-0.0202332,0,0,0,0,0,40.25,652.854,1884448
0.043335,-0.126892,1.00366,0,0.488281,17.395,-0.015,0.101,-173.56,-0.00531006,-0.0198517,0,0,0,0,0,40.25,652.873,1884463
-0.0169678,0.00152588,1.01154,0.366211,1.09863,18.5547,0.029,-0.032,-174.07,-0.00392151,-0.0189667,0,0,0,0,0,40.25,652.893,1884493
0.00109863,-0.0612183,0.960571,-1.09863,0.366211,17.7612,0.017,0.032,-174.34,-0.00318909,-0.0185242,0,0,0,0,0,40.25,652.913,1884508
0.0045166,-0.0178833,1.01642,-2.2583,0.183105,19.043,0.009,-0.011,-174.62,-0.00242615,-0.0180664,0,0,0,0,0,40.25,652.933,1884523
-0.0400391,-0.112549,0.968323,-0.976562,-1.09863,17.4561,0.061,0.08,-175.16,-0.000946045,-0.0174866,0,0,0,0,0,40.25,652.953,1884553
-0.0232544,-0.0412598,1.02777,1.89209,-0.0610352,18.5547,0.039,0.009,-175.43,-0.00012207,-0.0171661,0,0,0,0,0,40.25,652.973,1884568
0.00476074,-0.064209,1.05603,1.0376,-0.305176,17.7002,0.013,0.033,-175.71,0.000717163,-0.0168304,0,0,0,0,0,40.25,652.993,1884583
0.0210571,-0.104614,1.01215,1.28174,-0.549316,20.0195,0,0.077,-176.24,0.00254822,-0.016037,0,0,0,0,0,40.25,653.013,1884613
-0.0333862,-0.0502319,1.08875,1.83105,-0.12207,17.0898,0.051,0.017,-176.51,0.00352478,-0.0155487,0,0,0,0,0,40.25,653.033,1884628
0.0653687,0.0532837,0.993042,0.488281,-0.244141,19.5923,-0.054,-0.077,-177.09,0.00543213,-0.0145569,0,0,0,0,0,40.25,653.057,1884658
0.0150757,0.101929,0.951599,-0.854492,-1.28174,18.6157,-0.006,-0.127,-177.37,0.00631714,-0.0142212,0,0,0,0,0,40.25,653.073,1884673
0.0194702,0.0681763,0.990295,-0.915527,-1.52588,19.2871,-0.008,-0.094,-177.65,0.00718689,-0.0140381,0,0,0,0,0,40.25,653.093,1884688
0.067627,0.0471802,0.990845,0.488281,-0.488281,16.6016,-0.055,-0.071,-177.92,0.00801086,-0.0139771,0,0,0,0,0,40.25,653.113,1884703
-0.013855,-0.0845947,1.00903,2.13623,0.427246,18.0054,0.03,0.057,-178.45,0.00975037,-0.0138092,0,0,0,0,0,40.26,653.133,1884733
-0.0687866,-0.195984,1.08881,0.549316,1.15967,17.0288,0.088,0.165,-178.71,0.0107269,-0.0135345,0,0,0,0,0,40.26,653.158,1884748
0.0439453,0.0638428,0.977783,0.976562,0.549316,17.8223,-0.031,-0.089,-178.97,0.0117493,-0.0132141,0,0,0,0,0,40.26,653.173,1884763
-0.00817871,-0.0698853,0.981689,-0.915527,-0.183105,16.9067,0.022,0.043,-179.48,0.0138397,-0.0126038,0,0,0,0,0,40.26,653.196,1884793
0.0557861,-0.14447,1.03766,-1.89209,-0.610352,17.6392,-0.041,0.117,-179.75,0.0148926,-0.0121613,0,0,0,0,0,40.26,653.213,1884808
0.00109863,0.0627441,1.03809,0.12207,-0.610352,15.5029,0.013,-0.09,179.99,0.0159149,-0.0117035,0,0,0,0,0,40.26,653.232,1884823
-0.00109863,-0.188416,1.00421,0.488281,0.732422,15.2588,0.012,0.162,179.51,0.0180511,-0.0108643,0,0,0,0,0,40.26,653.253,1884853
0.0170288,0.0646362,1.02972,0.854492,-0.0610352,15.1367,-0.002,-0.092,179.28,0.0191345,-0.0103455,0,0,0,0,0,40.26,653.272,1884868
-0.0526123,-0.0286255,0.988953,-0.732422,0.671387,16.9678,0.064,0.002,179.03,0.0202637,-0.0098877,0,0,0,0,0,40.26,653.293,1884883
0.00512695,-0.0805054,1.07861,-2.31934,1.40381,18.5547,0.006,0.05,178.5,0.0226135,-0.00897217,0,0,0,0,0,40.26,653.313,1884913
-0.0133057,-0.0322876,1.08557,-0.854492,0.549316,18.6157,0.025,0.002,178.22,0.0238037,-0.00845337,0,0,0,0,0,40.26,653.332,1884929
0.0241089,0.0586548,1.01184,-0.244141,-0.305176,18.3716,-0.009,-0.087,177.94,0.0250092,-0.00799561,0,0,0,0,0,40.26,653.353,1884943
-0.00634766,0.0212402,1.06494,-0.244141,-0.12207,18.4937,0.02,-0.05,177.35,0.0274963,-0.00717163,0,0,0,0,0,40.26,653.372,1884973
-0.0133667,-0.0897217,1.00647,-0.915527,0.183105,20.3857,0.021,0.062,177.06,0.0287933,-0.00675964,0,0,0,0,0,40.26,653.393,1884989
0.00726318,-0.101929,1.00085,-1.40381,0.0610352,20.752,0,0.073,176.74,0.0301056,-0.0062561,0,0,0,0,0,40.26,653.413,1885004
-0.00244141,0.0175171,1.04669,-1.52588,1.28174,19.5312,0.017,-0.047,176.16,0.0326843,-0.00517273,0,0,0,0,0,40.26,653.433,1885033
0.0127563,-0.0793457,0.967224,-0.854492,0,18.6768,-0.006,0.049,175.87,0.0339813,-0.00463867,0,0,0,0,0,40.26,653.452,1885049
0.0317383,-0.0623779,1.06952,-0.915527,0.0610352,19.3481,-0.022,0.028,175.59,0.0352478,-0.00405884,0,0,0,0,0,40.26,653.473,1885063
0.019165,-0.117737,1.08801,-0.427246,-0.244141,17.5171,-0.015,0.083,175.05,0.0379791,-0.00274658,0,0,0,0,0,40.26,653.493,1885093
0.0308838,-0.12854,1.03308,-3.479,-0.488281,19.9585,-0.028,0.094,174.76,0.0393524,-0.00193787,0,0,0,0,0,40.26,653.512,1885109
0.0423584,-0.0930176,1.05414,-1.2207,-2.01416,18.7988,-0.037,0.056,174.48,0.0406799,-0.0010376,0,0,0,0,0,40.26,653.532,1885123
0.0250244,0.0606079,0.928467,0.183105,-1.70898,19.6533,-0.005,-0.091,173.91,0.0434265,0.000717163,0,0,0,0,0,40.26,653.553,1885153
-0.0078125,-0.0679321,1.07245,0.12207,-1.83105,17.6392,0.015,0.035,173.64,0.0448303,0.00152588,0,0,0,0,0,40.26,653.572,1885169
-0.0128174,0.00762939,1.01489,0.671387,0.244141,18.1885,0.028,-0.036,173.37,0.0462646,0.00231934,0,0,0,0,0,40.26,653.592,1885183
0.0291138,-0.0147705,1.09204,0,-1.34277,16.8457,-0.014,-0.022,172.83,0.0490875,0.00369263,0,0,0,0,0,40.26,653.613,1885213
-0.0596313,-0.112305,1.01605,-0.0610352,1.52588,18.7378,0.06,0.088,172.56,0.0505219,0.00439453,0,0,0,0,0,40.26,653.632,1885229
0.0654907,0.0748901,1.02203,-0.427246,-1.0376,18.0664,-0.039,-0.113,172.28,0.0519714,0.00506592,0,0,0,0,0,40.27,653.653,1885243
-0.0753784,-0.053772,1.00385,0.549316,0,18.3716,0.082,0.034,171.75,0.0547791,0.00622559,0,0,0,0,0,40.27,653.673,1885273
0.0176392,-0.0490112,1.06897,-0.0610352,-1.77002,17.0288,-0.007,0.014,171.49,0.0562439,0.00682068,0,0,0,0,0,40.27,653.692,1885289
-0.0339355,-0.124451,1.03247,-0.366211,-0.12207,18.0664,0.031,0.097,171.23,0.0577393,0.00750732,0,0,0,0,0,40.27,653.713,1885303
-0.0728149,-0.0691528,1.01349,1.40381,-1.89209,15.8081,0.077,0.05,170.7,0.0606689,0.00904846,0,0,0,0,0,40.27,653.733,1885333
-0.00756836,-0.0728149,0.993652,1.2207,-2.62451,18.6157,0.011,0.044,170.44,0.0622101,0.0098877,0,0,0,0,0,40.27,653.753,1885349
0.0717163,-0.0300293,0.991394,0.12207,-2.2583,16.5405,-0.058,-0.01,170.18,0.0637207,0.0107574,0,0,0,0,0,40.27,653.773,1885363
-0.00488281,-0.118103,0.999329,0.671387,-1.15967,17.2729,0,0.09,169.71,0.0666199,0.0124359,0,0,0,0,0,40.27,653.793,1885393
-0.0374146,0.0102539,1.06256,0.976562,0.12207,17.0898,0.057,-0.03,169.19,0.0694733,0.0140228,0,0,0,0,0,40.27,653.822,1885423
-0.0374146,0.0102539,1.06256,0.976562,0.12207,17.0898,0.057,-0.03,169.19,0.0694733,0.0140228,0,0,0,0,0,40.27,653.834,1885423
-0.00396729,-0.128052,1.00256,-1.2207,-0.915527,18.9819,-0.003,0.1,168.63,0.0723419,0.0153656,0,0,0,0,0,40.27,653.853,1885454
-0.0178223,0.0882568,1.04846,2.0752,-0.305176,17.8833,0.054,-0.109,168.34,0.0737915,0.0160522,0,0,0,0,0,40.27,653.874,1885469
0.00439453,-0.117798,1.02014,-0.732422,-0.671387,17.9443,-0.01,0.089,167.81,0.0768433,0.0173035,0,0,0,0,0,40.27,653.896,1885499
0.105225,-0.0497437,1.10431,1.46484,-1.09863,16.8457,-0.093,-0.001,167.54,0.0783081,0.0180054,0,0,0,0,0,40.27,653.913,1885514
-0.121826,-0.242065,1.06036,0.549316,0.976562,17.4561,0.085,0.238,167.3,0.0797729,0.0188904,0,0,0,0,0,40.27,653.933,1885529
0.0529785,0.0620117,0.987732,2.74658,-0.488281,17.7002,-0.019,-0.095,167.03,0.0812836,0.0198517,0,0,0,0,0,40.27,653.953,1885544
0.0386963,0.0140381,1.00085,1.64795,0.0610352,16.7236,-0.015,-0.045,166.25,0.0814209,0.0225525,0,0,0,0,0,40.27,653.992,1885589
-0.0378418,-0.0667114,1.0191,0.183105,0.610352,17.8833,0.039,0.05,165.99,0.0815277,0.023468,0,0,0,0,0,40.27,654.011,1885604
0.06073,-0.0220947,1.03662,1.0376,0.488281,16.4185,-0.044,-0.016,165.47,0.0817413,0.025528,0,0,0,0,0,40.27,654.032,1885634
-0.0113525,-0.0250854,1.05145,1.83105,1.2207,18.0054,0.024,0.004,165.2,0.0818329,0.0265808,0,0,0,0,0,40.27,654.055,1885649
-0.00537109,-0.0619507,1,0,0.732422,19.043,0.007,0.039,164.92,0.0819244,0.0276489,0,0,0,0,0,40.27,654.066,1885664
0.0122681,-0.00549316,1.00946,-0.183105,0.0610352,17.0288,0.005,-0.02,164.65,0.0819244,0.0287476,0,0,0,0,0,40.27,654.089,1885679
0.00219727,-0.0297241,1.00732,0.244141,0.732422,19.7754,0.008,0.006,164.37,0.0819244,0.0298157,0,0,0,0,0,40.27,654.095,1885694
-0.0214844,0.0219727,1.09851,1.46484,-0.427246,17.5781,0.046,-0.038,164.09,0.0819702,0.0308838,0,0,0,0,0,40.27,654.113,1885709
-0.00134277,-0.115173,0.992065,0.854492,0.671387,19.2261,-0.012,0.089,163.81,0.0820312,0.0319672,0,0,0,0,0,40.27,654.134,1885724
0.0268555,-0.0279541,1.04065,0.12207,-0.793457,17.9443,-0.014,-0.002,163.27,0.0820923,0.0345306,0,0,0,0,0,40.28,654.153,1885754
-0.00579834,-0.0447998,0.951416,2.0752,0.244141,17.4561,0.009,0.025,163.02,0.0820923,0.0358734,0,0,0,0,0,40.28,654.173,1885769
0.0162964,-0.0921021,1.00928,1.77002,-1.0376,16.5405,-0.024,0.063,162.77,0.082077,0.0372772,0,0,0,0,0,40.28,654.193,1885784
0.00537109,0.0166626,0.942444,0.976562,-1.09863,18.5547,0.016,-0.035,162.24,0.0820312,0.0402527,0,0,0,0,0,40.28,654.213,1885814
-0.0297852,-0.0505371,1.03406,0.0610352,-0.610352,18.2495,0.031,0.037,161.97,0.0820465,0.0417633,0,0,0,0,0,40.28,654.237,1885829
-0.0109863,0.0272827,0.971313,0.671387,0.183105,20.4468,0.036,-0.041,161.67,0.0821075,0.0432587,0,0,0,0,0,40.28,654.253,1885844
0.0319214,-0.0106201,1.0282,-0.183105,-1.46484,19.4092,-0.015,-0.019,161.09,0.0823669,0.0458679,0,0,0,0,0,40.28,654.273,1885874
-0.0413818,-0.0715332,1.09497,0.610352,0.976562,20.9961,0.035,0.06,160.77,0.0825348,0.0471497,0,0,0,0,0,40.28,654.296,1885889
-0.0152588,-0.0773926,1.04095,2.31934,-1.0376,19.8364,0.007,0.059,160.47,0.0827179,0.0485077,0,0,0,0,0,40.28,654.313,1885904
0.0289917,-0.013855,1.02429,0.671387,-0.488281,20.3857,-0.012,-0.014,159.83,0.082901,0.0514679,0,0,0,0,0,40.28,654.334,1885934
0.0113525,0.0247192,1.0116,-0.427246,-0.671387,20.5688,0.017,-0.045,159.53,0.082901,0.0529327,0,0,0,0,0,40.28,654.353,1885949
0.0413208,-0.0316772,0.9953,-1.09863,0.12207,20.5688,-0.03,-0.002,159.22,0.0828857,0.0543671,0,0,0,0,0,40.28,654.373,1885964
0.0112915,0.101624,0.962463,1.2207,0.366211,19.043,0.045,-0.115,158.63,0.0827942,0.0570984,0,0,0,0,0,40.28,654.393,1885994
0.0244751,0.105347,0.963623,-0.0610352,-2.13623,19.5312,0.034,-0.124,158.33,0.0828094,0.0582581,0,0,0,0,0,40.28,654.413,1886009
-0.0496216,-0.142273,1.00482,-2.62451,-1.46484,17.2119,0.012,0.133,158.06,0.0828552,0.0594177,0,0,0,0,0,40.28,654.433,1886024
0.0340576,0.0443115,1.08154,-0.244141,-1.95312,18.4937,0.006,-0.072,157.49,0.0830841,0.0617828,0,0,0,0,0,40.28,654.452,1886054
-0.0115967,0.0195923,0.942627,-0.427246,-0.854492,18.1274,0.037,-0.029,157.22,0.083252,0.0628662,0,0,0,0,0,40.28,654.474,1886069
-0.0473022,-0.022644,0.983093,-0.12207,-1.83105,17.9443,0.054,0.022,156.95,0.0834808,0.0639343,0,0,0,0,0,40.28,654.494,1886084
0.00170898,-0.0879517,1.1037,0.244141,0,16.7847,-0.013,0.062,156.44,0.0838928,0.0660095,0,0,0,0,0,40.28,654.512,1886114
-0.000305176,-0.106384,0.998535,-0.305176,-0.732422,17.0288,-0.021,0.081,156.19,0.0840607,0.0671539,0,0,0,0,0,40.28,654.532,1886129
0.0195923,0.020813,0.994507,0,0.427246,16.5405,0.012,-0.043,155.93,0.0842133,0.0683289,0,0,0,0,0,40.28,654.553,1886144
0.0341797,0.0168457,0.983154,-0.0610352,-0.183105,16.2354,-0.002,-0.045,155.69,0.0843811,0.0694275,0,0,0,0,0,40.28,654.572,1886159
-0.0134277,0.003479,0.99176,-0.488281,0.915527,16.5405,0.035,-0.013,155.2,0.0843964,0.0717621,0,0,0,0,0,40.28,654.593,1886189
-0.0112915,-0.0556641,1.06006,0.488281,-1.34277,14.9536,0.009,0.037,154.97,0.0844269,0.0729675,0,0,0,0,0,40.28,654.615,1886204
0.0440063,0.0535278,0.981262,-0.488281,-1.95312,17.0288,0.004,-0.083,154.45,0.08461,0.0753784,0,0,0,0,0,40.28,654.645,1886234
-0.026001,-0.0125122,0.994019,-0.610352,-3.11279,16.2354,0.039,0.006,154.2,0.0847321,0.0765076,0,0,0,0,0,40.28,654.66,1886249
0.0557251,0.0241699,1.05353,0.183105,-1.77002,17.5171,-0.016,-0.063,153.94,0.0848846,0.0776062,0,0,0,0,0,40.29,654.672,1886264
0.0239868,0.227783,0.938904,0.671387,-0.366211,16.1743,0.101,-0.229,153.44,0.085083,0.0796509,0,0,0,0,0,40.29,654.694,1886294
0.0411377,-0.113708,1.09393,-0.793457,0.549316,16.7236,-0.064,0.065,152.9,0.0854492,0.0811768,0,0,0,0,0,40.29,654.721,1886324
-0.0387573,-0.059082,1.0495,-0.0610352,1.0376,18.3716,0.03,0.054,152.64,0.0855865,0.082016,0,0,0,0,0,40.29,654.739,1886339
0.0233154,0.019165,1.02643,-1.89209,0.793457,19.165,0.011,-0.044,152.35,0.0857697,0.0828705,0,0,0,0,0,40.29,654.753,1886354
0.000244141,-0.0652466,1.01666,-2.68555,-0.244141,20.2026,-0.008,0.04,151.78,0.0861816,0.0844269,0,0,0,0,0,40.29,654.784,1886384
-0.0297241,0.0375366,1.03265,-0.427246,-0.183105,19.043,0.067,-0.036,151.49,0.0864258,0.0851898,0,0,0,0,0,40.29,654.797,1886399
-0.022522,-0.0646973,1.03589,0,0.488281,17.8833,0.011,0.05,150.91,0.0870361,0.0868225,0,0,0,0,0,40.29,654.829,1886430
-0.022522,-0.0646973,1.03589,0,0.488281,17.8833,0.011,0.05,150.91,0.0870361,0.0868225,0,0,0,0,0,40.29,654.834,1886430
0.0285645,0.0947266,0.959595,-0.305176,-1.15967,18.9209,0.043,-0.112,150.64,0.0873718,0.0876312,0,0,0,0,0,40.29,654.853,1886444
-0.0078125,-0.0770874,1.0368,-1.34277,-0.976562,18.0664,-0.007,0.053,150.07,0.0881348,0.089035,0,0,0,0,0,40.29,654.873,1886474
0.0322876,0.057373,0.977478,-1.2207,-0.854492,19.104,0.023,-0.081,149.79,0.0885162,0.0897217,0,0,0,0,0,40.29,654.901,1886490
0.0595093,-0.0316162,0.964111,-0.427246,-0.915527,18.4326,-0.044,-0.018,149.51,0.0888977,0.0903473,0,0,0,0,0,40.29,654.913,1886504
-0.019104,-0.0167236,0.93988,1.15967,-0.915527,18.5547,0.029,0.008,148.99,0.0897217,0.0915222,0,0,0,0,0,40.29,654.933,1886534
-0.0223999,-0.0408936,0.987122,-0.0610352,-0.671387,16.3574,0.021,0.031,148.74,0.09021,0.0921326,0,0,0,0,0,40.29,654.953,1886550
0.0410767,0.0516357,0.952576,1.77002,-1.34277,17.4561,0.014,-0.08,148.48,0.0907135,0.0926971,0,0,0,0,0,40.29,654.973,1886564
0.0554199,-0.024292,0.925049,-1.89209,-3.05176,18.0664,-0.038,-0.023,147.93,0.0917511,0.0935974,0,0,0,0,0,40.29,654.993,1886594
0.00592041,0.0791016,1.0177,-0.244141,-0.732422,19.4092,0.061,-0.086,147.64,0.0922852,0.0939331,0,0,0,0,0,40.29,655.013,1886610
-0.105225,-0.153748,1.1214,-0.732422,-0.793457,19.2871,0.032,0.169,147.35,0.0928802,0.0943298,0,0,0,0,0,40.29,655.033,1886624
0.039917,0.03479,0.970032,1.09863,0.305176,19.8975,0.008,-0.065,146.75,0.0941162,0.0955963,0,0,0,0,0,40.29,655.054,1886654
0.0765991,0.180054,1.02698,1.09863,-2.31934,18.6157,0.06,-0.208,146.46,0.0947723,0.0960541,0,0,0,0,0,40.29,655.073,1886670
-0.0283203,-0.142212,0.943665,-1.34277,-0.366211,18.9209,-0.033,0.12,146.18,0.0954437,0.0964661,0,0,0,0,0,40.29,655.093,1886684
0.00695801,0.00939941,1.03064,2.68555,-0.0610352,17.9443,0.023,-0.025,145.64,0.0967407,0.0972137,0,0,0,0,0,40.29,655.113,1886714
-0.003479,0.00616455,0.996033,2.31934,-0.549316,18.9819,0.029,-0.016,145.35,0.0974274,0.0975189,0,0,0,0,0,40.29,655.133,1886730
0.022522,-0.0336304,1.01996,0.0610352,-1.40381,18.9819,-0.013,0.001,145.07,0.0981293,0.0975189,0,0,0,0,0,40.29,655.153,1886744
-0.0332031,-0.102661,1.0415,-0.244141,-1.2207,18.6157,-0.008,0.09,144.49,0.0981293,0.0976562,0,0,0,0,0,40.24,655.173,1886774
0.0493164,0.0912476,0.966064,0.366211,-1.09863,19.4092,0.036,-0.114,144.2,0.0981445,0.0977478,0,0,0,0,0,40.24,655.194,1886790
-0.0233154,-0.050354,1.08307,0.610352,-0.183105,18.4326,0.014,0.041,143.92,0.0982056,0.0977936,0,0,0,0,0,40.24,655.214,1886804
-0.00201416,-0.012085,0.988037,0,0.0610352,18.6157,0.017,0,143.36,0.0982513,0.0978699,0,0,0,0,0,40.24,655.233,1886834
0.0825806,0.0150757,0.990967,-1.09863,-1.40381,17.395,-0.033,-0.072,143.09,0.0982361,0.0978546,0,0,0,0,0,40.24,655.253,1886850
0.00585938,-0.0331421,1.04565,-1.09863,-0.671387,17.8223,0,0.011,142.84,0.0982056,0.0977936,0,0,0,0,0,40.24,655.273,1886865
0.0864258,0.0236816,1.04828,0.366211,-1.34277,17.0288,-0.028,-0.082,142.3,0.0980988,0.0977936,0,0,0,0,0,40.24,655.293,1886895
-0.0209961,-0.0918579,0.971008,-1.28174,-0.427246,18.1885,-0.016,0.075,142.03,0.0979919,0.0977936,0,0,0,0,0,40.24,655.313,1886910
0.052124,0.0270996,1.01868,-0.305176,-2.74658,16.8457,0,-0.064,141.77,0.0978851,0.0978088,0,0,0,0,0,40.24,655.333,1886925
-0.000732422,0.0958252,0.971558,0.244141,-2.01416,18.4937,0.083,-0.084,141.23,0.0976105,0.0977936,0,0,0,0,0,40.24,655.354,1886955
0.0514526,0.126587,1.05133,-0.0610352,-3.2959,16.8457,0.065,-0.141,140.98,0.0975647,0.0976257,0,0,0,0,0,40.24,655.373,1886970
-0.0708008,-0.171814,1.01031,-1.70898,0.793457,19.2871,-0.029,0.167,140.7,0.0975647,0.0974884,0,0,0,0,0,40.24,655.393,1886985
0.0658569,0.0923462,1.03943,0.549316,-0.0610352,17.0898,0.034,-0.123,140.17,0.0975494,0.0972137,0,0,0,0,0,40.24,655.413,1887015
-0.0108032,-0.0513306,1.04437,-0.793457,0.427246,17.7612,0.001,0.035,139.9,0.09758,0.0969543,0,0,0,0,0,40.24,655.434,1887030
-0.0220337,-0.141174,1.10901,-2.86865,0.854492,17.334,-0.046,0.11,139.65,0.0975952,0.0967865,0,0,0,0,0,40.24,655.453,1887045
-0.0328979,-0.139587,1.07721,1.28174,3.05176,18.0054,-0.039,0.115,139.13,0.0974121,0.096817,0,0,0,0,0,40.24,655.473,1887075
0.0338135,0.0474243,1.04712,0.12207,0.366211,16.4185,0.032,-0.069,138.87,0.09729,0.0969086,0,0,0,0,0,40.24,655.493,1887090
-0.0325928,-0.112,0.991394,-1.58691,1.0376,18.0664,-0.024,0.094,138.62,0.097168,0.0970306,0,0,0,0,0,40.24,655.513,1887105
-0.013855,-0.0975952,0.99939,-0.305176,0.305176,18.3716,-0.029,0.07,138.09,0.0969696,0.0974731,0,0,0,0,0,40.24,655.533,1887135
0.0291748,0.000183105,1.02374,0.183105,-0.854492,16.5405,0.004,-0.031,137.83,0.0968475,0.0977478,0,0,0,0,0,40.24,655.553,1887150
0.00793457,-0.0784912,1.01935,-0.854492,-1.64795,17.395,-0.033,0.04,137.58,0.0967102,0.0980225,0,0,0,0,0,40.24,655.573,1887165
0.0949707,-0.0192261,0.988708,-0.366211,-1.46484,16.1133,-0.057,-0.061,137.07,0.0963745,0.0988617,0,0,0,0,0,40.24,655.593,1887195
0.0140381,0.00372314,1.03571,-0.0610352,-0.305176,16.7847,0.018,-0.023,136.83,0.0961609,0.0992432,0,0,0,0,0,40.24,655.616,1887210
0.0629272,-0.0491333,0.966064,0.183105,-1.15967,17.334,-0.055,-0.018,136.57,0.0959167,0.0995941,0,0,0,0,0,40.24,655.636,1887225
0.00732422,-0.0131226,0.958313,0.183105,0.183105,18.0054,0.009,-0.005,136.05,0.0954742,0.100204,0,0,0,0,0,40.24,655.653,1887255
-0.0171509,-0.0150146,1.05664,-0.793457,-0.183105,18.6768,0.028,0.011,135.77,0.0952911,0.100494,0,0,0,0,0,40.24,655.674,1887270
0.0344849,-0.00445557,0.962708,-2.19727,-0.488281,19.4092,-0.003,-0.031,135.48,0.0951233,0.100769,0,0,0,0,0,40.29,655.693,1887285
-0.00836182,0.0129395,1.0094,-1.40381,-1.2207,18.9819,0.04,-0.014,134.91,0.0948181,0.101349,0,0,0,0,0,40.29,655.713,1887315
-0.00189209,-0.0615234,0.970947,-0.427246,-1.28174,19.4702,-0.018,0.033,134.6,0.0946808,0.101639,0,0,0,0,0,40.29,655.732,1887330
-0.000488281,0.0311279,1.04749,0.671387,-0.183105,16.6626,0.049,-0.032,134.34,0.0945892,0.101944,0,0,0,0,0,40.29,655.755,1887345
0.0588379,0.0209351,1.03033,-0.854492,-0.976562,19.4092,0,-0.068,134.06,0.0945129,0.102188,0,0,0,0,0,40.29,655.772,1887360
0.0307007,0.0319214,1.01794,-1.58691,-0.488281,19.7144,0.028,-0.055,133.48,0.0943756,0.102539,0,0,0,0,0,40.29,655.793,1887390
-0.0732422,-0.150208,0.980286,-1.2207,0.610352,19.7144,-0.034,0.146,133.2,0.0943146,0.102768,0,0,0,0,0,40.29,655.813,1887405
-0.013855,0.0910645,1.01331,0.732422,0.488281,17.5781,0.102,-0.062,132.92,0.0942841,0.103043,0,0,0,0,0,40.29,655.832,1887420
0.0724487,0.0929565,0.844788,-2.50244,-2.2583,15.9912,0.041,-0.124,132.41,0.0945587,0.103226,0,0,0,0,0,40.29,655.853,1887450
0.0249634,0.122314,1.00684,-0.244141,-1.40381,14.9536,0.1,-0.111,132.18,0.0948181,0.103088,0,0,0,0,0,40.29,655.874,1887465
-0.0235596,-0.0461426,1.10333,0.183105,-0.427246,13.855,0.009,0.037,131.72,0.0955353,0.102615,0,0,0,0,0,40.29,655.893,1887495
0.0244141,-0.0791016,0.976196,-2.44141,-0.0610352,17.2119,-0.05,0.023,131.48,0.095871,0.102417,0,0,0,0,0,40.29,655.912,1887510
0.0507202,-0.0196533,1.00928,-2.31934,-0.854492,15.686,-0.022,-0.035,131.23,0.0961761,0.102219,0,0,0,0,0,40.29,655.932,1887525
0.0484009,0.078125,1.00287,-0.488281,-0.854492,17.334,0.053,-0.098,130.75,0.0968323,0.101746,0,0,0,0,0,40.29,655.953,1887555
-0.0078125,-0.0720215,1.04504,-0.488281,0.12207,15.3198,-0.022,0.041,130.51,0.097229,0.101456,0,0,0,0,0,40.29,655.972,1887570
0.0258179,-0.0255127,1.01965,-0.244141,0.488281,15.8081,-0.009,-0.014,130.27,0.09758,0.101166,0,0,0,0,0,40.29,655.993,1887585
0.0210571,-0.0197754,1.04669,-0.915527,-0.244141,16.0522,-0.001,-0.015,129.79,0.0979462,0.100479,0,0,0,0,0,40.29,656.013,1887615
-0.0203247,-0.0852661,0.986694,-0.244141,0.549316,17.5781,-0.027,0.058,129.53,0.0979156,0.100143,0,0,0,0,0,40.29,656.033,1887630
-0.0338135,-0.0466309,1.08295,-1.0376,-0.183105,17.2729,0.013,0.043,129.27,0.0978851,0.099884,0,0,0,0,0,40.29,656.053,1887645
-0.012146,-0.0872192,1.03906,-1.89209,0.0610352,18.7988,-0.033,0.051,128.71,0.0978699,0.0993958,0,0,0,0,0,40.29,656.076,1887675
0.0631714,0.0809326,1.02759,-1.40381,-1.2207,17.7612,0.051,-0.112,128.44,0.0978699,0.0991211,0,0,0,0,0,40.29,656.093,1887690
-0.00378418,-0.0872803,1.02069,-0.854492,1.0376,18.9209,-0.039,0.044,128.15,0.0978851,0.0988007,0,0,0,0,0,40.29,656.113,1887705
-0.0524902,-0.112,0.997192,-2.13623,0.976562,18.1274,-0.03,0.098,127.63,0.0978699,0.0981598,0,0,0,0,0,40.29,656.133,1887735
-0.020874,-0.110962,0.976501,-1.58691,0.732422,17.9443,-0.048,0.071,127.36,0.0977936,0.0979767,0,0,0,0,0,40.29,656.153,1887751
0.0593262,-0.0596313,1.08197,-1.95312,-0.366211,17.0898,-0.053,-0.024,127.1,0.0976562,0.0978088,0,0,0,0,0,40.29,656.173,1887765
0.0296631,-0.0604248,1.03314,-2.80762,-0.12207,16.7236,-0.036,-0.001,126.6,0.0972748,0.0977783,0,0,0,0,0,40.26,656.194,1887795
0.0198975,0.00299072,1.05103,-1.15967,1.15967,16.1133,0.02,-0.031,126.36,0.0970612,0.0977783,0,0,0,0,0,40.26,656.214,1887811
0.0341797,-0.0568237,1.07684,0,0,17.2119,-0.034,-0.009,126.1,0.0968323,0.0977631,0,0,0,0,0,40.26,656.233,1887825
-0.00927734,-0.0175781,0.960022,-0.549316,0.12207,20.0806,0.019,0.004,125.58,0.0961151,0.0982666,0,0,0,0,0,40.26,656.254,1887855
-0.00183105,0.00646973,1.02124,-1.46484,-2.19727,17.5171,0.036,-0.016,125.3,0.0957794,0.098587,0,0,0,0,0,40.26,656.273,1887871
0.0236206,-0.0302734,0.968323,-1.83105,-2.38037,18.7988,-0.008,-0.016,125.02,0.0954437,0.098587,0,0,0,0,0,40.26,656.293,1887885
0.0965576,0.0345459,0.935303,2.01416,-5.7373,15.564,0.003,-0.113,124.5,0.0951691,0.0981598,0,0,0,0,0,40.26,656.313,1887915
-0.0298462,-0.245544,1.17731,0.0610352,0.976562,17.0288,-0.149,0.146,124.24,0.0950165,0.0978699,0,0,0,0,0,40.26,656.333,1887931
-0.0488892,-0.255798,0.899536,-2.68555,-1.89209,17.7002,-0.156,0.172,123.98,0.094635,0.0977936,0,0,0,0,0,40.26,656.353,1887945
0.0560913,0.00811768,1.00562,-1.95312,-0.976562,16.1743,0.008,-0.064,123.48,0.0938721,0.09758,0,0,0,0,0,40.26,656.373,1887975
-0.0569458,-0.0327759,1.01379,-1.28174,-0.915527,15.3198,0.036,0.052,123.25,0.0935516,0.0973969,0,0,0,0,0,40.26,656.393,1887991
-0.0232544,-0.00878906,1.0061,-0.793457,0.549316,17.395,0.038,0.01,123,0.0932922,0.0972443,0,0,0,0,0,40.26,656.413,1888005
-0.0045166,0.0219727,0.991272,-0.488281,-1.0376,16.2354,0.053,-0.021,122.52,0.0927277,0.0969391,0,0,0,0,0,40.26,656.435,1888035
-0.00134277,0.0754395,0.956848,0,-1.34277,16.2964,0.096,-0.052,122.27,0.0925446,0.0967255,0,0,0,0,0,40.26,656.453,1888051
-0.0372925,-0.0515747,1.08838,0.549316,-0.549316,14.4043,0.012,0.044,122.04,0.0924377,0.0964966,0,0,0,0,0,40.26,656.473,1888065
-0.0270996,-0.0966187,1.00775,2.38037,0,15.1978,-0.034,0.059,121.56,0.0921783,0.0962982,0,0,0,0,0,40.26,656.493,1888095
0.0393677,-0.0687256,1.05365,1.58691,0.244141,14.5874,-0.044,-0.011,121.33,0.0919647,0.0962677,0,0,0,0,0,40.26,656.513,1888111
-0.0127563,-0.0595093,1.0155,0.732422,-1.34277,16.2354,-0.011,0.029,120.86,0.0914764,0.0962219,0,0,0,0,0,40.26,656.549,1888140
0.00512695,-0.0117188,1.03564,-0.976562,-1.15967,18.0054,0.021,-0.01,120.34,0.091507,0.0961609,0,0,0,0,0,40.26,656.574,1888171
-0.0346069,0.0256348,1.00635,-1.70898,-0.915527,18.1274,0.072,0.005,120.07,0.0915985,0.0961609,0,0,0,0,0,40.26,656.594,1888185
0.0346069,0.193848,1.00079,-2.86865,-2.19727,15.9912,0.184,-0.136,119.52,0.092041,0.0960541,0,0,0,0,0,40.26,656.613,1888215
0.0592651,0.0580444,0.935974,-1.70898,-2.62451,17.8833,0.053,-0.09,119.26,0.0924835,0.0957947,0,0,0,0,0,40.26,656.634,1888231
0.0366821,0.0411987,1.01868,-0.183105,-0.793457,15.9912,0.052,-0.062,119.01,0.0930176,0.0954285,0,0,0,0,0,40.26,656.653,1888245
0.0234985,0.0849609,0.958252,3.35693,-1.70898,13.977,0.095,-0.07,118.55,0.0943298,0.0944214,0,0,0,0,0,40.26,656.674,1888275
-0.147095,-0.315002,1.07141,-2.2583,0.793457,14.5874,-0.171,0.269,118.33,0.094986,0.0940094,0,0,0,0,0,40.26,656.693,1888291
0.0278931,-0.0128784,1.06378,-0.12207,0.549316,16.7847,0.01,-0.028,118.1,0.09552,0.09375,0,0,0,0,0,40.27,656.714,1888306
0.0286865,-0.0948486,1.0658,2.2583,-0.549316,13.977,-0.061,0.008,117.88,0.0960388,0.0934906,0,0,0,0,0,40.27,656.732,1888321
0.06073,0.0241089,0.984314,0.12207,-1.2207,17.6392,0.026,-0.074,117.41,0.0963745,0.0936127,0,0,0,0,0,40.27,656.753,1888351
-0.00848389,-0.012085,1.12598,0,-0.610352,14.5874,0.031,0.002,117.19,0.0964966,0.0937195,0,0,0,0,0,40.27,656.772,1888366
-0.00982666,-0.079895,0.979675,0.427246,-0.915527,16.5405,-0.033,0.035,116.95,0.0966034,0.0938568,0,0,0,0,0,40.27,656.792,1888381
-0.0128174,-0.0233765,1.02576,-0.305176,-0.305176,15.5029,0.019,0.012,116.47,0.0966949,0.0942535,0,0,0,0,0,40.27,656.813,1888411
0.00524902,-0.0848999,0.99823,0.183105,-1.0376,16.9678,-0.044,0.023,116.23,0.0967255,0.0944977,0,0,0,0,0,40.27,656.833,1888426
0.0819092,-0.00964355,1.08765,-0.183105,-0.183105,17.2729,-0.007,-0.079,115.73,0.0967865,0.0948792,0,0,0,0,0,40.27,656.852,1888456
-0.0594482,-0.156555,1.04376,-1.52588,0.915527,19.2871,-0.08,0.111,115.45,0.096756,0.0950623,0,0,0,0,0,40.27,656.872,1888471
0.103149,-0.0591431,0.992249,-0.976562,-0.427246,22.8271,-0.063,-0.077,115.13,0.0966492,0.0952606,0,0,0,0,0,40.27,656.892,1888486
-0.0302734,-0.0281982,0.970337,2.0752,-1.34277,28.7476,0.019,0.03,114.35,0.0964813,0.0955353,0,0,0,0,0,40.27,656.913,1888516
0.0464478,-0.03302,1.06067,1.09863,0.366211,31.0669,-0.013,-0.038,113.9,0.0964355,0.0956726,0,0,0,0,0,40.27,656.933,1888531
-0.0307617,-0.132507,1.04755,-0.610352,-0.12207,32.7148,-0.074,0.071,113.41,0.0963287,0.0958405,0,0,0,0,0,40.27,656.953,1888546
0.0350952,0.0758057,0.932495,-1.09863,-1.64795,38.0249,0.088,-0.069,112.35,0.0960236,0.0963898,0,0,0,0,0,40.27,656.972,1888576
-0.00463867,0.0817261,1.04675,-0.0610352,-2.92969,37.7808,0.114,-0.034,111.78,0.0960388,0.0965881,0,0,0,0,0,40.27,656.992,1888591
-0.0213013,0.133179,0.945251,0.0610352,-2.80762,36.6821,0.164,-0.035,111.22,0.0962372,0.0967407,0,0,0,0,0,40.27,657.012,1888606
-0.00488281,-0.0696411,1.15082,1.2207,0.244141,36.9873,-0.024,0.021,110.08,0.0968781,0.0969543,0,0,0,0,0,40.27,657.036,1888636
0.0517578,-0.00585938,0.998718,-2.68555,-2.86865,35.2783,0.011,-0.052,109.54,0.0971832,0.0970459,0,0,0,0,0,40.27,657.054,1888651
0.112915,0.153259,1.00177,-0.0610352,-1.64795,33.6304,0.144,-0.16,108.47,0.0980835,0.096817,0,0,0,0,0,40.27,657.079,1888681
-0.0665894,-0.173218,1.10107,-1.2207,-0.305176,31.6772,-0.105,0.111,107.99,0.0986481,0.0965729,0,0,0,0,0,40.27,657.093,1888696
-0.0637207,-0.206665,1.03168,-2.44141,2.92969,32.1655,-0.14,0.118,107.51,0.0990295,0.0964813,0,0,0,0,0,40.27,657.116,1888711
0.113464,0.188293,0.945312,0.12207,-1.28174,29.6631,0.181,-0.167,107.05,0.0994568,0.0963593,0,0,0,0,0,40.27,657.133,1888726
-0.00317383,-0.109131,0.947266,-0.793457,-1.52588,31.189,-0.069,0.029,106.15,0.10054,0.0960236,0,0,0,0,0,40.27,657.153,1888756
0.0516968,-0.0166626,1.05212,0.305176,-2.13623,29.9072,0.008,-0.049,105.7,0.101013,0.095871,0,0,0,0,0,40.27,657.176,1888771
-0.0479736,-0.0740967,1.02271,-1.09863,-3.479,31.1279,-0.021,0.062,105.25,0.101486,0.0957184,0,0,0,0,0,40.27,657.195,1888786
0.0673828,0.0491333,0.999695,0.244141,-2.44141,31.6772,0.067,-0.08,104.26,0.102356,0.0956421,0,0,0,0,0,40.28,657.213,1888816
0.0126343,0.0181274,0.942627,-1.15967,-4.76074,32.1045,0.049,-0.018,103.79,0.102859,0.0955353,0,0,0,0,0,40.28,657.234,1888831
0.0266113,-0.00939941,1.09259,0.732422,-2.38037,32.6538,0.025,-0.025,103.29,0.103424,0.0953979,0,0,0,0,0,40.28,657.253,1888846
0.00524902,-0.0291138,1.02814,0.366211,-0.244141,31.4331,0.008,0.001,102.33,0.104431,0.0951385,0,0,0,0,0,40.28,657.274,1888876
-0.0409546,-0.0820923,1.0108,0.366211,0.549316,32.7759,-0.034,0.058,101.85,0.104889,0.095047,0,0,0,0,0,40.28,657.293,1888891
0.0892944,-0.00750732,1.01184,-0.244141,-0.549316,30.5176,0.012,-0.084,101.38,0.105331,0.0949554,0,0,0,0,0,40.28,657.313,1888906
-0.0316772,-0.0698242,0.907166,-1.89209,-0.488281,33.02,-0.028,0.045,100.45,0.106201,0.094696,0,0,0,0,0,40.28,657.333,1888936
0.0935059,0.0804443,1.10181,-0.427246,-1.2207,30.5786,0.104,-0.104,99.98,0.106689,0.0945435,0,0,0,0,0,40.28,657.356,1888951
-0.0688477,-0.11438,1.0177,-0.610352,-0.732422,30.4565,-0.063,0.088,99.53,0.107193,0.0943909,0,0,0,0,0,40.28,657.373,1888966
0.0258789,0.132568,0.968628,0.976562,-2.0752,30.0293,0.163,-0.043,98.59,0.108246,0.0941772,0,0,0,0,0,40.28,657.394,1888996
-0.0374756,-0.00665283,1.00793,-1.40381,-2.80762,31.6162,0.036,0.04,98.13,0.108978,0.0940552,0,0,0,0,0,40.28,657.413,1889011
0.0214844,0.115662,0.876282,-0.610352,-2.99072,30.5176,0.144,-0.034,97.65,0.109818,0.0939484,0,0,0,0,0,40.28,657.433,1889026
0.00842285,-0.0792236,1.10431,-1.0376,-0.854492,30.8838,-0.038,0.005,96.72,0.112,0.0934906,0,0,0,0,0,40.28,657.459,1889056
0.0183716,-0.0703125,0.970032,-0.244141,-1.64795,31.7993,-0.035,-0.006,96.24,0.113083,0.0934906,0,0,0,0,0,40.28,657.473,1889071
0.0595703,-0.142151,1.02844,0.305176,0.732422,29.7852,-0.108,-0.04,95.79,0.114059,0.0934448,0,0,0,0,0,40.28,657.493,1889086
-0.02771,0.013916,0.995789,0.915527,-0.366211,29.3579,0.053,0.031,95.35,0.115005,0.0934143,0,0,0,0,0,40.28,657.513,1889101
0.0772705,0.0725708,1.04657,1.58691,0.244141,27.771,0.105,-0.077,94.47,0.117142,0.093338,0,0,0,0,0,40.28,657.534,1889131
-0.034729,-0.151794,1.03021,-1.52588,-0.305176,30.7617,-0.11,0.05,94.03,0.118256,0.0932617,0,0,0,0,0,40.28,657.553,1889146
-0.0244141,-0.0193481,0.994873,-0.427246,-0.549316,31.4331,0.019,0.03,93.55,0.119308,0.0932465,0,0,0,0,0,40.28,657.573,1889161
-0.015686,0.010498,0.958252,-0.854492,-2.56348,32.8979,0.046,0.02,92.59,0.121567,0.0933228,0,0,0,0,0,40.28,657.593,1889192
0.0467529,-0.0220337,1.01068,1.0376,-3.60107,32.7148,0.014,-0.04,92.08,0.122787,0.0933685,0,0,0,0,0,40.28,657.615,1889206
-0.012146,-0.0926514,0.94928,1.70898,-1.70898,34.1797,-0.057,0.019,91.1,0.124924,0.0935669,0,0,0,0,0,40.28,657.633,1889236
0.0393677,0.00317383,0.983032,1.40381,-3.05176,34.1187,0.038,-0.032,90.58,0.125916,0.0937042,0,0,0,0,0,40.28,657.653,1889252
0.0146484,-0.00598145,1.06836,-0.12207,-2.56348,32.8369,0.032,-0.006,90.09,0.126953,0.093811,0,0,0,0,0,40.28,657.673,1889266
0.0365601,-0.0012207,0.992981,-0.793457,-1.2207,32.6538,0.035,-0.027,89.08,0.129364,0.0938721,0,0,0,0,0,40.28,657.693,1889296
0.0388794,0.107483,1.02576,0.427246,-0.488281,32.5928,0.144,-0.026,88.58,0.130753,0.0938416,0,0,0,0,0,40.28,657.717,1889312
0.0043335,-0.0514526,1.00067,-0.0610352,-0.610352,33.8745,-0.016,0.003,88.09,0.132233,0.0937958,0,0,0,0,0,40.28,657.733,1889326
-0.0252075,0.0314941,1.01556,0.244141,-0.854492,32.6538,0.065,0.036,87.11,0.135223,0.09375,0,0,0,0,0,40.28,657.753,1889356
0.0151367,-0.0821533,1.00842,0,-0.915527,33.3252,-0.046,-0.01,86.6,0.136765,0.0937653,0,0,0,0,0,40.28,657.773,1889372
-0.0369263,-0.0392456,0.981384,0.915527,-1.83105,32.2266,-0.008,0.043,86.12,0.13826,0.0937958,0,0,0,0,0,40.28,657.793,1889386
-0.00927734,-0.0407715,1.05688,1.09863,-2.01416,32.2876,-0.006,0.016,85.64,0.13826,0.0938721,0,0,0,0,0,40.28,657.813,1889401
-0.053833,0.0752563,1.00488,2.2583,-2.44141,30.7617,0.102,0.071,84.65,0.138412,0.0940704,0,0,0,0,0,40.28,657.833,1889432
0.0206909,-0.107788,1.06543,1.89209,-1.0376,32.1655,-0.07,-0.019,84.17,0.138565,0.0942383,0,0,0,0,0,40.28,657.853,1889446
0.09021,0.0302124,0.952942,0.793457,-2.38037,32.2266,0.069,-0.074,83.68,0.138718,0.0943298,0,0,0,0,0,40.28,657.873,1889461
0.00201416,-0.029541,0.996216,0,-1.0376,32.8979,0.002,0.007,82.72,0.139328,0.0944672,0,0,0,0,0,40.28,657.893,1889492
0.111938,-0.0297241,1.00397,0.366211,-0.488281,31.6162,0.016,-0.101,82.24,0.139679,0.0944672,0,0,0,0,0,40.28,657.912,1889506
-0.050415,-0.0266113,1.10541,1.0376,1.46484,29.3579,0,0.061,81.78,0.139679,0.0944519,0,0,0,0,0,40.28,657.933,1889521
0.0525513,-0.0679321,0.965454,0.549316,0.183105,28.9307,-0.03,-0.049,80.89,0.139709,0.0943909,0,0,0,0,0,40.28,657.953,1889552
-0.0504761,-0.0456543,1.07367,2.13623,0.183105,28.5034,-0.021,0.057,80.46,0.139694,0.0943451,0,0,0,0,0,40.28,657.973,1889566
-0.0357056,-0.0621948,1.09027,1.34277,0.854492,30.1514,-0.036,0.038,80.01,0.139633,0.0943604,0,0,0,0,0,40.28,657.992,1889581
0.0088501,0.00683594,1.0144,-0.793457,-1.77002,31.311,0.037,0.006,79.09,0.139435,0.0943909,0,0,0,0,0,40.28,658.012,1889612
0.0384521,0.0109253,1.00708,-0.427246,-1.95312,32.5317,0.047,-0.022,78.6,0.139374,0.0943756,0,0,0,0,0,40.28,658.032,1889626
-0.0427856,-0.180725,1.06934,-0.854492,-0.427246,33.4473,-0.155,0.018,77.61,0.139038,0.0943604,0,0,0,0,0,40.28,658.053,1889656
0.0480957,-0.00317383,0.973389,0.793457,-2.0752,33.6914,0.034,-0.033,77.11,0.138702,0.0943451,0,0,0,0,0,40.28,658.075,1889672
-0.0012207,-0.00189209,0.999512,1.34277,-1.0376,32.7148,0.025,0.015,76.62,0.138412,0.0943146,0,0,0,0,0,40.28,658.093,1889687
0.0799561,0.0794678,0.910156,-1.09863,-2.74658,33.02,0.121,-0.044,76.12,0.138214,0.0942688,0,0,0,0,0,40.28,658.112,1889701
-0.0338745,-0.0469971,1.04028,0.0610352,0.488281,32.6538,-0.026,0.037,75.12,0.138214,0.0939941,0,0,0,0,0,40.28,658.132,1889732
-0.0502319,-0.0262451,0.913391,-1.0376,-0.549316,33.3862,-0.013,0.056,74.62,0.138229,0.0939026,0,0,0,0,0,40.28,658.152,1889747
0.0563354,0.0634766,1.03168,-0.305176,-0.732422,31.8603,0.104,-0.02,73.63,0.138275,0.0937805,0,0,0,0,0,40.28,658.175,1889777
-0.02948,0.0200195,0.963135,-0.549316,-1.15967,32.8369,0.036,0.048,73.14,0.138443,0.0937347,0,0,0,0,0,40.28,658.194,1889792
0.0526123,-0.00488281,0.978027,0.671387,-0.610352,32.8979,0.037,-0.037,72.64,0.138641,0.093689,0,0,0,0,0,40.28,658.213,1889807
-0.0205688,-0.0917969,1.09949,-1.40381,-1.34277,32.4707,-0.063,0.008,72.16,0.138824,0.0936279,0,0,0,0,0,40.28,658.233,1889822
-0.0769043,-0.189087,1.09015,0.915527,0.183105,34.4849,-0.174,0.028,71.14,0.13884,0.0936432,0,0,0,0,0,40.26,658.253,1889852
0.0339966,0.0241089,1.05151,1.34277,-0.854492,32.2876,0.062,-0.007,70.65,0.138687,0.0937042,0,0,0,0,0,40.26,658.278,1889867
0.0145874,0.00115967,0.959106,-0.427246,-3.78418,32.959,0.031,0.002,70.16,0.138596,0.0937042,0,0,0,0,0,40.26,658.293,1889882
0.0800171,0.013855,1.01825,0.12207,-1.09863,32.2266,0.067,-0.051,69.16,0.138626,0.0936737,0,0,0,0,0,40.26,658.315,1889912
0.00445557,0.031311,0.988586,0.610352,0.0610352,32.959,0.056,0.025,68.67,0.138763,0.0936279,0,0,0,0,0,40.26,658.333,1889927
0.0975952,0.0858154,1.01947,-0.427246,-1.40381,32.2266,0.141,-0.039,67.69,0.139175,0.0936279,0,0,0,0,0,40.26,658.353,1889957
-0.0160522,-0.0904541,0.96521,-1.77002,-0.244141,33.7524,-0.065,-0.002,67.18,0.139465,0.0935822,0,0,0,0,0,40.26,658.374,1889972
0.0325928,-0.0452271,1.01996,-0.732422,-1.0376,32.7759,-0.003,-0.029,66.69,0.139709,0.0935364,0,0,0,0,0,40.26,658.393,1889987
0.0119629,-0.0174561,1.03015,-0.305176,-0.671387,34.0576,0.014,0,66.18,0.139709,0.0934601,0,0,0,0,0,40.26,658.413,1890002
0.000549316,-0.0651245,1.0462,0.671387,-2.13623,33.5693,-0.033,-0.008,65.17,0.139633,0.0933838,0,0,0,0,0,40.26,658.434,1890032
-0.0427246,0.00512695,1.06665,0.0610352,-1.70898,33.1421,0.011,0.06,64.68,0.139557,0.0933838,0,0,0,0,0,40.26,658.454,1890047
-0.0286255,-0.0635986,0.958618,0.854492,-1.89209,33.3252,-0.046,0.015,64.18,0.13945,0.0934448,0,0,0,0,0,40.26,658.473,1890062
-0.0144653,0.0315552,1.02319,0.610352,-2.50244,31.1279,0.044,0.047,63.22,0.139328,0.0935822,0,0,0,0,0,40.26,658.494,1890092
0.0067749,-0.0476685,0.9729,0.244141,-2.19727,31.7383,-0.017,-0.008,62.74,0.139328,0.093689,0,0,0,0,0,40.26,658.514,1890107
0.0770264,0.108337,0.968079,-0.427246,-0.793457,29.602,0.152,0.003,61.82,0.139343,0.0937805,0,0,0,0,0,40.26,658.534,1890137
-0.0213013,0.00457764,1.00842,0.488281,0.366211,30.2734,0.015,0.041,61.36,0.139511,0.0938416,0,0,0,0,0,40.26,658.553,1890152
0.0232544,-0.0155029,1.03009,0.915527,1.34277,30.6396,0.019,-0.007,60.9,0.139511,0.0939331,0,0,0,0,0,40.26,658.574,1890167
-0.0284424,0.000854492,0.998047,-1.46484,-0.854492,32.7759,0.007,0.044,59.94,0.139587,0.0940857,0,0,0,0,0,40.26,658.593,1890197
0.00634766,0.059021,0.970642,-1.89209,-1.2207,32.1655,0.075,0.043,59.45,0.139679,0.094223,0,0,0,0,0,40.26,658.613,1890212
0.0109863,0.0324707,1.05109,-0.0610352,-0.488281,32.8979,0.056,0.027,58.95,0.139877,0.0944214,0,0,0,0,0,40.26,658.633,1890227
-0.0359497,0.0537109,0.990906,1.77002,-1.70898,31.7993,0.047,0.077,58.45,0.140137,0.0946808,0,0,0,0,0,40.26,658.653,1890242
0.0670776,0.0558472,0.998108,-1.15967,-2.13623,33.02,0.103,-0.007,57.47,0.140732,0.0953217,0,0,0,0,0,40.26,658.679,1890272
0.0361328,-0.0045166,0.992432,0.0610352,-0.549316,32.2266,0.036,-0.012,56.99,0.141144,0.0953217,0,0,0,0,0,40.26,658.693,1890287
0.000427246,-0.0795288,1.10095,-0.915527,0.305176,32.4707,-0.043,-0.022,56.5,0.141541,0.0952911,0,0,0,0,0,40.26,658.713,1890302
0.0328369,0.0304565,1.02863,-0.366211,0.305176,32.0435,0.064,0.011,55.5,0.142563,0.0951385,0,0,0,0,0,40.26,658.733,1890332
-0.02948,-0.0631104,0.991943,-2.56348,-0.915527,33.9355,-0.048,0.008,55,0.143143,0.0951385,0,0,0,0,0,40.25,658.753,1890347
0.0713501,0.0595703,1.02966,1.15967,0.366211,31.7383,0.111,-0.001,53.98,0.144318,0.0950775,0,0,0,0,0,40.25,658.773,1890377
-0.000976562,0.00476074,0.987732,-0.732422,-1.28174,33.5693,0.024,0.023,53.49,0.145035,0.0950623,0,0,0,0,0,40.25,658.793,1890392
-0.052124,-0.052002,1.01276,0.793457,0.427246,34.9121,-0.051,0.03,52.96,0.145737,0.0950623,0,0,0,0,0,40.25,658.813,1890407
-0.0366821,0.0141602,1.0603,0.793457,-0.671387,32.7148,0.01,0.058,52.46,0.146408,0.0951385,0,0,0,0,0,40.25,658.834,1890422
-0.00292969,-0.0651245,0.987244,0.671387,-0.976562,34.9731,-0.032,-0.018,51.43,0.147476,0.0952454,0,0,0,0,0,40.25,658.854,1890452
-0.0300293,0.0405884,1.06519,0.732422,-1.58691,33.2031,0.033,0.07,50.93,0.147964,0.0953064,0,0,0,0,0,40.25,658.874,1890467
0.0586548,0.0283203,0.947449,-0.915527,-2.62451,34.9731,0.077,-0.008,50.41,0.148514,0.0954132,0,0,0,0,0,40.25,658.894,1890482
-0.0592041,-0.0908813,1.14355,-0.549316,-0.244141,32.959,-0.086,0.009,49.39,0.15007,0.0957184,0,0,0,0,0,40.25,658.913,1890512
0.0580444,-0.0397949,1.00879,-0.915527,-0.183105,35.7056,0.026,-0.049,48.87,0.150848,0.095871,0,0,0,0,0,40.25,658.936,1890527
-0.0429688,0.0454102,1.04437,-1.34277,-0.0610352,32.1655,0.023,0.084,47.87,0.152557,0.0961151,0,0,0,0,0,40.25,658.962,1890557
0.0916748,0.0333252,0.982971,-1.15967,-1.70898,33.6914,0.104,-0.024,47.36,0.153534,0.0963135,0,0,0,0,0,40.25,658.981,1890572
-0.0102539,-0.201477,1.11145,1.40381,2.01416,31.6162,-0.135,-0.106,46.88,0.15448,0.0964203,0,0,0,0,0,40.25,658.995,1890587
-0.0896606,-0.0452271,1.08411,0.854492,0.610352,32.2876,-0.077,0.056,46.41,0.155289,0.0964813,0,0,0,0,0,40.25,659.012,1890602
0.0176392,0.0968018,1.05322,1.89209,-2.31934,31.8603,0.098,0.076,45.43,0.15686,0.0968933,0,0,0,0,0,40.25,659.032,1890633
-0.00311279,0.127319,0.940918,-1.0376,-3.17383,32.7759,0.102,0.111,44.95,0.157806,0.0972748,0,0,0,0,0,40.25,659.053,1890647
0.0265503,0.102173,0.991699,0.12207,-2.62451,33.9966,0.106,0.074,44.43,0.158905,0.0977783,0,0,0,0,0,40.25,659.072,1890662
0.0132446,-0.0441895,1.01044,-0.610352,-2.19727,34.4238,-0.005,-0.02,43.42,0.161133,0.0989532,0,0,0,0,0,40.25,659.097,1890693
-0.0022583,-0.00445557,1.03461,0.183105,-1.95312,33.0811,0.009,0.02,42.91,0.161133,0.0995483,0,0,0,0,0,40.25,659.112,1890707
0.0792847,0.0919189,0.990601,-1.28174,-1.52588,33.3252,0.133,0.036,41.92,0.161316,0.100922,0,0,0,0,0,40.25,659.134,1890737
0.122253,0.110229,0.91803,-0.976562,-1.89209,32.4097,0.176,0.022,41.42,0.161682,0.101685,0,0,0,0,0,40.25,659.152,1890753
-0.0353394,0.00262451,1.10657,-1.89209,-0.0610352,31.6162,-0.011,0.049,40.94,0.162155,0.102493,0,0,0,0,0,40.25,659.172,1890767
-0.00463867,-0.0334473,0.961121,-2.99072,0.427246,33.3252,-0.012,0,40.45,0.162613,0.103348,0,0,0,0,0,40.25,659.193,1890782
0.0117798,0.115906,1.03339,-0.12207,-1.09863,31.9214,0.095,0.105,39.48,0.163696,0.105103,0,0,0,0,0,40.25,659.213,1890813
-0.0281982,0.00158691,0.946655,0.0610352,-1.64795,33.8135,-0.008,0.039,38.98,0.164352,0.106125,0,0,0,0,0,40.25,659.233,1890827
-0.0276489,-0.00860596,1.03998,-0.549316,-2.31934,35.2783,-0.014,0.033,37.94,0.16568,0.108215,0,0,0,0,0,40.25,659.258,1890857
-0.0290527,-0.0163574,1.00305,-1.34277,-1.95312,37.2925,-0.02,0.027,37.39,0.166336,0.109314,0,0,0,0,0,40.25,659.272,1890873
0.0648804,-0.0187378,1.01373,-2.2583,-2.19727,35.5225,0.052,-0.03,36.84,0.167007,0.110413,0,0,0,0,0,40.25,659.292,1890887
0.00256348,0.0370483,0.956665,-1.09863,-2.99072,34.9731,0.034,0.05,36.32,0.16774,0.111526,0,0,0,0,0,40.25,659.313,1890902
0.092041,0.0330811,0.960083,-1.46484,-1.89209,33.6304,0.104,-0.003,35.26,0.169205,0.113739,0,0,0,0,0,40.25,659.333,1890933
0.0655518,0.017334,1.00342,-2.68555,-1.58691,32.959,0.073,0.001,34.77,0.170074,0.114838,0,0,0,0,0,40.25,659.353,1890947
0.00115967,0.0170288,0.931274,-0.671387,-0.427246,34.1797,0.019,0.036,34.26,0.171021,0.115952,0,0,0,0,0,40.25,659.373,1890962
-0.0302124,-0.0197144,1.02081,-0.183105,1.52588,32.2876,-0.025,0.025,33.28,0.172958,0.118225,0,0,0,0,0,40.25,659.393,1890993
-0.0117188,-0.0829468,1.02972,-1.28174,-0.305176,34.8511,-0.043,-0.037,32.76,0.173889,0.11937,0,0,0,0,0,40.25,659.413,1891007
0.053833,0.02948,1.12732,-1.58691,-0.915527,32.7759,0.072,0.024,32.27,0.174835,0.120499,0,0,0,0,0,40.25,659.433,1891022
0.0649414,0.0180054,0.986145,-2.56348,-3.78418,35.4614,0.075,0.006,31.22,0.176895,0.122864,0,0,0,0,0,40.25,659.452,1891053
0.0363159,0.0375977,1.04126,-1.64795,-2.56348,34.1187,0.06,0.04,30.71,0.178055,0.124084,0,0,0,0,0,40.25,659.473,1891067
-0.0198364,0.112671,0.96875,-0.12207,-2.74658,35.2173,0.049,0.132,30.18,0.179291,0.125443,0,0,0,0,0,40.25,659.493,1891082
0.0141602,-0.0847168,1.06281,-0.427246,-2.92969,32.6538,-0.02,-0.053,29.15,0.181976,0.128296,0,0,0,0,0,40.25,659.513,1891113
0.0012207,-0.00646973,1.05988,-0.12207,-1.09863,34.9121,0.006,0.021,28.64,0.183319,0.1297,0,0,0,0,0,40.25,659.533,1891127
0.0758057,-0.140503,1.00494,-0.671387,-0.244141,34.4238,0.008,-0.133,28.11,0.184692,0.131012,0,0,0,0,0,40.25,659.553,1891143
-0.0262451,0.090332,1.08691,0.732422,0.12207,32.7148,0.025,0.121,27.13,0.184708,0.133484,0,0,0,0,0,40.25,659.573,1891173
0.0587158,-0.121765,0.982666,0.488281,-0.183105,33.7524,0.004,-0.109,26.63,0.184738,0.13475,0,0,0,0,0,40.25,659.593,1891188
0.0392456,-0.120483,1.1239,0.793457,1.0376,34.2407,-0.01,-0.095,26.12,0.184769,0.13588,0,0,0,0,0,40.25,659.613,1891203
0.0166626,0.22876,0.894714,0.854492,-2.50244,35.0342,0.118,0.223,25.07,0.184692,0.138184,0,0,0,0,0,40.25,659.633,1891233
-0.0350342,-0.0286255,1.07971,0.183105,-2.13623,35.2783,-0.036,0.016,24.54,0.184723,0.139587,0,0,0,0,0,40.25,659.653,1891248
-0.106079,-0.0876465,1.00568,0.427246,-2.13623,36.7432,-0.126,-0.01,23.99,0.184631,0.140991,0,0,0,0,0,40.25,659.673,1891263
0.0360718,0.00531006,0.997192,1.77002,-2.74658,34.9731,0.04,0.015,22.93,0.184387,0.144211,0,0,0,0,0,40.25,659.696,1891293
0.0546265,0.0490723,0.971375,1.58691,-3.96728,35.1562,0.072,0.048,22.39,0.184372,0.14595,0,0,0,0,0,40.25,659.714,1891308
0.0693359,-0.0220947,0.985962,-0.366211,-1.46484,35.4614,0.058,-0.021,21.37,0.184464,0.149445,0,0,0,0,0,40.25,659.736,1891338
0.0447998,0.0126343,1.04675,-0.183105,0.0610352,33.8745,0.047,0.021,20.85,0.184601,0.151184,0,0,0,0,0,40.25,659.754,1891353
-0.0065918,-0.0181885,1.03467,-0.732422,0.854492,32.5317,-0.011,0.01,20.36,0.184753,0.152939,0,0,0,0,0,40.28,659.773,1891368
-0.00421143,0.00811768,1.0069,-0.488281,0.732422,35.8887,0,0.033,19.83,0.184753,0.154724,0,0,0,0,0,40.28,659.793,1891383
0.000915527,0.00323486,0.979797,-1.77002,-1.89209,33.6304,0.003,0.027,18.81,0.184753,0.158401,0,0,0,0,0,40.28,659.814,1891413
-0.0132446,0.0175171,1.06012,-0.12207,0.12207,35.2783,-0.005,0.046,18.28,0.184753,0.160309,0,0,0,0,0,40.28,659.834,1891428
-0.0838623,-0.253174,0.99884,-0.427246,0.549316,33.9355,-0.155,-0.191,17.78,0.184647,0.162125,0,0,0,0,0,40.28,659.853,1891443
0.0109863,-0.0161743,1.0459,1.15967,-0.305176,34.9121,0.007,0.005,16.76,0.184158,0.165558,0,0,0,0,0,40.28,659.873,1891473
-0.022522,0.0244751,1.04797,0.183105,-2.38037,33.4473,-0.013,0.054,16.25,0.184158,0.167343,0,0,0,0,0,40.28,659.893,1891488
0.0559692,-0.0175171,1.00873,0.610352,-1.58691,34.9731,0.049,-0.008,15.21,0.184128,0.170959,0,0,0,0,0,40.28,659.917,1891518
-0.0680542,-0.0838623,1.12518,-1.28174,0.427246,34.729,-0.087,-0.037,14.69,0.184082,0.172729,0,0,0,0,0,40.28,659.933,1891533
0.0286255,0.0821533,0.944519,-1.40381,0.12207,35.0342,0.047,0.094,14.16,0.184021,0.174561,0,0,0,0,0,40.28,659.954,1891548
0.0533447,0.0523071,0.975464,0.0610352,-1.28174,34.729,0.063,0.061,13.64,0.184036,0.176483,0,0,0,0,0,40.28,659.973,1891563
0.0057373,-0.105713,0.933899,-1.77002,-0.0610352,34.2407,-0.017,-0.082,12.63,0.184097,0.180374,0,0,0,0,0,40.28,659.993,1891593
0.0454712,-0.020752,1.0155,-0.183105,0.12207,32.7759,0.039,-0.005,12.13,0.184113,0.182236,0,0,0,0,0,40.28,660.014,1891608
-0.00927734,0.0805054,1.05481,0.976562,-0.610352,32.8979,0.007,0.105,11.64,0.184174,0.184158,0,0,0,0,0,40.28,660.033,1891623
-0.0358887,-0.0336914,1.02844,1.15967,-0.549316,34.4849,-0.041,-0.003,10.59,0.184143,0.188141,0,0,0,0,0,40.28,660.056,1891653
0.0291138,0.135132,0.984619,-0.0610352,-3.2959,36.377,0.051,0.15,10.06,0.184082,0.190216,0,0,0,0,0,40.28,660.074,1891668
-0.0367432,0.0313721,0.952759,0.244141,-2.13623,37.4756,-0.031,0.058,9.5,0.184052,0.192444,0,0,0,0,0,40.28,660.092,1891683
0.0159912,0.0509644,0.951599,0.366211,-3.60107,37.8418,0.021,0.069,8.38,0.183914,0.197037,0,0,0,0,0,40.28,660.112,1891713
0.0151367,0.0725708,1.02094,0.976562,-1.89209,37.4146,0.021,0.092,7.81,0.183868,0.199478,0,0,0,0,0,40.28,660.132,1891728
0.0568848,0.0375366,1.01501,-0.366211,-4.21143,35.9497,0.057,0.051,7.26,0.183884,0.202011,0,0,0,0,0,40.28,660.153,1891743
0.0247803,0.0299683,1.0025,0.366211,-0.427246,36.5601,0.022,0.048,6.15,0.184082,0.207291,0,0,0,0,0,40.28,660.174,1891773
0.0253296,-0.015564,1.06366,-0.854492,-1.64795,35.4614,0.017,0.004,5.62,0.184235,0.210007,0,0,0,0,0,40.28,660.193,1891788
-0.00476074,-0.036377,0.976135,-2.0752,-0.183105,36.5601,-0.013,-0.015,5.08,0.184387,0.212708,0,0,0,0,0,40.28,660.213,1891803
0.0775757,0.00811768,1.11243,-2.74658,-2.38037,34.5459,0.07,0.026,4.03,0.184784,0.218262,0,0,0,0,0,40.28,660.233,1891833
-0.0410156,-0.00543213,0.926697,-0.0610352,-1.0376,35.4004,-0.047,0.016,3.5,0.185043,0.221115,0,0,0,0,0,40.28,660.253,1891848
0.0192261,-0.0683594,1.11676,2.80762,-1.15967,34.3628,0.008,-0.046,2.98,0.185257,0.223938,0,0,0,0,0,40.28,660.273,1891863
-0.015686,0.0714722,0.967285,2.99072,-2.86865,35.8887,-0.02,0.09,1.94,0.185501,0.229202,0,0,0,0,0,40.25,660.293,1891893
0.00140381,-0.0630493,1.06335,0.427246,-1.89209,35.2173,-0.009,-0.043,1.41,0.185562,0.231827,0,0,0,0,0,40.25,660.313,1891908
-0.0282593,-0.0150146,0.985596,0.244141,-2.50244,34.4238,-0.037,0.003,0.89,0.185593,0.234421,0,0,0,0,0,40.25,660.333,1891923
0.0518799,0.00311279,1.08191,-0.0610352,-0.854492,33.4473,0.04,0.022,-0.15,0.185654,0.239594,0,0,0,0,0,40.25,660.353,1891953
0.00592041,-0.0170898,1.02283,-0.671387,0.549316,35.2173,-0.005,0.001,-1.17,0.185898,0.244843,0,0,0,0,0,40.25,660.383,1891983
0.0495605,-0.0203247,1.0307,-1.09863,0.244141,32.7148,0.038,0,-1.67,0.18605,0.247467,0,0,0,0,0,40.25,660.396,1891998
0.0169678,-0.020874,1.0022,-2.01416,-0.12207,34.0576,0.005,-0.001,-2.17,0.186234,0.247467,0,0,0,0,0,40.25,660.413,1892014
-0.0437012,-0.0131226,1.02301,-2.68555,1.0376,34.8511,-0.054,0.004,-2.7,0.186401,0.247467,0,0,0,0,0,40.25,660.433,1892028
0.017334,0.0159912,1.01831,-1.95312,-1.0376,33.7524,0.004,0.036,-3.21,0.186523,0.247498,0,0,0,0,0,40.25,660.453,1892043
0.0354004,0.000183105,0.972168,-2.92969,-1.58691,35.5835,0.024,0.022,-4.27,0.186707,0.247589,0,0,0,0,0,40.25,660.473,1892074
-0.0404053,-0.00299072,1.06006,-2.31934,-1.2207,35.2173,-0.052,0.015,-4.79,0.186768,0.247665,0,0,0,0,0,40.25,660.493,1892088
-0.0227051,0.0267944,1.0387,-1.0376,-0.915527,35.6445,-0.037,0.046,-5.33,0.186783,0.247787,0,0,0,0,0,40.25,660.513,1892103
-0.0153198,-0.0397949,1.05963,-2.2583,0.183105,35.0342,-0.024,-0.018,-6.38,0.186783,0.248154,0,0,0,0,0,40.25,660.534,1892134
0.0545044,0.0567017,0.935669,-1.40381,-1.34277,35.2173,0.035,0.082,-6.92,0.186798,0.248383,0,0,0,0,0,40.25,660.553,1892148
0.114197,0.0980835,0.994019,-0.915527,-0.793457,33.9966,0.087,0.133,-7.44,0.186905,0.248779,0,0,0,0,0,40.25,660.573,1892163
0.0144043,-0.0422974,0.972351,-0.488281,0.488281,34.6069,0.007,-0.018,-8.44,0.187164,0.249649,0,0,0,0,0,40.25,660.593,1892194
0.0586548,-0.0474854,1.06903,0.305176,0.976562,33.6914,0.051,-0.014,-8.96,0.187332,0.250046,0,0,0,0,0,40.25,660.613,1892208
-0.0374756,0.0167847,0.944641,0.976562,-0.793457,35.1562,-0.052,0.031,-9.48,0.1875,0.250458,0,0,0,0,0,40.25,660.634,1892223
0.0245972,-0.0244751,1.01752,-2.38037,-0.610352,37.1704,0.016,0.002,-10.59,0.187592,0.251282,0,0,0,0,0,40.25,660.654,1892254
-0.00921631,0.0203247,0.946289,-2.01416,-2.38037,39.2456,-0.025,0.039,-11.16,0.187607,0.251709,0,0,0,0,0,40.25,660.673,1892268
-0.0618286,-0.0101929,1.07452,0.427246,-0.976562,39.7339,-0.072,0.001,-11.76,0.187561,0.252167,0,0,0,0,0,40.25,660.693,1892283
0.0134888,0.0622559,0.971313,2.01416,-2.31934,39.0625,-0.014,0.084,-12.93,0.187469,0.253021,0,0,0,0,0,40.25,660.713,1892314
0.0422974,-0.0803223,1.03693,1.09863,-1.34277,39.4287,0.044,-0.046,-13.51,0.187485,0.253479,0,0,0,0,0,40.25,660.736,1892328
0.0363159,-0.0274658,0.990112,-0.366211,-1.77002,38.269,0.027,0.002,-14.1,0.187561,0.253906,0,0,0,0,0,40.25,660.753,1892343
0.0587158,-0.0134888,1.02515,-0.427246,0.12207,38.6963,0.044,0.022,-15.27,0.187775,0.254913,0,0,0,0,0,40.25,660.773,1892374
0.00463867,0.00378418,1.08051,-0.671387,0.366211,37.5366,-0.013,0.026,-15.83,0.187927,0.255478,0,0,0,0,0,40.26,660.793,1892388
-0.0125122,-0.0508423,0.977539,-1.95312,0.732422,37.9639,-0.013,-0.032,-16.4,0.188065,0.256042,0,0,0,0,0,40.26,660.813,1892403
-0.0557861,-0.151062,1.17676,-1.15967,0.488281,34.79,-0.026,-0.137,-17.49,0.188049,0.257217,0,0,0,0,0,40.26,660.838,1892434
-0.0357666,-0.0626221,1.04565,0.244141,0.732422,35.8276,-0.03,-0.049,-18.02,0.187988,0.25766,0,0,0,0,0,40.26,660.854,1892448
-0.0559692,-0.036499,0.983643,1.34277,-0.732422,34.729,-0.056,-0.032,-18.56,0.187866,0.258057,0,0,0,0,0,40.26,660.875,1892463
-0.0186768,0.00714111,0.939758,1.09863,-2.13623,35.4004,-0.034,0.018,-19.58,0.187317,0.258865,0,0,0,0,0,40.26,660.893,1892494
-0.00823975,-0.103943,1.04694,0.671387,-2.0752,33.9355,0.011,-0.08,-20.1,0.186966,0.259247,0,0,0,0,0,40.26,660.913,1892508
0.0281982,-0.0223389,0.99585,0.793457,-2.80762,34.4849,0.017,0.007,-20.6,0.186646,0.259583,0,0,0,0,0,40.26,660.933,1892523
0.0584717,0.0504761,1.00812,-0.183105,-1.46484,35.2173,0.018,0.086,-21.69,0.186081,0.260452,0,0,0,0,0,40.26,660.954,1892554
0.0708618,0.146973,0.891602,-0.244141,-2.50244,35.7666,-0.005,0.178,-22.22,0.185822,0.261124,0,0,0,0,0,40.26,660.974,1892569
-0.00219727,-0.0249634,1.02051,-0.305176,0.305176,37.0483,-0.01,-0.006,-22.77,0.185822,0.261917,0,0,0,0,0,40.26,660.993,1892584
-0.0272217,-0.0852661,1.06378,-0.0610352,1.09863,35.2783,-0.009,-0.071,-23.84,0.185837,0.26355,0,0,0,0,0,40.26,661.013,1892614
-0.0245972,-0.0493164,1.05634,-0.793457,2.38037,35.9497,-0.02,-0.037,-24.37,0.185837,0.264297,0,0,0,0,0,40.26,661.034,1892629
0.0649414,0.206909,0.983643,1.09863,-0.976562,33.4473,-0.045,0.231,-24.89,0.185791,0.265182,0,0,0,0,0,40.26,661.054,1892644
0.0429077,0.0204468,0.925659,0.671387,-2.0752,37.6587,0.013,0.051,-26,0.185699,0.267105,0,0,0,0,0,40.26,661.073,1892674
-0.0322266,-0.0551147,1.05133,-1.09863,-0.610352,37.9028,-0.021,-0.047,-26.56,0.185699,0.268051,0,0,0,0,0,40.26,661.093,1892689
0.0299683,0.0485229,0.961182,-0.244141,-1.46484,38.9404,-0.011,0.071,-27.14,0.185669,0.269028,0,0,0,0,0,40.26,661.113,1892704
-0.0192261,-0.0644531,1.08234,-1.34277,-0.854492,39.7949,-0.005,-0.049,-28.32,0.185638,0.271133,0,0,0,0,0,40.26,661.133,1892734
0.0588379,0.0369263,0.950256,-0.183105,-2.2583,40.3442,0.016,0.074,-28.92,0.185638,0.272202,0,0,0,0,0,40.26,661.153,1892749
0.0494995,0.017395,1.03467,-0.366211,-0.915527,39.4897,0.015,0.054,-29.52,0.185638,0.273376,0,0,0,0,0,40.26,661.172,1892764
0.0332031,-0.0419922,1.02008,-0.976562,-0.244141,38.7573,0.031,-0.005,-31.3,0.185577,0.277115,0,0,0,0,0,40.26,661.215,1892809
0.0311279,-0.0159302,0.987244,-1.2207,-1.28174,39.1235,0.015,0.015,-31.88,0.185577,0.278412,0,0,0,0,0,40.26,661.234,1892824
0.0175171,0.015686,0.975281,-0.427246,-0.488281,36.9263,-0.012,0.035,-33.04,0.185486,0.281097,0,0,0,0,0,40.26,661.26,1892854
-0.0637817,-0.036499,1.05463,0.549316,0.305176,38.208,-0.052,-0.052,-34.18,0.185287,0.283875,0,0,0,0,0,40.26,661.285,1892884
0.0247192,-0.0141602,1.00977,0.366211,-2.31934,36.9263,0.008,0.014,-34.75,0.185135,0.285233,0,0,0,0,0,40.26,661.295,1892899
-0.0249023,-0.0350342,0.956726,-0.305176,-2.74658,39.0625,-0.018,-0.031,-35.32,0.184982,0.286575,0,0,0,0,0,40.26,661.313,1892914
0.031311,0.0755615,0.981384,1.15967,-2.50244,39.2456,-0.038,0.09,-35.91,0.184784,0.287964,0,0,0,0,0,40.26,661.332,1892929
0.0129395,-0.0905762,1.04279,-1.09863,-3.05176,36.6211,0.043,-0.053,-36.48,0.184601,0.289383,0,0,0,0,0,40.26,661.354,1892944
0.0115967,0.045105,1.02795,-0.305176,-1.89209,38.0859,-0.039,0.054,-37.04,0.184402,0.290787,0,0,0,0,0,40.26,661.372,1892959
0.0228882,-0.017395,1.09137,-0.305176,-0.427246,36.0718,0.005,0.01,-38.16,0.184021,0.292236,0,0,0,0,0,40.26,661.393,1892989
0.00195312,-0.0488281,0.984802,-0.549316,-0.976562,37.1704,0.01,-0.027,-38.71,0.184021,0.292221,0,0,0,0,0,40.26,661.412,1893004
0.00177002,-0.0568237,1.07068,-0.183105,-0.305176,35.5225,0.014,-0.033,-39.79,0.184021,0.292191,0,0,0,0,0,40.26,661.433,1893034
0.0124512,0.0137939,0.995239,-0.12207,-0.366211,35.7666,-0.02,0.026,-40.33,0.184021,0.292175,0,0,0,0,0,40.26,661.453,1893049
0.0183716,-0.0442505,1.02435,-0.305176,-1.15967,35.5225,0.021,-0.013,-40.86,0.184021,0.29216,0,0,0,0,0,40.26,661.472,1893064
