raw_accel_x,raw_accel_y,raw_accel_z,world_accel_x,world_accel_y,yaw,fused_heading,x,y,z,left_encoder_rate,right_encoder_rate,left_motor,right_motor,temp,fpga time,navx time
0.0273438,-0.00012207,1.01672,0,0,-3.58,356.41,-0.0788879,-0.467468,0,0,0,0.00763359,0,36.51,251.077,2453938
0.0272217,-0.00250244,1.01947,0,-0.002,-3.58,356.41,-0.0788879,-0.467468,0,0,0,0.00763359,0,36.51,251.087,2453954
0.0279541,-0.000671387,1.01953,0,0,0,0,0,0,0,0,0,0.00763359,0,36.51,251.103,2453968
0.0288086,6.10352e-05,1.01361,0,0,0,0,0,0,0,0,0,0.00763359,0,36.51,251.123,2453983
0.0288086,-0.00360107,1.0155,0,-0.003,0,0,0,0,0,0,0,0.00763359,0,36.51,251.144,2454014
0.0283813,0.000183105,1.01709,0,0,0,0,0,0,0,0,0,0.00763359,0,36.52,251.163,2454029
0.027832,-0.000549316,1.01703,0,0,0,0,0,0,0,0,0,0.00763359,0,36.52,251.183,2454044
0.0282593,0.000366211,1.01202,0,0,0,0,0,0,0,0,0,0.00763359,0,36.52,251.203,2454074
0.0261841,-0.000976562,1.01782,-0.001,-0.001,0,0,0,0,0,0,0,0.00763359,0,36.52,251.223,2454089
0.0256348,0.00170898,1.01581,-0.002,0.001,0,0,0,0,0,0,0,0.00763359,0,36.52,251.243,2454104
0.0280762,-0.00109863,1.02039,0,-0.001,0,0,0,0,0,0,0,0.00763359,0,36.52,251.263,2454134
0.0292358,-0.000427246,1.02063,0.001,0,0,0,0,0,0,0,0,0.00763359,0,36.52,251.283,2454149
0.0299072,0.00256348,1.01923,0.001,0.002,0,0,0,0,0,0,0,0.00763359,0,36.52,251.303,2454164
0.0263672,-0.000732422,1.02161,-0.001,-0.001,0,0,0,0,0,0,0,0.00763359,0,36.52,251.323,2454194
0.0296631,-0.000549316,1.01532,0.001,0,0,0,0,0,0,0,0,0.00763359,0,36.52,251.343,2454209
0.0253296,0.000305176,1.02216,-0.002,0,0,0,0,0,0,0,0,0.00763359,0,36.52,251.363,2454239
0.0281982,0.00158691,1.01099,0,0.001,0,0,0,0,0,0,0,0.00763359,0,36.52,251.383,2454254
0.0285645,0.00109863,1.01965,0,0,0,0,0,0,0,0,0,0.00763359,0,36.52,251.404,2454269
0.0280762,0.00396729,1.01416,0,0.003,0,0,0,0,0,0,0,0.00763359,0,36.52,251.424,2454299
0.0302734,-0.000671387,1.02246,0.002,-0.001,0,0,0,0,0,0,0,0.00763359,0,36.52,251.443,2454314
0.0287476,0.000610352,1.02179,0,0,0,0,0,0,0,0,0,0.00763359,0,36.52,251.464,2454329
0.0256958,0.00146484,1.01495,-0.002,0.001,0,0,0,0,0,0,0,0.00763359,0,36.52,251.484,2454344
0.0289917,-0.00109863,1.02423,0,-0.001,0,0,0,0,0,0,0,0.00763359,0,36.52,251.504,2454374
0.0288086,0.00189209,1.01801,0,0.001,0,0,0,0,0,0,0,0.00763359,0,36.52,251.524,2454389
0.0285645,0.000183105,1.0188,0,0,0,0,0,0,0,0,0,0.00763359,0,36.52,251.543,2454404
0.0270996,0.00109863,1.01556,0,0,0,0,0,0,0,0,0,0.00763359,0,36.52,251.564,2454434
0.0299072,-0.00231934,1.0199,0.001,-0.002,0,0,0,0,0,0,0,0.00763359,0,36.52,251.583,2454449
0.0262451,-0.000244141,1.021,-0.001,0,0,0,0,0,0,0,0,0.00763359,0,36.52,251.603,2454464
0.0271606,-0.0010376,1.01746,0,-0.001,0,0,0,0,0,0,0,0.00763359,0,36.52,251.623,2454494
0.0264893,-0.00219727,1.02148,-0.001,-0.002,0,0,0,0,0,0,0,0.00763359,0,36.52,251.643,2454509
0.0266724,0.00408936,1.01776,-0.001,0.003,0,0,0,0,0,0,0,0.00763359,0,36.52,251.663,2454524
0.0289917,0.00158691,1.01447,0,0.001,0,0,0,0,0,0,0,0.00763359,0,36.48,251.683,2454554
0.0296631,0.00158691,1.01935,0.001,0.001,0,0,0,0,0,0,0,0.00763359,0,36.48,251.703,2454569
0.0241699,0.000793457,1.01807,-0.003,0,0,0,0,0,0,0,0,0.00763359,0,36.48,251.723,2454584
0.0267334,-0.00341797,1.01569,-0.001,-0.003,0,0,0,0,0,0,0,0.00763359,0,36.48,251.743,2454614
0.0271606,0.000427246,1.01392,0,0,0,0,0,0,0,0,0,0.00763359,0,36.48,251.763,2454629
0.0291138,-0.000549316,1.02008,0,0,0,0,0,0,0,0,0,0.00763359,0,36.48,251.783,2454644
0.0283203,0.000244141,1.02191,0,0,0,0,0,0,0,0,0,0.00763359,0,36.48,251.803,2454674
0.0278931,0.000854492,1.01953,0,0,0,0,0,0,0,0,0,0.00763359,0,36.48,251.824,2454689
0.02771,-0.000549316,1.01984,0,0,0,0,0,0,0,0,0,0.00763359,0,36.48,251.844,2454704
0.0315552,-0.000732422,1.01935,0.003,0,0,0,0,0,0,0,0,0.00763359,0,36.48,251.864,2454734
0.0272217,0.0010376,1.01642,0,0,0,0,0,0,0,0,0,0.00763359,0,36.48,251.884,2454749
0.0264282,0.00341797,1.01837,-0.001,0.003,0,0,0,0,0,0,0,0.0629771,0,36.48,251.904,2454764
0.0287476,0.00012207,1.02472,0,0,0,0,0,0,0,0,0,0.101145,0,36.48,251.924,2454794
0.0297852,0.00115967,1.01263,0.001,0,0,0,0,0,0,0,0,0.179389,0,36.48,251.943,2454809
0.0263672,-0.00238037,1.01819,-0.001,-0.002,0,0,0,0,0,0,0,0.227099,0,36.48,251.963,2454824
0.0354614,0.000732422,1.03687,0.006,0,0,0,0,0,0,0,0,0.305344,0,36.48,251.984,2454854
-0.00323486,-0.0617065,1.04852,-0.032,-0.061,0,0,-1.52588e-05,-3.05176e-05,0,43.8904,-128.465,0.593511,0,36.48,252.003,2454869
0.148132,-0.25824,1.04437,0.119,-0.257,0.01,0.01,1.52588e-05,-0.000289917,0,66.6838,-275.953,0.780534,0,36.48,252.023,2454884
0.0511475,-0.688354,1.18671,0.017,-0.674,-0.08,359.91,0.000137329,-0.00239563,0,221.737,-459.929,1,0,36.48,252.043,2454914
0.112183,-0.705566,0.927368,0.086,-0.687,-0.15,359.84,0.000213623,-0.00473022,0,401.784,-506.714,1,0,36.48,252.063,2454929
-0.0233154,-0.568909,1.06476,-0.052,-0.54,-0.2,359.79,0.000305176,-0.00790405,0,575.159,-583.788,1,0,36.48,252.083,2454944
0.0334473,-0.612549,0.972351,0.008,-0.573,-0.29,359.7,0.000549316,-0.0164948,0,641.643,-483.933,1,0,36.48,252.103,2454974
-0.0936279,-0.560181,1.02484,-0.119,-0.514,-0.33,359.66,0.00062561,-0.0219116,0,777.212,-661.419,1,0,36.48,252.123,2454989
0.0240479,-0.672729,1.08185,-0.001,-0.616,-0.35,359.64,0.00062561,-0.0280914,0,734.241,-665.115,1,0,36.48,252.143,2455004
0.0361328,-0.400024,1.24298,0.006,-0.324,-0.37,359.62,0.000259399,-0.0423584,0,817.027,-733.487,1,0,36.48,252.163,2455034
-0.0859375,-0.406494,0.915771,-0.107,-0.348,-0.35,359.64,-4.57764e-05,-0.0502014,0,945.582,-740.494,1,0,36.51,252.183,2455049
0.0808716,-0.202332,0.884033,0.059,-0.142,-0.32,359.67,-0.00038147,-0.0583649,0,1025.27,-722.961,1,0,36.51,252.203,2455064
-0.0195312,-0.273865,0.84082,-0.038,-0.214,-0.19,359.8,-0.00119019,-0.0751953,0,1023.96,-833.299,1,0,36.51,252.223,2455095
-0.109314,-0.112305,0.993408,-0.131,-0.041,-0.07,359.92,-0.0017395,-0.0838776,0,937.866,-787.65,1,0,36.51,252.243,2455109
-0.182007,-0.0671387,1.34845,-0.209,0.028,0.07,0.07,-0.00253296,-0.0925598,0,1074.92,-823.418,1,0,36.51,252.263,2455124
-0.168518,-0.100708,1.03033,-0.189,-0.024,0.41,0.41,-0.00471497,-0.110046,0,1157.07,-745.24,1,0,36.51,252.283,2455155
-0.193542,-0.0341187,0.982239,-0.212,0.039,0.59,0.59,-0.00617981,-0.118805,0,1205.47,-662.712,1,0,36.51,252.303,2455169
-0.200256,0.0650635,1.46606,-0.224,0.172,0.78,0.78,-0.00794983,-0.127411,0,1138.5,-744.907,1,0,36.51,252.323,2455184
-0.162109,0.041687,1.21399,-0.178,0.129,1.29,1.29,-0.0124207,-0.14447,0,1097.63,-852.006,1,0,36.51,252.343,2455215
-0.276733,-0.0599365,1.07947,-0.291,0.022,1.55,1.55,-0.0151215,-0.152878,0,1239.16,-733.837,1,0,36.51,252.363,2455229
0.139282,-0.0168457,0.586853,0.131,0.019,1.82,1.82,-0.0179291,-0.161255,0,1135.07,-852.479,1,0,36.51,252.384,2455244
-0.0568848,-0.109192,1.36218,-0.073,-0.017,2.45,2.45,-0.023819,-0.177811,0,1216.92,-727.961,1,0,36.51,252.404,2455275
-0.0168457,0.00610352,0.895386,-0.023,0.064,2.79,2.79,-0.0269318,-0.18602,0,1133.66,-589.293,1,0,36.51,252.424,2455289
-0.264893,0.0653687,0.833435,-0.266,0.132,3.14,3.14,-0.0302277,-0.194092,0,1170.96,-546.717,1,0,36.51,252.444,2455304
0.0196533,0.00799561,0.881348,0.017,0.059,3.96,3.96,-0.0376587,-0.209579,0,1168.09,-851.861,1,0,36.51,252.463,2455335
-0.180725,0.112976,1.14905,-0.176,0.195,4.38,4.38,-0.0415497,-0.217056,0,1243.47,-857.486,1,0,36.51,252.483,2455349
-0.195312,-0.0752563,0.70874,-0.204,-0.016,4.77,4.77,-0.0457001,-0.224396,0,1243.47,-917.726,1,0,36.51,252.503,2455364
0.0553589,-0.053833,1.41888,0.044,0.025,5.47,5.47,-0.0539398,-0.239151,0,1211.02,-998.702,1,0,36.51,252.524,2455395
0.0546265,-0.0931396,0.559692,0.04,-0.063,5.76,5.76,-0.0579224,-0.246552,0,1100.96,-791.358,1,0,36.51,252.545,2455409
-0.135376,0.0246582,1.17297,-0.14,0.11,6.04,6.04,-0.0619812,-0.253922,0,1256.6,-805.25,1,0,36.51,252.563,2455424
-0.177063,-0.039856,1.54602,-0.19,0.075,6.53,6.53,-0.0700226,-0.268951,0,1386.96,-948.947,1,0,36.51,252.585,2455455
-0.249695,-0.00488281,0.713928,-0.254,0.069,6.74,6.74,-0.0743408,-0.276428,0,1195.89,-940.645,1,0,36.51,252.603,2455469
-0.065979,-0.0297852,0.761658,-0.075,0.026,6.92,6.92,-0.0789032,-0.283844,0,1310.36,-1039.66,1,0,36.51,252.624,2455484
-0.0811157,0.0402222,1.20111,-0.085,0.126,7.28,7.28,-0.0884094,-0.298569,0,1180.29,-1061.74,1,0,36.51,252.645,2455515
0.17218,-0.0286255,1.01764,0.158,0.013,7.44,7.44,-0.0932007,-0.305801,0,1257.47,-860.104,1,0,36.51,252.664,2455529
0.102722,-0.126892,0.560364,0.079,-0.103,7.6,7.6,-0.0978088,-0.31311,0,1255.49,-1077.76,1,0,36.51,252.684,2455544
0.250854,-0.151123,0.667664,0.221,-0.141,7.9,7.9,-0.106567,-0.327942,0,1291.07,-925.883,1,0,36.45,252.709,2455575
-0.00646973,0.331665,0.94989,0.032,0.388,8.1,8.1,-0.110657,-0.335251,0,1271.29,-863.968,1,0,36.45,252.724,2455589
0.342285,-0.0687866,1.86615,0.321,-0.011,8.33,8.33,-0.114517,-0.3423,0,1321.62,-820.715,1,0,36.45,252.743,2455604
-0.0516968,0.413391,1.4837,0.006,0.498,8.94,8.94,-0.120865,-0.355728,0,1356.3,-656.039,1,0,36.45,252.763,2455635
0.0992432,0.0155029,0.65332,0.097,0.033,9.26,9.26,-0.123825,-0.361847,0,1360.45,-756.802,1,0,36.45,252.784,2455649
0.0471802,0.0600586,1.53711,0.054,0.13,9.61,9.61,-0.126678,-0.367859,0,1330.67,-772.022,1,0,36.45,252.803,2455664
-0.000183105,0.221008,1.02679,0.038,0.268,10.33,10.33,-0.132019,-0.37944,0,1390.72,-788.737,1,0,36.45,252.824,2455695
0.0787354,-0.0162354,1.10065,0.073,0.023,10.68,10.68,-0.134552,-0.384918,0,1227.75,-841.078,1,0,36.45,252.843,2455710
0.229004,-0.024353,0.963989,0.219,-0.021,11.05,11.05,-0.136887,-0.390411,0,1287.25,-800.897,1,0,36.45,252.864,2455725
0.259644,0.0406494,1.10913,0.261,0.039,11.76,11.76,-0.141571,-0.401169,0,1330.58,-789.359,1,0,36.45,252.884,2455755
0.368958,-0.113342,1.02332,0.336,-0.14,12.12,12.12,-0.143509,-0.40657,0,1278.77,-718.778,1,0,36.45,252.904,2455770
-0.0441895,0.0148926,0.936035,-0.041,0.068,12.47,12.47,-0.145233,-0.412018,0,1243.78,-652.784,1,0,36.45,252.924,2455785
0.024292,-0.00720215,0.79187,0.021,0.023,13.14,13.14,-0.149216,-0.422653,0,1342.91,-802.439,1,0,36.45,252.944,2455815
-0.0681152,0.230774,1.28955,-0.014,0.298,13.47,13.47,-0.151276,-0.427719,0,1239,-782.35,1,0,36.45,252.964,2455830
-0.145569,0.0158691,0.890625,-0.138,0.088,13.8,13.8,-0.153442,-0.43251,0,1351.26,-762.66,1,0,36.45,252.983,2455845
0.0447998,-0.0480957,0.616516,0.031,-0.032,14.49,14.49,-0.158752,-0.441299,0,1251.17,-657.268,1,0,36.45,253.003,2455875
-0.317505,0.242859,1.66266,-0.241,0.378,14.88,14.88,-0.161682,-0.445343,0,1345.8,-629.148,1,0,36.45,253.023,2455890
0.0443115,0.0721436,0.533142,0.062,0.078,15.27,15.27,-0.164719,-0.449081,0,1217.73,-497.117,1,0,36.45,253.044,2455905
-0.00811768,0.0338745,0.866699,0.003,0.065,16.07,16.07,-0.170853,-0.455765,0,1241.16,-703.829,1,0,36.45,253.063,2455935
-0.100769,0.190918,1.99994,-0.032,0.273,16.5,16.5,-0.17395,-0.45874,0,1286.42,-642.24,1,0,36.45,253.083,2455950
-0.133545,-0.108337,0.139465,-0.158,-0.06,16.91,16.91,-0.177185,-0.461578,0,1339.85,-625.078,1,0,36.45,253.103,2455965
-0.12561,0.0408325,1.70422,-0.099,0.125,17.75,17.75,-0.18396,-0.467117,0,1163.4,-632.531,1,0,36.45,253.124,2455995
0.138733,0.00189209,0.61322,0.135,-0.023,18.2,18.2,-0.187363,-0.469757,0,1252.27,-687.616,1,0,36.45,253.144,2456010
0.177002,0.0316772,0.935974,0.182,0,18.62,18.62,-0.190552,-0.472412,0,1327.49,-912.534,1,0,36.45,253.164,2456025
0.164551,0.0535889,0.848511,0.175,0.019,19.42,19.42,-0.196625,-0.477829,0,1223.69,-926.956,1,0,36.45,253.184,2456055
0.119141,-0.0601196,0.779419,0.094,-0.074,19.8,19.8,-0.199417,-0.480591,0,1261.67,-870.057,1,0,36.3,253.204,2456070
-0.0332642,-0.0756836,1.30084,-0.052,-0.024,20.16,20.16,-0.202194,-0.483414,0,1077.41,-810.471,1,0,36.3,253.223,2456085
-0.0310059,-0.00665283,0.810974,-0.029,0.028,20.86,20.86,-0.20787,-0.489044,0,1264.3,-835.806,1,0,36.3,253.243,2456115
-0.0421143,-0.03302,0.816528,-0.048,0.007,21.18,21.18,-0.21077,-0.491821,0,1179.04,-859.993,1,0,36.3,253.263,2456130
-0.283691,0.0856934,1.36823,-0.228,0.223,21.5,21.5,-0.213852,-0.494431,0,1273.48,-851.934,1,0,36.3,253.283,2456145
0.277893,0.0109253,0.73114,0.263,-0.073,22.13,22.13,-0.2202,-0.499191,0,1262.95,-862.664,1,0,36.3,253.304,2456175
0.223206,-0.0626831,0.678528,0.184,-0.124,22.45,22.45,-0.222977,-0.501694,0,1216.62,-792.111,1,0,36.3,253.324,2456190
-0.0817871,0.0126953,1.58667,-0.064,0.085,22.77,22.77,-0.225677,-0.504227,0,1183.78,-979,1,0,36.3,253.343,2456205
-0.192261,0.0111694,0.241211,-0.171,0.093,23.41,23.41,-0.231354,-0.509033,0,1185.04,-439.821,1,0,36.3,253.363,2456235
0.214722,-0.107849,1.33215,0.156,-0.147,23.71,23.71,-0.234268,-0.511414,0,1227.52,-943.975,1,0,36.3,253.383,2456250
-0.104065,0.0933228,0.979492,-0.052,0.153,24.02,24.02,-0.237106,-0.513794,0,1173.36,-962.186,1,0,36.3,253.405,2456265
0.203674,-0.273682,0.370117,0.072,-0.323,24.64,24.64,-0.242691,-0.518402,0,1173.02,-1012.66,1,0,36.3,253.423,2456295
-0.106689,0.0232544,1.23596,-0.081,0.1,24.94,24.94,-0.245438,-0.52095,0,1261.19,-1055.63,1,0,36.3,253.444,2456310
-0.29187,0.0980225,0.854492,-0.217,0.239,25.51,25.51,-0.251465,-0.525818,0,1140.97,-909.835,1,0,36.3,253.464,2456340
0.0294189,-0.0637817,0.954163,0.003,-0.043,25.79,25.79,-0.254745,-0.528046,0,1059.94,-867.792,1,0,36.3,253.483,2456355
0.110474,-0.0201416,1.75647,0.097,-0.019,26.06,26.06,-0.25795,-0.530334,0,1305.4,-912.617,1,0,36.3,253.503,2456370
0.108093,-0.090271,0.798584,0.057,-0.104,26.29,26.29,-0.261047,-0.5327,0,1229.41,-1000.25,1,0,36.3,253.523,2456385
0.0731201,-0.169617,0.95575,-0.01,-0.155,26.74,26.74,-0.264114,-0.537643,0,1327.32,-1085.66,1,0,36.3,253.544,2456415
-0.25531,0.0421143,1.79736,-0.206,0.205,26.96,26.96,-0.264267,-0.540131,0,1332.27,-1086.78,1,0,36.3,253.563,2456430
-0.281189,0.0761108,0.738281,-0.215,0.219,27.16,27.16,-0.264694,-0.542328,0,1363.33,-977.183,1,0,36.3,253.584,2456445
-0.1651,0.0532837,1.49176,-0.119,0.168,27.54,27.54,-0.265839,-0.546509,0,1324.5,-1102.9,1,0,36.3,253.603,2456475
-0.0880127,-0.0501709,0.805359,-0.101,0.022,27.72,27.72,-0.266586,-0.548447,0,1358.23,-679.625,1,0,36.3,253.628,2456490
-0.0690918,-0.0439453,1.31329,-0.08,0.035,27.89,27.89,-0.267471,-0.550339,0,1183.08,-1166.25,1,0,36.3,253.644,2456505
0.170837,-0.365356,1.0061,-0.022,-0.368,28.21,28.21,-0.26918,-0.554199,0,1271.29,-1266.95,0.937023,0,36.3,253.664,2456535
0.103882,-0.0681152,1.0993,0.058,-0.07,28.34,28.34,-0.269974,-0.556549,0,1228.58,-992.31,0.875954,0,36.3,253.684,2456550
0.152344,-0.0164185,0.697693,0.125,-0.061,28.47,28.47,-0.27066,-0.558975,0,1251.17,-1410.64,0.820611,0,36.3,253.704,2456565
0.491882,-0.391479,0.496338,0.241,-0.559,28.65,28.65,-0.270935,-0.565079,0,1262.39,-1210.58,0.805344,0,36.25,253.723,2456595
0.0951538,-0.0380249,0.945374,0.061,-0.038,28.65,28.65,-0.27066,-0.568863,0,1262.87,-1338.6,0.805344,0,36.25,253.744,2456610
0.180298,-0.0872192,1.52258,0.111,-0.099,28.61,28.61,-0.270264,-0.572739,0,1148.11,-1251.88,0.805344,0,36.25,253.763,2456625
0.144714,0.0321045,1.1615,0.136,0.009,28.5,28.5,-0.268799,-0.5811,0,1282.46,-1526.95,0.79771,0,36.25,253.783,2456655
0.0350342,-0.122986,0.994385,-0.034,-0.08,28.43,28.43,-0.267868,-0.585419,0,1367.99,-1428.37,0.788168,0,36.25,253.803,2456670
-0.0601807,-0.0141602,0.886658,-0.063,0.054,28.37,28.37,-0.267014,-0.589737,0,1270.49,-1225.57,0.788168,0,36.25,253.823,2456685
0.0955811,0.0340576,0.627258,0.096,0.013,28.22,28.22,-0.265503,-0.598068,0,1290.32,-1606.68,0.788168,0,36.25,253.843,2456715
0.328308,0.15979,1.42529,0.358,0.049,28.15,28.15,-0.264435,-0.602127,0,1257.39,-1252.19,0.788168,0,36.25,253.863,2456730
0.172424,-0.0488281,0.474609,0.126,-0.101,28.07,28.07,-0.263031,-0.606247,0,1347.8,-1589.07,0.858779,0,36.25,253.883,2456745
0.205017,-0.120422,0.522156,0.121,-0.178,27.96,27.96,-0.260559,-0.614334,0,1446.55,-1444.25,0.866412,0,36.25,253.903,2456776
0.0831909,0.0916748,0.827454,0.111,0.081,27.93,27.93,-0.259216,-0.618439,0,1297.1,-1362.95,0.866412,0,36.25,253.923,2456790
-0.20105,0.078064,1.42963,-0.152,0.229,27.88,27.88,-0.257904,-0.62233,0,1452.43,-1653.44,0.866412,0,36.25,253.943,2456805
0.111267,0.103516,0.733459,0.142,0.073,27.79,27.79,-0.255203,-0.630035,0,1391.01,-1576.29,0.875954,0,36.25,253.963,2456836
0.294373,-0.161316,0.623596,0.181,-0.248,27.73,27.73,-0.253555,-0.634033,0,1347.16,-1517.34,0.875954,0,36.25,253.983,2456850
-0.122864,-0.0811157,1.60815,-0.154,0.06,27.7,27.7,-0.251892,-0.638153,0,1494.77,-1324.94,0.875954,0,36.25,254.003,2456865
0.116943,-0.124756,0.912109,0.039,-0.12,27.63,27.63,-0.248901,-0.646484,0,1382.74,-1493.21,0.883588,0,36.25,254.028,2456896
-0.126221,0.0228882,1.64948,-0.109,0.157,27.6,27.6,-0.247467,-0.650681,0,1335.83,-1614.73,0.883588,0,36.25,254.044,2456910
0.209229,0.0211792,0.221313,0.193,-0.066,27.58,27.58,-0.245972,-0.6548,0,1381.12,-1391.89,0.883588,0,36.25,254.063,2456925
-0.0588989,0.0159302,1.39203,-0.052,0.109,27.51,27.51,-0.242783,-0.662781,0,1528.7,-1432.05,0.883588,0,36.25,254.085,2456956
0.213257,0.0554199,0.462402,0.212,-0.025,27.47,27.47,-0.241119,-0.666626,0,1431.84,-1514.81,0.883588,0,36.25,254.103,2456970
0.368652,0.0715942,0.550232,0.356,-0.077,27.44,27.44,-0.239059,-0.670532,0,1402.43,-1597.06,0.820611,0,36.25,254.123,2456985
0.0287476,-0.228027,0.0120239,-0.079,-0.214,27.35,27.35,-0.234543,-0.678253,0,1551.35,-1404.4,0.711832,0,36.25,254.143,2457016
-0.24176,-0.0010376,1.19122,-0.223,0.17,27.31,27.31,-0.232544,-0.682159,0,1618.38,-1486.44,0.570611,0,36.25,254.163,2457030
0.0717163,0.0432739,0.525513,0.081,0.03,27.25,27.25,-0.230621,-0.685928,0,1410.34,-1113.46,0.343511,0,36.25,254.183,2457045
0.260925,0.256409,0.895081,0.345,0.153,27.16,27.16,-0.226318,-0.693512,0,1080.09,-1681.1,0.20229,0,36.25,254.203,2457076
0.32019,0.116882,1.19128,0.329,0.015,27.1,27.1,-0.223572,-0.697174,0,1112.9,-1582.15,0.0782443,0,36.19,254.224,2457090
-0.0246582,0.0340576,1.1745,-0.018,0.096,26.99,26.99,-0.220612,-0.70076,0,752.587,-1601.02,0.0305344,0,36.19,254.245,2457105
0.0778198,0.156982,1.02942,0.122,0.152,26.64,26.64,-0.213501,-0.707642,0,882.885,-1302.76,0.0152672,0,36.19,254.263,2457136
-0.108765,0.403076,1.98602,0.053,0.487,26.4,26.4,-0.209579,-0.710587,0,1159.82,-1501.39,0.00763359,0,36.19,254.284,2457150
0.0462646,0.180603,0.469177,0.111,0.16,26.11,26.11,-0.205566,-0.713104,0,1186.31,-1567.89,0.00763359,0,36.19,254.303,2457165
-0.140869,0.015625,-0.172363,-0.116,0.068,25.62,25.62,-0.198257,-0.717056,0,1303.27,-1392.66,0.00763359,0,36.19,254.324,2457196
-0.132019,-0.213928,1.51093,-0.243,-0.084,25.39,25.39,-0.195023,-0.718887,0,1332.45,-1449.07,0.00763359,0,36.19,254.344,2457210
0.00769043,0.175903,1.3017,0.059,0.198,25.22,25.22,-0.19191,-0.720642,0,1295.42,-1417.84,0.00763359,0,36.19,254.364,2457225
-0.00494385,0.0327148,1.09216,-0.011,0.068,25.01,25.01,-0.185242,-0.724197,0,1208.09,-1415.13,0.00763359,0,36.19,254.387,2457256
-0.093689,-0.179138,0.988342,-0.18,-0.089,24.92,24.92,-0.181976,-0.726028,0,1389.18,-1576.17,0.00763359,0,36.19,254.404,2457270
-0.0340576,0.0574341,1.46429,-0.033,0.115,24.84,24.84,-0.178864,-0.727844,0,1230.31,-1473.95,0.00763359,0,36.19,254.425,2457285
-0.452881,-0.101318,1.99994,-0.494,0.162,24.69,24.69,-0.172165,-0.731384,0,1331.56,-1401.64,0.00763359,0,36.19,254.449,2457316
0.116821,-0.559692,1.05396,-0.149,-0.52,24.62,24.62,-0.169281,-0.733368,0,1421.67,-1798.08,0.00763359,0,36.19,254.467,2457330
0.131165,0.195251,0.671387,0.186,0.148,24.57,24.57,-0.166367,-0.735611,0,1245.8,-1482.47,0.00763359,0,36.19,254.483,2457346
0.177307,-0.0463257,1.44183,0.111,-0.065,24.43,24.43,-0.15947,-0.740158,0,1251.33,-1473.3,0.00763359,0,36.19,254.508,2457376
-0.186707,0.0866699,0.828552,-0.152,0.186,24.35,24.35,-0.155869,-0.742416,0,1217.14,-1531.63,0.00763359,0,36.19,254.523,2457390
0.43457,0.0532227,0.327515,0.409,-0.117,24.28,24.28,-0.1521,-0.744629,0,1290.07,-1275.43,0.00763359,0,36.19,254.543,2457405
-0.162109,-0.0404663,0.166626,-0.168,0.035,24.13,24.13,-0.144577,-0.748734,0,1412.63,-1629.33,0.00763359,0,36.19,254.563,2457436
-0.00366211,0.0799561,0.616211,0.013,0.097,24.08,24.08,-0.141052,-0.75061,0,1336.09,-1651.94,0.00763359,0,36.19,254.584,2457451
0.432007,-0.0270386,1.19775,0.356,-0.16,24.04,24.04,-0.137268,-0.752518,0,1417.94,-1355.56,0.00763359,0,36.19,254.603,2457466
0.0209961,0.0814209,0.51178,0.04,0.083,23.94,23.94,-0.12912,-0.756226,0,1413.03,-1247.27,0.00763359,0,36.19,254.624,2457496
-0.167603,-0.00415039,1.09845,-0.179,0.099,23.88,23.88,-0.125122,-0.757889,0,1405.98,-1459,0.00763359,0,36.19,254.645,2457511
0.0289307,-0.0264282,1.479,-0.013,0.009,23.82,23.82,-0.121246,-0.759476,0,1396.84,-1630.39,0.00763359,0,36.19,254.664,2457526
-0.0969849,0.0971069,0.881165,-0.068,0.155,23.7,23.7,-0.112885,-0.762787,0,1276.41,-1421.16,0.00763359,0,36.19,254.695,2457556
-0.0136108,-0.0438843,1.48706,-0.059,0.009,23.64,23.64,-0.108704,-0.764313,0,1350.35,-1603.46,0.00763359,0,36.19,254.705,2457571
-0.0147095,-0.0397949,0.779785,-0.045,-0.005,23.52,23.52,-0.100555,-0.764313,0,1299.04,-1679.12,0.00763359,0,36.13,254.73,2457601
-0.0927124,0.234497,1.13977,-0.01,0.284,23.47,23.47,-0.0965424,-0.76413,0,1373.53,-1197.75,0.00763359,0,36.13,254.745,2457616
-0.0575562,-0.100647,1.18024,-0.113,-0.034,23.41,23.41,-0.0926361,-0.763763,0,1422.37,-1626.81,0.00763359,0,36.13,254.764,2457631
-0.0167236,0.113281,1.18768,0.008,0.144,23.33,23.33,-0.08461,-0.76297,0,1315.88,-1471.24,0.00763359,0,36.13,254.788,2457661
0.460938,0.0571899,1.51318,0.42,-0.087,23.28,23.28,-0.080246,-0.762482,0,1405.88,-1360.17,0.00763359,0,36.13,254.803,2457676
0.248901,-0.0351562,0.636963,0.202,-0.112,23.24,23.24,-0.0754547,-0.762131,0,1449.59,-1572.33,-0.0153257,0,36.13,254.824,2457691
-0.0827026,-0.0993042,0.77002,-0.13,-0.037,23.12,23.12,-0.0657501,-0.761307,0,1245.95,-1686.2,-0.141762,0,36.13,254.846,2457721
0.182129,0.0324707,0.936218,0.162,-0.015,23.07,23.07,-0.0609283,-0.76091,0,961.908,-1430.41,-0.260536,0,36.13,254.864,2457736
0.409119,0.261597,1.06665,0.454,0.11,23.01,23.01,-0.0556793,-0.760437,0,561.041,-1210.51,-0.465517,0,36.13,254.884,2457751
0.374268,0.2276,1.17303,0.405,0.091,22.89,22.89,-0.0498505,-0.759842,0,192.912,-1757.16,-0.590038,0,36.13,254.904,2457766
-0.124023,0.22406,1.36963,-0.072,0.284,22.47,22.47,-0.0374756,-0.757996,0,-207.894,-1318.83,-0.653257,0,36.13,254.924,2457796
0.657471,0.330872,1.06244,0.7,0.076,22.22,22.22,-0.0308533,-0.756683,0,-219.027,-1427.65,-0.756705,0,36.13,254.944,2457811
0.41449,0.311523,0.917542,0.467,0.148,21.89,21.89,-0.0234375,-0.755219,0,-341.623,-1449.38,-0.842912,0,36.13,254.963,2457826
0.101196,0.35614,1.00659,0.18,0.306,21.1,21.1,-0.00717163,-0.751663,0,-493.547,-1464.45,-0.95977,0,36.13,254.983,2457856
0.304993,0.3573,0.940735,0.368,0.235,20.65,20.65,0.00149536,-0.749374,0,-507.795,-1306.68,-1,0,36.13,255.004,2457871
0.116638,0.404846,1.38489,0.182,0.346,20.15,20.15,0.0105591,-0.746689,0,-608.643,-1520.8,-1,0,36.13,255.024,2457886
0.181335,0.265991,1.15833,0.197,0.192,19.11,19.11,0.0294037,-0.740402,0,-776.729,-1439.68,-1,0,36.13,255.044,2457916
0.447632,0.220093,0.802307,0.45,0.065,18.57,18.57,0.0393829,-0.736969,0,-711.794,-1216.03,-1,0,36.13,255.063,2457931
0.282959,0.154602,1.13751,0.25,0.056,18,18,0.0498352,-0.733459,0,-741.647,-1166.52,-1,0,36.13,255.083,2457946
0.44519,0.185791,0.731567,0.434,0.043,16.81,16.81,0.0717316,-0.726257,0,-835.736,-1225.26,-1,0,36.13,255.103,2457976
0.190613,0.119324,0.741943,0.167,0.056,16.16,16.16,0.0832977,-0.722549,0,-817.896,-1199.69,-1,0,36.13,255.123,2457991
0.448608,0.234924,1.09137,0.421,0.095,15.51,15.51,0.0952606,-0.71875,0,-789.328,-1132.76,-1,0,36.13,255.146,2458006
0.323181,0.183289,0.913696,0.291,0.088,14.08,14.08,0.119904,-0.71051,0,-987.947,-1173.64,-1,0,36.13,255.166,2458036
0.104065,0.0385742,0.724792,0.056,0.004,13.36,13.36,0.132553,-0.706223,0,-1004.32,-1153.27,-1,0,36.13,255.183,2458051
0.199646,0.180542,1.32043,0.135,0.114,12.65,12.65,0.14534,-0.701859,0,-999.85,-876.77,-1,0,36.13,255.204,2458066
0.203064,0.233276,1.40784,0.137,0.165,11.17,11.17,0.172058,-0.69281,0,-885.191,-1082.31,-1,0,36.13,255.224,2458096
0.186279,0.0546875,0.815186,0.128,0.005,10.42,10.42,0.185791,-0.68811,0,-935.322,-1207.29,-0.795019,0,36.07,255.244,2458111
0.151672,0.0753784,0.772705,0.098,0.034,9.64,9.64,0.199677,-0.683365,0,-1031.78,-1149.43,-0.488506,0,36.07,255.264,2458126
0.354797,0.168884,1.1192,0.279,0.093,8,8,0.2285,-0.673691,0,-680.388,-925.198,-0.275862,0,36.07,255.283,2458156
0.294922,0.185059,1.07062,0.221,0.123,7.12,7.12,0.243469,-0.668655,0,-442.635,-1138.5,-0.118774,0,36.07,255.303,2458171
0.272217,0.235168,0.85199,0.218,0.183,6.19,6.19,0.258728,-0.663406,0,-135.767,-643.563,0.00763359,0,36.07,255.325,2458186
0.0562744,0.332825,1.52167,-0.056,0.285,4.28,4.28,0.289764,-0.652496,0,0,-1332.89,0.00763359,0,36.07,255.343,2458216
0.153259,0.14093,0.62738,0.101,0.113,3.32,3.32,0.305328,-0.646683,0,212.947,-1146.46,0.00763359,0,36.07,255.363,2458231
0.0750732,0.0611572,1.08417,-0.025,0.024,2.38,2.38,0.320938,-0.640778,0,317.854,-1198.11,0.00763359,0,36.07,255.383,2458246
0.100281,-0.088501,1.01917,0.002,-0.119,0.65,0.65,0.352127,-0.629196,0,376.364,-1079.74,0.00763359,0,36.07,255.404,2458276
0.136597,-0.123169,0.801086,0.061,-0.145,-0.11,359.88,0.367752,-0.623657,0,410.669,-1048.11,0.00763359,0,36.07,255.426,2458291
0.0810547,-0.0379028,0.887573,-0.001,-0.061,-0.85,359.14,0.383423,-0.618256,0,509.814,-1111.05,0.00763359,0,36.07,255.446,2458306
-0.113831,-0.0628052,0.91626,-0.195,-0.089,-2.23,357.76,0.414474,-0.608032,0,588.859,-1105.52,0.00763359,0,36.07,255.464,2458336
0.0742798,-0.108398,1.24719,-0.034,-0.133,-2.92,357.07,0.429749,-0.60318,0,529.928,-1248.91,0.00763359,0,36.07,255.484,2458351
-0.107361,-0.1828,0.895081,-0.177,-0.208,-3.6,356.39,0.444885,-0.598557,0,545.539,-1020.41,0.00763359,0,36.07,255.505,2458366
-0.208557,-0.0563965,1.27643,-0.318,-0.098,-4.89,355.1,0.474945,-0.589981,0,594.195,-1171.23,0.00763359,0,36.07,255.524,2458396
-0.0337524,-0.0629883,1.13391,-0.127,-0.086,-5.5,354.49,0.489609,-0.585907,0,620.405,-1117.26,0.00763359,0,36.07,255.546,2458411
0.0461426,-0.0201416,0.800171,-0.023,-0.028,-6.1,353.89,0.504166,-0.581909,0,643.687,-732.681,0.0706107,0,36.07,255.564,2458426
-0.0325928,-0.111633,0.959045,-0.1,-0.13,-7.22,352.77,0.532822,-0.574127,0,578.001,-1271.94,0.141221,0,36.07,255.583,2458457
0.0178833,0.0830078,1.15137,-0.09,0.066,-7.72,352.27,0.546921,-0.570328,0,494.438,-1122.15,0.343511,0,36.07,255.603,2458471
0.215576,-0.0623779,0.689148,0.162,-0.041,-8.25,351.74,0.561066,-0.566528,0,570.711,-1286.92,0.383588,0,36.07,255.624,2458486
0.152344,-0.0404053,1.20575,0.054,-0.035,-9.36,350.63,0.589279,-0.55896,0,622.219,-1022.49,0.461832,0,36.07,255.643,2458517
0.166565,-0.102722,0.64032,0.127,-0.082,-9.89,350.1,0.60347,-0.555267,0,693.914,-1076.48,0.477099,0,36.07,255.663,2458531
-0.0489502,-0.076416,0.960693,-0.113,-0.098,-10.4,349.59,0.617676,-0.551697,0,752.955,-1314.58,0.484733,0,36.07,255.683,2458546
-0.0917358,-0.19989,0.860901,-0.12,-0.225,-11.3,348.69,0.646378,-0.544922,0,782.626,-1122.78,0.507634,0,36.07,255.703,2458577
-0.0861816,-0.0457764,1.34766,-0.181,-0.077,-11.7,348.29,0.660583,-0.54184,0,794.818,-1144.95,0.641221,0,36.07,255.724,2458591
0.300415,-0.109802,0.706238,0.26,-0.051,-12.07,347.92,0.674835,-0.538834,0,871.27,-973.994,0.772901,0,36.07,255.743,2458606
0.216248,-0.225403,0.752747,0.202,-0.178,-12.76,347.23,0.703323,-0.533188,0,800.576,-1212.93,0.937023,0,36.09,255.763,2458637
-0.237305,-0.101196,1.47754,-0.315,-0.162,-13.04,346.95,0.717468,-0.530685,0,907.771,-685.072,1,0,36.09,255.783,2458651
0.132446,-0.214355,0.609192,0.133,-0.181,-13.29,346.7,0.731506,-0.528427,0,1205.55,-1255.1,1,0,36.09,255.805,2458666
-0.343811,-0.267334,0.847839,-0.328,-0.342,-13.67,346.32,0.758911,-0.524857,0,1209.12,-1183.5,1,0,36.09,255.823,2458697
-0.481934,-0.226501,1.39587,-0.507,-0.332,-13.76,346.23,0.771835,-0.523727,0,1159.49,-1444.46,1,0,36.09,255.845,2458711
0.0977173,-0.111389,0.6828,0.076,-0.081,-13.8,346.19,0.78447,-0.522888,0,1210.58,-1272.35,1,0,36.09,255.864,2458726
-0.0779419,-0.0959473,1.45117,-0.146,-0.1,-13.85,346.14,0.809296,-0.521881,0,1282.13,-1251.96,1,0,36.09,255.883,2458757
-0.105164,-0.188416,1.06598,-0.124,-0.197,-13.84,346.15,0.821411,-0.521698,0,1343.27,-1075.27,1,0,36.09,255.903,2458771
-0.135498,-0.212219,0.644714,-0.122,-0.231,-13.84,346.15,0.833359,-0.52182,0,1298.45,-1291.82,1,0,36.09,255.923,2458786
-0.0452881,-0.226868,0.74939,-0.037,-0.22,-13.81,346.18,0.855743,-0.523178,0,1305.91,-1357.13,1,0,36.09,255.944,2458817
0.0169067,-0.0457153,1.46838,-0.064,-0.016,-13.79,346.2,0.866638,-0.5242,0,1404,-1486.77,1,0,36.09,255.965,2458831
-0.012146,-0.259399,0.320007,0.028,-0.249,-13.78,346.21,0.877518,-0.525406,0,1284.44,-1498.24,1,0,36.09,255.984,2458846
-0.329834,-0.0952759,1.42346,-0.385,-0.145,-13.76,346.23,0.899765,-0.528671,0,1501.5,-1773.99,1,0,36.09,256.003,2458877
-0.195923,-0.304871,0.28833,-0.137,-0.336,-13.75,346.24,0.910538,-0.530746,0,1530.69,-1347.53,1,0,36.09,256.023,2458891
-0.232483,-0.13678,1.2005,-0.268,-0.162,-13.76,346.23,0.921036,-0.533157,0,1309.93,-1440.3,1,0,36.09,256.043,2458906
-0.427673,-0.0994873,1.29712,-0.47,-0.167,-13.76,346.23,0.940826,-0.538742,0,1566.42,-1346.98,1,0,36.09,256.063,2458937
-0.28717,-0.0958252,-0.145935,-0.246,-0.165,-13.78,346.21,0.949982,-0.541885,0,1472.54,-1474.06,1,0,36.09,256.083,2458951
-0.404602,-0.145081,1.99994,-0.478,-0.186,-13.79,346.2,0.958664,-0.545288,0,1562.74,-1529.99,1,0,36.09,256.103,2458966
0.112976,0.0435181,0.0734863,0.094,0.071,-13.8,346.19,0.975464,-0.552582,0,1463.7,-1423.08,1,0,36.09,256.124,2458997
0.156372,0.0150757,1.79144,0.041,0.1,-13.81,346.18,0.984009,-0.556137,0,1557.88,-1564.21,1,0,36.09,256.143,2459011
0.141296,0.0275879,0.380859,0.106,0.071,-13.78,346.21,1.00159,-0.562668,0,1508.98,-1144.49,1,0,36.09,256.17,2459041
-0.292419,0.0342407,1.41309,-0.375,0.002,-13.77,346.22,1.0103,-0.565796,0,1598.98,-1634.65,1,0,36.09,256.189,2459057
-0.0569458,-0.0482178,0.898804,-0.097,-0.034,-13.75,346.24,1.01868,-0.568939,0,1502.07,-1431.43,1,0,36.09,256.203,2459071
-0.0581665,-0.153442,0.256287,-0.035,-0.155,-13.7,346.29,1.02696,-0.572205,0,1538.22,-1688.9,1,0,36.09,256.223,2459086
0.37616,0.0117188,0.780823,0.316,0.123,-13.58,346.41,1.04362,-0.578537,0,1582.9,-1556.18,1,0,36.09,256.244,2459117
0.0543213,0.0220337,-0.0065918,0.047,0.034,-13.53,346.46,1.05229,-0.581497,0,1708.23,-1623.24,1,0,36.1,256.263,2459132
-0.361389,-0.0626221,1.99994,-0.454,-0.088,-13.52,346.47,1.06068,-0.584488,0,1489.31,-1556.06,1,0,36.1,256.283,2459147
0.460327,0.0708618,0.924927,0.378,0.203,-13.49,346.5,1.06902,-0.587418,0,1683.5,-1524.74,1,0,36.1,256.303,2459162
-0.404114,-0.0404053,1.8858,-0.493,-0.077,-13.45,346.54,1.08557,-0.593002,0,1466.38,-1588.56,1,0,36.1,256.324,2459192
0.0794678,0.141541,0.645752,0.005,0.176,-13.46,346.53,1.09329,-0.595749,0,1473.95,-1824.48,1,0,36.1,256.344,2459207
0.0681152,0.0300903,1.7218,-0.04,0.094,-13.43,346.56,1.10867,-0.600952,0,1587.05,-1455.92,1,0,36.1,256.364,2459237
-0.043335,-0.0768433,0.721252,-0.065,-0.063,-13.38,346.61,1.11627,-0.6035,0,1645.28,-1525.9,1,0,36.1,256.383,2459252
0.0412598,-0.0368652,-0.248474,0.063,-0.033,-13.34,346.65,1.12387,-0.60611,0,1771.79,-1563.6,1,0,36.1,256.403,2459267
-0.343323,0.116943,1.99994,-0.468,0.088,-13.3,346.69,1.1312,-0.608688,0,1710.57,-1239,1,0,36.1,256.423,2459282
0.0467529,0.134155,0.775452,-0.028,0.163,-13.18,346.81,1.14522,-0.613617,0,1626.55,-1406.37,1,0,36.1,256.443,2459312
-0.130188,0.088562,1.20044,-0.206,0.083,-13.1,346.89,1.15207,-0.61586,0,1538.82,-1369.11,1,0,36.1,256.463,2459327
0.144775,0.214111,0.618347,0.061,0.255,-12.82,347.17,1.16536,-0.620407,0,1391.5,-1321.62,1,0,36.1,256.486,2459357
-0.175964,0.125671,1.99994,-0.293,0.12,-12.72,347.27,1.17183,-0.622391,0,1633.32,-834.69,1,0,36.1,256.505,2459372
0.453735,0.204529,-0.414001,0.416,0.291,-12.6,347.39,1.17839,-0.6241,0,1428.78,-1155.47,1,0,36.1,256.524,2459387
-0.563965,0.502319,1.93573,-0.736,0.397,-12.35,347.64,1.19212,-0.626404,0,1557.51,-1325.03,1,0,36.1,256.543,2459417
-0.228027,-0.193176,0.0955811,-0.185,-0.235,-12.21,347.78,1.19818,-0.627228,0,1495.44,-1138.82,1,0,36.1,256.563,2459432
-0.0880127,0.358704,1.85193,-0.24,0.36,-12.06,347.93,1.20396,-0.627975,0,1556.06,-1359.16,1,0,36.1,256.583,2459447
0.10144,0.100586,0.174438,0.071,0.121,-11.77,348.22,1.21507,-0.628372,0,1482.25,-1142.66,1,0,36.1,256.604,2459477
0.163818,0.083374,1.40637,0.088,0.13,-11.59,348.4,1.22072,-0.628281,0,1520.33,-1101.44,1,0,36.1,256.627,2459492
-0.136292,0.286377,0.731812,-0.219,0.26,-11.4,348.59,1.22629,-0.627914,0,1409.24,-1176.82,1,0,36.1,256.644,2459507
-0.0476074,0.134705,1.63232,-0.129,0.13,-10.94,349.05,1.23706,-0.626282,0,1423.59,-1062.02,1,0,36.1,256.664,2459537
-0.0697632,0.225586,0.963074,-0.143,0.212,-10.69,349.3,1.24222,-0.625122,0,1514.35,-981.836,1,0,36.1,256.684,2459552
-0.110535,0.253662,0.389343,-0.167,0.231,-10.41,349.58,1.24716,-0.623657,0,1378.17,-1082.84,1,0,36.1,256.706,2459567
-0.125244,0.0762329,1.1059,-0.167,0.054,-9.81,350.18,1.25665,-0.619995,0,1317.52,-968.429,1,0,36.1,256.723,2459597
-0.204712,0.0413208,0.717407,-0.229,0.008,-9.52,350.47,1.26105,-0.618057,0,1501.28,-1011.22,1,0,36.1,256.744,2459612
-0.0452881,-0.000671387,0.893494,-0.066,-0.007,-9.21,350.78,1.26524,-0.616104,0,1416.43,-937.91,1,0,36.1,256.767,2459627
-0.144104,0.0741577,0.697083,-0.171,0.05,-8.58,351.41,1.27267,-0.611862,0,1492.31,-962.325,1,0,36.06,256.783,2459657
-0.267456,-0.0197144,0.7771,-0.28,-0.06,-8.25,351.74,1.27588,-0.60968,0,1279.92,-989.022,1,0,36.06,256.806,2459672
-0.286194,0.131714,1.32892,-0.33,0.084,-7.91,352.08,1.27869,-0.607468,0,1272.35,-973.378,1,0,36.06,256.823,2459687
-0.125488,-0.0571289,0.138062,-0.12,-0.073,-7.23,352.76,1.28268,-0.602478,0,1549.67,-773.276,1,0,36.06,256.847,2459717
-0.301208,0.131775,1.74878,-0.349,0.081,-6.88,353.11,1.28415,-0.599915,0,1286.75,-773.605,1,0,36.06,256.869,2459732
-0.149841,-0.0116577,0.899536,-0.164,-0.035,-6.53,353.46,1.28526,-0.597305,0,1376.08,-883.978,1,0,36.06,256.883,2459747
-0.300293,0.0519409,0.683716,-0.315,0.015,-5.82,354.17,1.28671,-0.591934,0,1365,-1045.7,1,0,36.06,256.903,2459777
-0.0297241,0.0834351,1.65277,-0.066,0.065,-5.48,354.51,1.28702,-0.589157,0,1287.08,-857.045,1,0,36.06,256.924,2459792
0.121521,-0.0907593,0.498779,0.12,-0.083,-5.14,354.85,1.28735,-0.586395,0,1301.66,-1025.9,1,0,36.06,256.943,2459807
0.309204,-0.138367,1.78827,0.291,-0.131,-4.51,355.48,1.28865,-0.580734,0,1340.57,-989.022,1,0,36.06,256.964,2459837
0.123474,-0.192017,0.5401,0.126,-0.186,-4.25,355.74,1.28973,-0.57811,0,1269.04,-1007.4,1,0,36.06,256.983,2459852
0.206177,-0.0605469,0.839783,0.193,-0.051,-4,355.99,1.29102,-0.575653,0,1351.99,-549.254,1,0,36.06,257.004,2459867
0.0327759,-0.0863037,1.16742,0.017,-0.091,-3.78,356.21,1.29247,-0.573288,0,1316.4,-1204.82,1,0,36.06,257.024,2459882
0.266296,-0.116699,1.23022,0.248,-0.106,-3.38,356.61,1.29587,-0.568649,0,1390.24,-1010.36,1,0,36.06,257.044,2459912
0.268311,-0.190613,1.2121,0.253,-0.181,-3.06,356.93,1.30045,-0.564423,0,1348.53,-1210.58,1,0,36.06,257.07,2459942
0.232117,-0.15094,1.02051,0.217,-0.142,-2.89,357.1,1.30321,-0.562607,0,1323.01,-1229.33,1,0,36.06,257.084,2459957
0.207458,-0.0924072,1.05255,0.19,-0.085,-2.75,357.24,1.30626,-0.560944,0,1205.91,-1033.54,1,0,36.06,257.103,2459972
0.249207,-0.11615,0.795837,0.238,-0.106,-2.6,357.39,1.30959,-0.559402,0,1447.6,-1127.97,1,0,36.06,257.123,2459987
-0.0203857,-0.055481,1.01819,-0.04,-0.055,-2.33,357.66,1.3166,-0.556778,0,1388.12,-1426.13,1,0,36.06,257.144,2460017
-0.0784302,-0.0485229,0.229492,-0.081,-0.051,-2.21,357.78,1.32002,-0.555588,0,1365.84,-1317.96,1,0,36.06,257.163,2460032
-0.110413,-0.12439,1.44958,-0.136,-0.127,-2.1,357.89,1.3233,-0.55452,0,1198.18,-1353.18,1,0,36.06,257.184,2460047
-0.0577393,-0.0128784,0.828247,-0.076,-0.012,-1.91,358.08,1.32932,-0.552856,0,1231.75,-1333.6,1,0,36.06,257.205,2460077
0.0484619,-0.132751,0.585571,0.04,-0.129,-1.83,358.16,1.33223,-0.55217,0,1243.86,-1029.5,0.921756,0,36.06,257.224,2460092
-0.189026,-0.265198,1.36218,-0.212,-0.263,-1.8,358.19,1.33502,-0.551758,0,1254.39,-1337.97,0.891221,0,36.06,257.244,2460107
-0.34375,0.127563,1.61621,-0.382,0.129,-1.72,358.27,1.34055,-0.55159,0,1294.33,-1504.32,0.875954,0,36.06,257.263,2460137
-0.212097,-0.149109,0.360779,-0.216,-0.152,-1.71,358.28,1.34283,-0.551529,0,1193.03,-1378.36,0.858779,0,36.03,257.283,2460152
-0.30835,-0.0836792,1.10992,-0.333,-0.081,-1.68,358.31,1.34476,-0.551651,0,1397.53,-1353.55,0.851145,0,36.03,257.304,2460167
-0.183655,0.0111084,0.61676,-0.198,0.012,-1.68,358.31,1.34836,-0.551971,0,1353.18,-1579.78,0.843511,0,36.03,257.325,2460198
0.0611572,0.0667725,0.915588,0.036,0.079,-1.68,358.31,1.35004,-0.552063,0,1404.1,-1311.05,0.843511,0,36.03,257.352,2460212
-0.114258,0.0122681,1.34918,-0.145,0.024,-1.68,358.31,1.35164,-0.552094,0,1368.93,-1348.34,0.843511,0,36.03,257.366,2460227
-0.174683,0.0374756,1.0976,-0.202,0.046,-1.71,358.28,1.35477,-0.552017,0,1369.02,-1404.4,0.843511,0,36.03,257.383,2460258
0.0526733,-0.0530396,0.928833,0.03,-0.038,-1.72,358.27,1.35619,-0.551956,0,1423.99,-1512.52,0.843511,0,36.03,257.403,2460272
-0.0440063,0.0336914,1.59094,-0.082,0.053,-1.73,358.26,1.35757,-0.55188,0,1497.57,-1431.23,0.843511,0,36.03,257.423,2460287
0.111267,-0.144043,1.50122,0.077,-0.12,-1.78,358.21,1.3606,-0.551727,0,1455.07,-1627.21,0.843511,0,36.03,257.443,2460318
0.202759,-0.163635,0.757202,0.188,-0.146,-1.8,358.19,1.36237,-0.551865,0,1474.06,-1522.88,0.843511,0,36.03,257.464,2460332
-0.043396,0.0761108,1.53046,-0.084,0.097,-1.81,358.18,1.3642,-0.552048,0,1500.49,-1472,0.937023,0,36.03,257.484,2460347
-0.196289,-0.259949,0.254333,-0.194,-0.262,-1.84,358.15,1.36584,-0.552338,0,1408.95,-1199.47,0.977099,0,36.03,257.503,2460362
0.14679,0.038147,0.805176,0.125,0.054,-1.87,358.12,1.36876,-0.55307,0,1371.37,-1603.98,0.992366,0,36.03,257.524,2460392
-0.0853271,0.0999756,0.698975,-0.107,0.108,-1.87,358.12,1.37022,-0.553284,0,1481.15,-1618.91,1,0,36.03,257.544,2460407
0.127502,-0.224182,0.03125,0.133,-0.219,-1.85,358.14,1.37326,-0.553131,0,1503.19,-1576.17,1,0,36.03,257.563,2460438
-0.043396,0.145691,1.64661,-0.089,0.168,-1.83,358.16,1.37488,-0.55307,0,1466.6,-1124.35,1,0,36.03,257.584,2460452
-0.0426636,-0.1297,1.71521,-0.08,-0.106,-1.82,358.17,1.37637,-0.552963,0,1597.44,-1689.9,1,0,36.03,257.604,2460467
-0.3255,-0.015625,1.26282,-0.358,-0.004,-1.77,358.22,1.37903,-0.553726,0,1538.94,-1557.51,1,0,36.03,257.624,2460498
0.0811768,-0.188171,0.795715,0.065,-0.17,-1.76,358.23,1.38002,-0.554367,0,1410.93,-1522.53,1,0,36.03,257.644,2460512
0.280762,0.127991,1.00391,0.252,0.155,-1.72,358.27,1.38124,-0.555023,0,1699.38,-1350.62,1,0,36.03,257.663,2460527
0.0402222,0.079895,1.14368,0.007,0.103,-1.71,358.28,1.38264,-0.555496,0,1697.94,-1733.55,1,0,36.03,257.683,2460542
-0.211182,0.0938721,1.1059,-0.245,0.11,-1.7,358.29,1.38536,-0.55629,0,1561.16,-1770.07,1,0,36.03,257.705,2460572
-0.204651,-0.215759,0.714539,-0.218,-0.207,-1.71,358.28,1.38634,-0.556717,0,1626.41,-1657.14,1,0,36.03,257.724,2460587
-0.153992,-0.0162354,1.24677,-0.182,0.005,-1.7,358.29,1.38704,-0.557297,0,1450.54,-1333.24,1,0,36.03,257.743,2460602
0.0258789,0.220886,1.41156,-0.014,0.25,-1.66,358.33,1.38791,-0.558487,0,1633.59,-1629.59,1,0,36.03,257.763,2460632
0.295227,-0.233459,1.05237,0.276,-0.202,-1.62,358.37,1.38847,-0.559006,0,1495.89,-1474.17,1,0,36.03,257.784,2460647
0.0162354,0.210571,1.11633,-0.016,0.234,-1.6,358.39,1.38922,-0.559509,0,1369.21,-1619.17,1,0,35.98,257.803,2460662
0.0216675,0.0784912,1.6333,-0.016,0.108,-1.57,358.42,1.39047,-0.560394,0,1574.8,-1633.85,1,0,35.98,257.823,2460692
-0.214355,-0.183289,0.49408,-0.221,-0.178,-1.56,358.43,1.3909,-0.560913,0,1490.31,-1593.88,1,0,35.98,257.843,2460708
-0.113098,-0.06604,0.875183,-0.131,-0.052,-1.51,358.48,1.39062,-0.561829,0,1683.93,-1607.07,1,0,35.98,257.864,2460738
0.292297,-0.125549,1.43817,0.259,-0.09,-1.5,358.49,1.3904,-0.562347,0,1508.98,-1497.12,1,0,35.98,257.883,2460752
0.217651,-0.133545,0.67395,0.203,-0.114,-1.49,358.5,1.39049,-0.563004,0,1555.45,-1550.03,1,0,35.98,257.903,2460767
-0.155029,-0.116211,0.794922,-0.173,-0.104,-1.53,358.46,1.39037,-0.56427,0,1658.93,-1883.06,1,0,35.98,257.924,2460798
0.0692749,0.00939941,0.94519,0.045,0.029,-1.5,358.49,1.39009,-0.564957,0,1550.87,-1658.37,1,0,35.98,257.943,2460812
-0.0668335,-0.215271,1.29071,-0.093,-0.192,-1.54,358.45,1.38977,-0.56575,0,1384.18,-1699.67,1,0,35.98,257.963,2460827
0.28241,0.0510864,0.71936,0.262,0.072,-1.53,358.46,1.38957,-0.56662,0,1500.38,-1605.27,1,0,35.98,257.983,2460843
0.327393,-0.0977173,0.170227,0.325,-0.085,-1.55,358.44,1.38878,-0.568237,0,1569.49,-1456.35,1,0,35.98,258.003,2460873
-0.682739,0.0375366,1.71497,-0.728,0.049,-1.55,358.44,1.38806,-0.569107,0,1548.23,-1698.8,1,0,35.98,258.023,2460888
0.152893,0.0361328,0.450623,0.14,0.048,-1.54,358.45,1.38693,-0.569885,0,1650.98,-1598.59,1,0,35.98,258.043,2460903
-0.209778,0.0601196,0.71051,-0.231,0.066,-1.55,358.44,1.38461,-0.570908,0,1654.12,-1534.92,1,0,35.98,258.063,2460933
-0.161804,0.203186,1.16467,-0.195,0.218,-1.52,358.47,1.38306,-0.571136,0,1821.99,-1958.67,1,0,35.98,258.083,2460948
0.115479,-0.0508423,0.953369,0.091,-0.032,-1.49,358.5,1.37981,-0.571335,0,1574.68,-1648.8,0.921756,0,35.98,258.103,2460978
0.0904541,-0.0532227,1.01007,0.067,-0.035,-1.45,358.54,1.37831,-0.571503,0,1573.69,-1610.05,0.858779,0,35.98,258.124,2460993
0.16449,-0.180176,1.19904,0.136,-0.155,-1.45,358.54,1.37697,-0.571808,0,1484.56,-1737.77,0.805344,0,35.98,258.143,2461008
-0.173645,-0.180664,0.899292,-0.193,-0.169,-1.41,358.58,1.3756,-0.572327,0,1682.09,-1705.61,0.742366,0,35.98,258.163,2461023
-0.106628,-0.0839844,0.586548,-0.121,-0.076,-1.41,358.58,1.37224,-0.573532,0,1639.48,-1596.3,0.694656,0,35.98,258.184,2461053
0.0366211,-0.0240479,1.18634,0.003,-0.003,-1.41,358.58,1.37041,-0.574203,0,1381.22,-1621.8,0.633588,0,35.98,258.203,2461069
0.827209,0.332214,0.6698,0.798,0.364,-1.43,358.56,1.36693,-0.573959,0,1388.12,-1526.25,0.608779,0,35.98,258.224,2461098
-0.165405,0.0264282,1.99994,-0.228,0.049,-1.51,358.48,1.36578,-0.573425,0,1329.08,-1604.88,0.562977,0,35.98,258.244,2461113
-0.0236206,0.155029,0.270813,-0.036,0.157,-1.61,358.38,1.36446,-0.572739,0,1572.08,-1681.8,0.522901,0,35.98,258.264,2461128
-0.211365,0.179504,0.960938,-0.249,0.182,-1.85,358.14,1.36205,-0.570953,0,1308.3,-1606.68,0.484733,0,35.98,258.284,2461158
0.321655,0.283691,1.67566,0.26,0.305,-1.97,358.02,1.36082,-0.569641,0,1406.87,-1659.34,0.414122,0,35.93,258.303,2461173
0.254822,0.0668945,0.28009,0.241,0.078,-2.09,357.9,1.35995,-0.568069,0,1196.6,-1627.74,0.335878,0,35.93,258.323,2461188
0.0246582,0.152344,1.99994,-0.05,0.161,-2.2,357.79,1.35921,-0.56633,0,1225.57,-1530.1,0.194656,0,35.93,258.343,2461203
0.567139,0.248596,1.6076,0.492,0.275,-2.48,357.51,1.35854,-0.562195,0,987.313,-1391.98,0.0782443,0,35.93,258.364,2461233
0.092041,0.0113525,1.10638,0.049,0.014,-2.68,357.31,1.35881,-0.559799,0,794.376,-1543.81,0.0229008,0,35.93,258.383,2461248
0.16925,0.181091,0.355652,0.144,0.188,-2.9,357.09,1.35924,-0.557251,0,691.994,-1785.4,0.00763359,0,35.93,258.403,2461263
0.00970459,0.218689,0.826721,-0.04,0.215,-3.48,356.51,1.3595,-0.551651,0,935.016,-1479.18,0.00763359,0,35.93,258.424,2461293
0.0830078,0.288025,0.409607,0.045,0.29,-3.78,356.21,1.3595,-0.548431,0,1054.35,-1400.27,0.00763359,0,35.93,258.446,2461308
0.23999,0.00897217,0.693726,0.208,0.021,-4.4,355.59,1.35922,-0.541824,0,1275.92,-1437.71,0.00763359,0,35.93,258.464,2461338
-0.0411377,0.0400391,0.177368,-0.052,0.035,-4.65,355.34,1.35918,-0.538528,0,1137.85,-1361.29,0.00763359,0,35.93,258.483,2461353
0.249634,-0.145874,1.40002,0.2,-0.139,-4.9,355.09,1.35924,-0.535294,0,1260.08,-1415.53,0.00763359,0,35.93,258.504,2461368
0.138367,0.282227,1.28864,0.063,0.278,-5.1,354.89,1.35947,-0.531967,0,1238.47,-1482.91,0.00763359,0,35.93,258.525,2461383
-0.083252,0.165039,1.08105,-0.139,0.144,-5.4,354.59,1.36009,-0.524887,0,1242.93,-1429.18,0.00763359,0,35.93,258.543,2461413
0.00201416,-0.0805664,1.98657,-0.066,-0.099,-5.53,354.46,1.36024,-0.521271,0,1364.26,-1276.49,0.00763359,0,35.93,258.564,2461428
0.0775757,0.0904541,0.478088,0.048,0.093,-5.69,354.3,1.36061,-0.51387,0,1280.49,-1382.17,0.00763359,0,35.93,258.584,2461458
0.053772,-0.141663,1.57574,0.012,-0.152,-5.74,354.25,1.36087,-0.510132,0,1296.43,-1340.12,0.00763359,0,35.93,258.604,2461473
0.206848,0.0480957,0.6521,0.178,0.063,-5.81,354.18,1.36125,-0.506454,0,1093.43,-1592.23,0.00763359,0,35.93,258.624,2461488
0.133606,0.257202,1.97528,0.047,0.251,-5.96,354.03,1.36258,-0.498657,0,1222.27,-1420.96,0.125954,0,35.93,258.645,2461518
0.352356,-0.116333,0.277161,0.353,-0.08,-6.04,353.95,1.36359,-0.494522,0,1047.83,-1164.08,0.288168,0,35.93,258.663,2461533
-0.198425,0.213928,1.07336,-0.255,0.183,-6.1,353.89,1.36465,-0.490311,0,903.587,-1343.45,0.406489,0,35.93,258.683,2461548
0.0842285,0.295105,1.56366,0,0.287,-6.22,353.77,1.36554,-0.485794,0,933.663,-1610.44,0.54771,0,35.93,258.704,2461563
-0.0823364,0.256775,1.31964,-0.158,0.228,-6.68,353.31,1.36835,-0.476334,0,1017.09,-1455.92,0.625954,0,35.93,258.724,2461593
0.704407,-0.0951538,0.285339,0.697,-0.013,-6.94,353.05,1.37025,-0.47139,0,1193.89,-1502.97,0.719466,0,35.93,258.744,2461608
-0.110535,0.079834,1.46423,-0.177,0.044,-7.18,352.81,1.37251,-0.466446,0,1214.55,-904.814,0.765267,0,35.93,258.763,2461623
-0.203003,0.122498,1.28381,-0.266,0.077,-7.55,352.44,1.37709,-0.456619,0,1239.54,-1373.82,0.805344,0,35.93,258.783,2461653
0.069458,0.0101318,0.65863,0.039,0.01,-7.67,352.32,1.37923,-0.451645,0,1284.11,-1022.7,0.820611,0,35.93,258.803,2461668
0.148438,-0.0355225,0.959167,0.111,-0.025,-7.79,352.2,1.38338,-0.441681,0,1301.24,-1197.75,0.828244,0,35.87,258.826,2461698
-0.064209,0.020813,0.896118,-0.101,0.001,-7.82,352.17,1.38547,-0.436707,0,1291.74,-1368.08,0.835878,0,35.87,258.843,2461713
-0.108643,-0.218445,1.4408,-0.136,-0.246,-7.85,352.14,1.38741,-0.431915,0,1439.47,-1072.56,0.835878,0,35.87,258.865,2461728
0.230774,-0.0428467,0.974915,0.196,-0.018,-7.86,352.13,1.38937,-0.427292,0,1327.67,-1457.83,0.851145,0,35.87,258.883,2461743
-0.266907,-0.0272217,1.99994,-0.336,-0.08,-7.82,352.17,1.39394,-0.41803,0,1452.54,-1333.51,0.851145,0,35.87,258.904,2461773
0.167969,-0.153381,0.486572,0.168,-0.131,-7.8,352.19,1.39609,-0.413559,0,1409.64,-1400.85,0.851145,0,35.87,258.924,2461788
-0.0977173,0.0814209,1.31696,-0.159,0.062,-7.79,352.2,1.39824,-0.409134,0,1362.95,-1166.66,0.858779,0,35.87,258.944,2461803
0.244385,-0.0906372,1.61151,0.198,-0.062,-7.78,352.21,1.40282,-0.400253,0,1348.07,-1829.66,0.875954,0,35.87,258.964,2461833
0.477234,-0.0184937,1.24493,0.43,0.043,-7.78,352.21,1.40567,-0.395844,0,1508.52,-1559.7,0.898855,0,35.87,258.984,2461848
0.266296,0.0741577,0.932129,0.218,0.108,-7.76,352.23,1.40895,-0.391327,0,1342.28,-1258.65,0.914122,0,35.87,259.004,2461863
0.12854,-0.0615234,1.26422,0.09,-0.043,-7.73,352.26,1.41582,-0.382568,0,1459.75,-1435.65,0.921756,0,35.87,259.024,2461893
0.178955,-0.0200195,0.32135,0.167,0.004,-7.73,352.26,1.41945,-0.378296,0,1536.1,-1549.31,0.921756,0,35.87,259.043,2461908
-0.251709,-0.226562,1.3916,-0.273,-0.258,-7.74,352.25,1.423,-0.374191,0,1312.25,-1363.23,0.929389,0,35.87,259.064,2461923
-0.0304565,-0.11377,0.488708,-0.034,-0.115,-7.75,352.24,1.42926,-0.366623,0,1522.77,-1693.05,0.937023,0,35.87,259.083,2461953
-0.0845947,-0.180969,1.19189,-0.103,-0.188,-7.76,352.23,1.43222,-0.363129,0,1433.08,-1519.06,0.937023,0,35.87,259.103,2461968
-0.208191,-0.0187988,0.973572,-0.24,-0.043,-7.77,352.22,1.43494,-0.359787,0,1428.27,-1324.94,0.95229,0,35.87,259.123,2461983
-0.0390625,-0.0507202,1.00775,-0.067,-0.051,-7.81,352.18,1.44,-0.3535,0,1371.37,-1949.32,0.969466,0,35.87,259.143,2462013
-0.330383,-0.0482178,1.6192,-0.378,-0.088,-7.84,352.15,1.4422,-0.350525,0,1635.32,-1340.75,0.992366,0,35.87,259.163,2462028
0.172485,-0.0960693,0.0802002,0.18,-0.071,-7.88,352.11,1.44426,-0.347641,0,1412.33,-1516.88,1,0,35.87,259.184,2462043
0.0830688,0.160828,1.10205,0.027,0.171,-7.92,352.07,1.45012,-0.341476,0,1503.76,-1600.77,1,0,35.87,259.207,2462073
-0.0487671,-0.146057,0.364685,-0.041,-0.149,-7.92,352.07,1.45328,-0.338257,0,1500.38,-1513.32,1,0,35.87,259.224,2462088
0.0809326,0.0114136,1.00977,0.043,0.027,-7.91,352.08,1.45645,-0.335114,0,1519.87,-1617.86,1,0,35.87,259.243,2462103
-0.127014,-0.0803223,0.228333,-0.123,-0.095,-7.93,352.06,1.4623,-0.328644,0,1626.28,-1547.75,1,0,35.87,259.263,2462133
0.318787,-0.171692,0.715454,0.311,-0.12,-7.97,352.02,1.46523,-0.325562,0,1516.65,-1540.12,1,0,35.87,259.283,2462148
0.083252,-0.0278931,1.31738,0.043,-0.009,-8,351.99,1.4684,-0.322556,0,1482.36,-1412.53,1,0,35.87,259.303,2462163
0.384033,-0.0371094,1.21173,0.337,0.025,-8.05,351.94,1.47505,-0.316711,0,1474.93,-1358.79,1,0,35.88,259.323,2462193
0.0875244,0.0165405,0.493652,0.063,0.032,-8.16,351.83,1.48264,-0.310654,0,1551.35,-1674.06,1,0,35.88,259.348,2462223
0.0875244,0.0165405,0.493652,0.063,0.032,-8.16,351.83,1.48264,-0.310654,0,1620.09,-1567.52,1,0,35.88,259.364,2462223
0.0611572,-0.283386,1.40063,0.048,-0.26,-8.25,351.74,1.49071,-0.304382,0,1446.34,-1707.65,1,0,35.88,259.384,2462253
0.160828,-0.204102,0.445007,0.169,-0.174,-8.29,351.7,1.49496,-0.301605,0,1425.01,-1738.53,1,0,35.88,259.403,2462268
-0.097168,0.146851,1.99994,-0.196,0.146,-8.29,351.7,1.49919,-0.298828,0,1477.87,-1683.22,1,0,35.88,259.424,2462283
-0.658997,0.251465,1.99994,-0.766,0.168,-8.35,351.64,1.50858,-0.293488,0,1411.23,-1672.24,1,0,35.88,259.446,2462313
0.997864,-0.512939,0.779053,1.028,-0.356,-8.32,351.67,1.51347,-0.29097,0,1552.31,-1279.34,1,0,35.88,259.464,2462328
-0.343628,0.0266113,1.0293,-0.383,-0.016,-8.34,351.65,1.51881,-0.288696,0,1563.97,-1508.98,1,0,35.88,259.483,2462343
0.118469,0.200928,1.94415,0.014,0.231,-8.29,351.7,1.52847,-0.284454,0,1699.96,-1550.51,1,0,35.88,259.503,2462373
0.145203,0.0183716,0.49762,0.12,0.044,-8.3,351.69,1.53333,-0.28212,0,1682.94,-1479.18,1,0,35.88,259.523,2462388
-0.136353,-0.0231934,0.523376,-0.154,-0.038,-8.27,351.72,1.53813,-0.2798,0,1571.34,-1627.47,1,0,35.88,259.543,2462403
-0.309692,-0.326416,0.132324,-0.265,-0.366,-8.22,351.77,1.54715,-0.275131,0,1413.93,-1716.59,1,0,35.88,259.564,2462433
-0.24823,0.156616,0.792664,-0.301,0.126,-8.15,351.84,1.55113,-0.273041,0,1618.78,-1475.14,1,0,35.88,259.587,2462448
0.294128,-0.305481,1.302,0.283,-0.254,-8.13,351.86,1.5551,-0.271042,0,1696.5,-1342.55,1,0,35.88,259.604,2462463
0.00891113,0.216919,-0.024292,-0.02,0.215,-8.03,351.96,1.56206,-0.26741,0,1603.08,-1098.96,1,0,35.88,259.623,2462493
-0.530762,0.11322,1.99994,-0.612,0.04,-7.96,352.03,1.56485,-0.265381,0,1715.41,-1472.86,1,0,35.88,259.644,2462508
0.0336914,0.191956,0.12146,0.003,0.194,-7.83,352.16,1.56725,-0.263184,0,1554.97,-1175.09,1,0,35.88,259.664,2462523
-0.184937,0.213806,1.35901,-0.252,0.184,-7.48,352.51,1.57164,-0.258148,0,1561.4,-1197.17,1,0,35.88,259.687,2462553
-0.350647,0.140259,1.01825,-0.398,0.092,-7.28,352.71,1.57327,-0.255325,0,1537.16,-1284.11,1,0,35.88,259.704,2462568
0.116028,0.464844,1.99994,0.009,0.461,-6.8,353.19,1.57658,-0.249069,0,1347.44,-1300.22,1,0,35.88,259.725,2462599
0.439636,0.0586548,0.756348,0.408,0.103,-6.55,353.44,1.57861,-0.245361,0,1547.15,-1157.21,1,0,35.88,259.743,2462614
0.0838013,0.469421,1.36285,0,0.465,-6.31,353.68,1.58093,-0.241272,0,1452.43,-1227.14,1,0,35.88,259.763,2462629
-0.454529,0.191284,1.12042,-0.502,0.13,-6.08,353.91,1.58292,-0.236771,0,1638.14,-1172.54,1,0,35.88,259.783,2462644
-0.0480957,0.0735474,0.661194,-0.069,0.06,-5.54,354.45,1.58571,-0.227386,0,1450.12,-870.133,1,0,35.88,259.803,2462674
-0.262451,0.19165,0.891907,-0.298,0.155,-5.28,354.71,1.58675,-0.222488,0,1534.1,-941.886,1,0,35.88,259.824,2462689
-0.0982666,0.225952,0.880066,-0.135,0.204,-5.01,354.98,1.58751,-0.217346,0,1241.39,-1065.7,1,0,35.86,259.843,2462704
-0.410645,0.164185,1.52838,-0.447,0.105,-4.41,355.58,1.58923,-0.206375,0,1369.3,-949.758,1,0,35.86,259.863,2462734
0.198669,0.125549,0.375244,0.182,0.133,-4.11,355.88,1.58987,-0.200638,0,1387.93,-905.592,1,0,35.86,259.883,2462749
-0.300293,0.177673,1.0799,-0.329,0.137,-3.77,356.22,1.59042,-0.194717,0,1385.81,-802.633,1,0,35.86,259.903,2462764
-0.200134,0.121765,0.770508,-0.216,0.094,-3.07,356.92,1.59113,-0.182343,0,1343.36,-678.933,1,0,35.86,259.924,2462794
-0.155945,0.0842896,0.678467,-0.167,0.061,-2.72,357.27,1.59116,-0.17598,0,1381.98,-451.63,1,0,35.86,259.943,2462809
-0.167603,0.424072,1.23431,-0.192,0.389,-1.97,358.02,1.59105,-0.163101,0,1395.09,-737.191,1,0,35.86,259.963,2462839
-0.0535889,0.472839,0.962097,-0.072,0.446,-1.55,358.44,1.59077,-0.156006,0,1314.32,-800.224,1,0,35.86,259.984,2462854
0.181152,0.0814209,0.871887,0.176,0.06,-1.11,358.88,1.59056,-0.148544,0,1485.33,-965.997,1,0,35.86,260.003,2462869
0.103638,0.0127563,0.429321,0.101,0.002,-0.24,359.75,1.59053,-0.133209,0,1360.45,-893.416,1,0,35.86,260.028,2462899
0.269653,0.0792847,1.65649,0.261,0.032,0.16,0.16,1.59081,-0.125458,0,1283.04,-717.566,1,0,35.86,260.046,2462914
 -0.25,0.10376,0.868896,-0.251,0.08,0.57,0.57,1.59108,-0.117615,0,1376.18,-585.514,1,0,35.86,260.063,2462929
-0.206726,0.397766,1.88007,-0.197,0.346,1.46,1.46,1.5918,-0.101761,0,1304.21,-694.131,1,0,35.86,260.086,2462959
0.164307,0.00384521,0.878174,0.164,-0.029,1.91,1.91,1.59216,-0.0935211,0,1237.55,-657.765,1,0,35.86,260.109,2462974
0.0803833,0.17926,1.7074,0.087,0.12,2.38,2.38,1.5927,-0.0852051,0,1443.73,-740.247,1,0,35.86,260.123,2462989
0.0308228,0.125488,0.624573,0.037,0.102,2.86,2.86,1.59332,-0.0767517,0,1434.41,-727.246,1,0,35.86,260.143,2463004
-0.0507812,0.225464,0.508301,-0.034,0.211,3.81,3.81,1.59479,-0.059845,0,1221.82,-627.451,1,0,35.86,260.164,2463034
-0.379272,0.246216,1.76941,-0.353,0.213,4.31,4.31,1.59528,-0.0510712,0,1266.87,-664.386,1,0,35.86,260.186,2463049
0.224243,0.117798,0.299683,0.234,0.087,4.82,4.82,1.59569,-0.042099,0,1420.96,-796.972,1,0,35.86,260.204,2463064
0.0280151,0.0686035,0.828003,0.038,0.035,5.77,5.77,1.5963,-0.0235596,0,1383.89,-698.934,1,0,35.86,260.224,2463094
     0,0.317566,0.699219,0.038,0.29,6.27,6.27,1.59657,-0.0139923,0,1252.19,-622.82,1,0,35.86,260.244,2463109
-0.181091,0.0717163,1.27649,-0.161,0.042,6.75,6.75,1.59677,-0.00418091,0,1271.94,-668.986,1,0,35.86,260.265,2463124
0.127136,0.216309,0.422058,0.157,0.181,7.71,7.71,1.59753,0.0154572,0,1367.33,-609.347,1,0,35.86,260.283,2463154
0.133789,0.0562744,0.822449,0.145,0.004,8.21,8.21,1.59825,0.0254517,0,1300.14,-739.563,1,0,35.86,260.304,2463169
0.221741,-0.0383911,1.72144,0.226,-0.141,8.7,8.7,1.59921,0.0353394,0,1294.16,-833.75,1,0,35.86,260.324,2463184
-0.0965576,0.100281,0.593872,-0.076,0.092,9.64,9.64,1.60143,0.0550842,0,1335.2,-668.762,1,0,35.83,260.344,2463214
-0.273438,0.143799,1.04706,-0.24,0.148,10.1,10.1,1.60228,0.065155,0,1354.28,-649.035,1,0,35.83,260.363,2463229
-0.039856,0.127258,1.05054,-0.012,0.092,10.55,10.55,1.60297,0.0753937,0,1276.65,-639.018,1,0,35.83,260.384,2463244
-0.09552,-0.0569458,0.716187,-0.101,-0.064,11.47,11.47,1.60403,0.0960541,0,1193.03,-800.288,1,0,35.83,260.403,2463274
-0.0380249,0.00463867,1.36597,-0.029,-0.041,11.93,11.93,1.6044,0.106308,0,1290.99,-757.834,1,0,35.83,260.426,2463289
-0.191772,0.122986,0.903931,-0.157,0.127,12.36,12.36,1.60464,0.116608,0,1154.87,-811.03,1,0,35.83,260.443,2463304
-0.259705,0.135132,1.66919,-0.211,0.125,13.27,13.27,1.60463,0.137497,0,1132.7,-756.201,1,0,35.83,260.464,2463334
-0.347168,0.0838013,1.44202,-0.308,0.107,13.72,13.72,1.60419,0.148148,0,1137.46,-786.844,1,0,35.83,260.485,2463349
-0.0784912,-0.0752563,0.207214,-0.093,-0.061,14.14,14.14,1.60347,0.158829,0,1302.59,-694.155,1,0,35.83,260.504,2463364
0.40686,-0.148438,1.50812,0.365,-0.305,15.05,15.05,1.60178,0.17984,0,1170.89,-679.002,1,0,35.83,260.524,2463394
0.346191,-0.0519409,1.16156,0.329,-0.184,15.5,15.5,1.60147,0.189911,0,1195.53,-467.935,1,0,35.83,260.542,2463409
0.071106,0.0593872,0.419678,0.087,0.023,15.93,15.93,1.60144,0.19986,0,1100.9,-746.046,1,0,35.83,260.563,2463424
0.2724,-0.109863,0.880127,0.235,-0.214,16.76,16.76,1.60153,0.219742,0,1270.81,-767.902,1,0,35.83,260.583,2463454
0.0202637,-0.0609131,0.834534,0.007,-0.091,17.15,17.15,1.60181,0.229431,0,1241.46,-862.218,0.898855,0,35.83,260.604,2463469
0.0310669,-0.0769653,1.10846,0.015,-0.119,17.94,17.94,1.60213,0.248596,0,1136.95,-845.881,0.843511,0,35.83,260.624,2463499
-0.043335,0.0991211,1.28363,0,0.065,18.31,18.31,1.60225,0.258118,0,1073.36,-853.497,0.828244,0,35.83,260.644,2463514
-0.11322,0.103638,0.777283,-0.069,0.11,18.67,18.67,1.60234,0.267746,0,1081.96,-853.279,0.79771,0,35.83,260.664,2463529
0.0322876,0.0975342,0.840637,0.067,0.055,19.04,19.04,1.60243,0.277496,0,1143.38,-756.544,0.75,0,35.83,260.684,2463544
0.0432129,0.0913696,1.00061,0.076,0.04,19.71,19.71,1.60349,0.296692,0,1057.36,-687.262,0.671756,0,35.83,260.703,2463574
0.0918579,0.167236,1.12335,0.149,0.089,20.04,20.04,1.60431,0.306335,0,1056.36,-557.258,0.633588,0,35.83,260.724,2463589
0.0697632,0.122437,0.628723,0.11,0.069,20.36,20.36,1.60532,0.316086,0,1027.8,-727.802,0.616412,0,35.83,260.743,2463604
-0.392639,0.185242,0.981262,-0.3,0.279,20.95,20.95,1.60741,0.336182,0,914.495,-745.129,0.616412,0,35.83,260.763,2463634
-0.132202,0.298523,0.840454,-0.014,0.292,21.47,21.47,1.60983,0.356506,0,902.242,-639.857,0.616412,0,35.83,260.795,2463664
-0.132202,0.298523,0.840454,-0.014,0.292,21.47,21.47,1.60983,0.356506,0,998.403,-557.181,0.616412,0,35.83,260.804,2463664
0.0378418,0.161865,0.79187,0.093,0.103,21.97,21.97,1.61249,0.377701,0,956.16,-748.727,0.616412,0,35.83,260.824,2463694
0.122375,0.113281,1.10657,0.151,0.012,22.2,22.2,1.614,0.388474,0,968.804,-742.694,0.616412,0,35.83,260.843,2463709
0.28833,-0.0706177,0.877625,0.233,-0.21,22.37,22.37,1.61578,0.399124,0,863.558,-787.65,0.616412,0,35.86,260.864,2463724
0.0620728,0.0665894,0.788574,0.075,0.007,22.57,22.57,1.62024,0.419525,0,792.424,-803.019,0.711832,0,35.86,260.883,2463754
0.192322,-0.105164,1.25916,0.121,-0.216,22.62,22.62,1.62273,0.429504,0,924.813,-831.878,0.780534,0,35.86,260.905,2463769
0.261963,-0.0758667,0.909302,0.201,-0.203,22.65,22.65,1.62543,0.439178,0,882.418,-777.484,0.937023,0,35.86,260.924,2463784
0.100708,-0.164124,1.07495,0.015,-0.226,22.69,22.69,1.63094,0.458267,0,917.347,-775.524,0.977099,0,35.86,260.943,2463814
-0.050354,-0.179565,0.88092,-0.126,-0.173,22.73,22.73,1.63361,0.467484,0,925.369,-699.399,0.992366,0,35.86,260.966,2463829
-0.137146,-0.0167236,1.27283,-0.147,0,22.77,22.77,1.63608,0.476578,0,930.925,-709.774,1,0,35.86,260.985,2463844
-0.0817871,-0.0859985,1.21552,-0.118,-0.08,22.95,22.95,1.64055,0.4944,0,1062.25,-738.662,1,0,35.86,261.004,2463874
-0.0864868,-0.174622,0.50824,-0.152,-0.139,23.07,23.07,1.64255,0.503082,0,1101.81,-775.524,1,0,35.86,261.024,2463889
-0.0319824,-0.156189,1.09955,-0.098,-0.157,23.22,23.22,1.64436,0.511551,0,1057.31,-830.427,1,0,35.86,261.043,2463904
0.131287,-0.116394,1.09302,0.068,-0.181,23.56,23.56,1.64755,0.52774,0,1198.9,-751.795,1,0,35.86,261.063,2463934
-0.114868,-0.174194,0.717834,-0.178,-0.126,23.72,23.72,1.64905,0.535492,0,1227.75,-776.006,1,0,35.86,261.084,2463949
0.135864,-0.239014,0.699829,0.024,-0.284,24.08,24.08,1.65164,0.550522,0,1155.87,-982.704,1,0,35.86,261.114,2463980
-0.107605,0.121704,1.64838,-0.051,0.133,24.25,24.25,1.65291,0.557816,0,1223.77,-1007.46,1,0,35.86,261.124,2463994
0.299133,-0.269836,0.480835,0.159,-0.374,24.41,24.41,1.65424,0.564957,0,1153.34,-1037.51,1,0,35.86,261.143,2464009
-0.0564575,-0.0457153,1.35114,-0.071,-0.032,24.6,24.6,1.65564,0.571808,0,1267.11,-1048.38,1,0,35.86,261.163,2464024
0.134399,0.00726318,0.819824,0.123,-0.055,24.94,24.94,1.65854,0.584824,0,1244.56,-643.501,1,0,35.86,261.187,2464054
0.0827026,-0.117004,1.19806,0.024,-0.148,25.12,25.12,1.66016,0.59108,0,1269.28,-1160.97,1,0,35.86,261.204,2464069
0.150391,-0.257263,1.12097,0.026,-0.303,25.3,25.3,1.66179,0.597015,0,1238.24,-981.402,1,0,35.86,261.223,2464084
0.0043335,0.0385132,0.262817,0.02,0.032,25.66,25.66,1.6653,0.608276,0,1208.82,-1041.4,1,0,35.86,261.243,2464114
-0.0836792,0.0253906,1.49359,-0.063,0.054,25.83,25.83,1.66705,0.613937,0,1308.04,-1127.71,1,0,35.86,261.263,2464129
0.310547,-0.152771,1.03235,0.214,-0.276,26,26,1.66891,0.619446,0,1193.82,-1117.19,1,0,35.86,261.284,2464144
0.00164795,-0.0814209,1.19537,-0.034,-0.073,26.34,26.34,1.6729,0.629608,0,1282.05,-1021.82,1,0,35.86,261.305,2464174
-0.00115967,-0.0848389,1.14148,-0.037,-0.074,26.5,26.5,1.67484,0.634506,0,1232.06,-1108.89,1,0,35.86,261.324,2464189
0.273132,-0.0727539,0.759705,0.209,-0.185,27.39,27.39,1.68745,0.661438,0,1353.18,-1314.58,1,0,35.84,261.407,2464280
0.273132,-0.0727539,0.759705,0.209,-0.185,27.39,27.39,1.68745,0.661438,0,1359.8,-1185.54,1,0,35.84,261.415,2464280
0.111084,-0.129822,1.11591,0.039,-0.16,27.51,27.51,1.69014,0.665161,0,1418.74,-1261.51,1,0,35.84,261.431,2464295
0.173645,-0.0707397,1.10291,0.121,-0.135,27.73,27.73,1.69577,0.672165,0,1332.27,-1143.97,1,0,35.84,261.461,2464325
0.211731,-0.0410767,0.692871,0.168,-0.129,27.82,27.82,1.69884,0.675415,0,1352.45,-1274.13,1,0,35.84,261.472,2464340
0.2323,-0.176697,1.24677,0.123,-0.254,27.91,27.91,1.7021,0.678406,0,1336.01,-1121.64,1,0,35.84,261.486,2464355
-0.0793457,-0.223755,0.964355,-0.174,-0.15,27.99,27.99,1.70534,0.681122,0,1372.5,-1364.91,1,0,35.84,261.503,2464370
-0.25177,0.118591,0.996399,-0.163,0.232,28.11,28.11,1.70834,0.683899,0,1443.11,-1045.75,1,0,35.84,261.523,2464385
0.177429,-0.170532,0.779724,0.078,-0.227,28.33,28.33,1.71478,0.689423,0,1403.61,-1187.51,1,0,35.84,261.544,2464415
-0.136658,0.152771,1.12585,-0.044,0.212,28.44,28.44,1.71814,0.692047,0,1224.89,-1305.23,1,0,35.84,261.564,2464430
-0.0336914,0.0796509,1.03967,0.011,0.097,28.71,28.71,1.72476,0.697418,0,1284.19,-1250.94,1,0,35.84,261.589,2464460
0.199829,-0.0702515,1.03705,0.143,-0.146,28.84,28.84,1.72818,0.700058,0,1378.36,-1263.58,1,0,35.84,261.603,2464475
-0.0259399,0.115601,1.15173,0.037,0.123,28.97,28.97,1.73172,0.702682,0,1482.03,-1119.88,1,0,35.84,261.624,2464490
0.396606,-0.0709229,0.949829,0.315,-0.246,29.1,29.1,1.7355,0.705231,0,1405.28,-1309.41,1,0,35.84,261.645,2464505
0.0750122,0.00854492,0.996216,0.07,-0.018,29.34,29.34,1.7433,0.710052,0,1299.63,-1299.12,0.929389,0,35.84,261.666,2464535
0.394165,-0.0133667,1.05469,0.34,-0.196,29.46,29.46,1.74747,0.712311,0,1351.44,-1383.03,0.851145,0,35.84,261.684,2464550
0.0211182,-0.0550537,0.28479,-0.008,-0.054,29.66,29.66,1.75624,0.716553,0,1425.01,-1335.29,0.812977,0,35.84,261.709,2464580
0.0300293,0.0933228,0.995605,0.075,0.076,29.77,29.77,1.76067,0.718674,0,1355.01,-1267.43,0.780534,0,35.84,261.723,2464595
0.0214844,0.164246,1.36542,0.102,0.146,29.82,29.82,1.76521,0.720932,0,1339.32,-1052.85,0.772901,0,35.84,261.743,2464610
-0.0733643,0.00994873,0.700317,-0.057,0.053,29.88,29.88,1.76979,0.723343,0,1211.53,-1396.45,0.757634,0,35.84,261.763,2464625
-0.11731,0.0285034,0.794067,-0.087,0.091,29.94,29.94,1.77879,0.728348,0,1335.92,-1272.35,0.719466,0,35.84,261.785,2464655
-0.185486,0.140625,1.42181,-0.09,0.23,29.94,29.94,1.78314,0.73111,0,1289.41,-1259.29,0.679389,0,35.84,261.804,2464670
0.195618,-0.0681152,0.444763,0.134,-0.151,29.96,29.96,1.78752,0.733932,0,1261.03,-1260.32,0.656489,0,35.84,261.824,2464685
0.375488,-0.153809,0.480835,0.246,-0.316,30,30,1.79694,0.739395,0,1218.77,-1329.26,0.656489,0,35.84,261.844,2464715
-0.0901489,0.242737,1.56262,0.037,0.27,30.01,30.01,1.80197,0.74202,0,1227.37,-1381.69,0.656489,0,35.84,261.864,2464730
0.195251,0.081604,0.594055,0.206,-0.022,30.05,30.05,1.80717,0.744812,0,1236.17,-1303.87,0.633588,0,35.76,261.884,2464745
-0.0444946,0.225769,1.44781,0.067,0.225,30.09,30.09,1.81796,0.750839,0,1319.7,-1044.44,0.593511,0,35.76,261.907,2464775
0.168823,0.155396,0.220886,0.222,0.05,30.1,30.1,1.82358,0.75415,0,1203.01,-1150.09,0.492366,0,35.76,261.924,2464790
-0.0870361,0.381958,1.88843,0.1,0.378,30.12,30.12,1.82942,0.757767,0,1146.07,-1206.49,0.414122,0,35.76,261.943,2464805
-0.115051,0.123657,0.561279,-0.042,0.165,30.15,30.15,1.84128,0.765427,0,1073.31,-965.67,0.383588,0,35.76,261.964,2464835
-0.0776367,0.422363,0.101379,0.144,0.404,30.19,30.19,1.84727,0.769669,0,953.334,-479.363,0.383588,0,35.76,261.983,2464850
-0.255371,0.368591,1.99994,-0.053,0.422,30.24,30.24,1.85335,0.774475,0,944.599,-163.619,0.383588,0,35.76,262.003,2464865
-0.0641479,0.644043,1.70129,0.244,0.553,30.37,30.37,1.8658,0.785645,0,996.562,141.151,0.383588,0,35.76,262.024,2464895
-0.129639,0.519897,1.04102,0.132,0.486,30.46,30.46,1.87241,0.792236,0,867.265,158.888,0.383588,0,35.76,262.044,2464910
0.165771,0.31958,0.792358,0.288,0.166,30.57,30.57,1.8793,0.799271,0,829.876,95.4567,0.45229,0,35.76,262.063,2464925
-0.213806,0.581055,1.46924,0.077,0.551,30.85,30.85,1.89391,0.814636,0,751.569,-156.057,0.54771,0,35.76,262.085,2464955
0.157471,0.320068,0.647095,0.282,0.165,31.01,31.01,1.90154,0.82312,0,769.497,-348.074,0.625954,0,35.76,262.104,2464970
0.0907593,0.22229,0.756287,0.168,0.105,31.34,31.34,1.91721,0.841385,0,939.452,-209.892,0.719466,0,35.76,262.124,2465000
-0.241272,0.322754,0.906555,-0.064,0.354,31.56,31.56,1.92516,0.851044,0,810.866,-95.0105,0.75,0,35.76,262.143,2465015
-0.149353,0.0236816,1.11371,-0.146,0.037,31.84,31.84,1.93297,0.860962,0,786.349,-16.7705,0.79771,0,35.76,262.163,2465030
-0.364624,0.30011,1.32373,-0.183,0.37,32.19,32.19,1.94055,0.871155,0,845.451,57.3992,0.812977,0,35.76,262.183,2465045
-0.318542,0.30365,1.15271,-0.132,0.357,33.05,33.05,1.95511,0.892868,0,840.266,77.8807,0.843511,0,35.76,262.203,2465075
-0.222534,0.213867,0.933777,-0.091,0.242,33.53,33.53,1.96214,0.904358,0,794.976,52.4315,0.843511,0,35.76,262.224,2465090
-0.185852,0.247681,1.00293,-0.04,0.243,34.06,34.06,1.96909,0.916168,0,852.915,88.169,0.843511,0,35.76,262.243,2465105
-0.0562134,0.0476074,0.800293,-0.037,0.017,35.24,35.24,1.9826,0.940659,0,700.452,248.49,0.843511,0,35.76,262.265,2465135
-0.285217,0.311768,1.29376,-0.077,0.329,35.87,35.87,1.98923,0.953232,0,723.17,403.519,0.843511,0,35.76,262.288,2465150
-0.0961304,0.0657349,0.62793,-0.052,0.066,36.53,36.53,1.99576,0.96608,0,804.764,534.245,0.719466,0,35.76,262.303,2465165
-0.184753,0.231567,0.978027,-0.023,0.223,37.97,37.97,2.00867,0.992416,0,736.865,620.136,0.616412,0,35.76,262.324,2465195
0.0153809,0.231812,1.18353,0.133,0.08,38.75,38.75,2.01517,1.00594,0,624.688,660.044,0.562977,0,35.76,262.344,2465210
-0.193726,0.246826,0.958069,-0.012,0.239,39.53,39.53,2.02176,1.01968,0,608.939,858.111,0.477099,0,35.76,262.363,2465225
-0.0205078,0.23468,1.36566,0.106,0.08,41.09,41.09,2.03528,1.04774,0,546.254,735.537,0.391221,0,35.7,262.386,2465255
-0.197205,0.303894,0.961731,0.032,0.279,41.85,41.85,2.04222,1.06207,0,515.903,911.286,0.358779,0,35.7,262.403,2465270
0.0474243,0.306885,1.15839,0.213,0.096,42.63,42.63,2.04935,1.07668,0,452.786,934.973,0.335878,0,35.7,262.424,2465285
-0.0888672,0.279907,1.09546,0.099,0.168,44.08,44.08,2.06422,1.1062,0,409.76,728.81,0.335878,0,35.7,262.449,2465315
-0.0148315,0.259216,1.06537,0.139,0.102,44.77,44.77,2.07191,1.12123,0,402.236,875.388,0.335878,0,35.7,262.463,2465330
0.163879,0.352844,1.25708,0.326,0.019,45.46,45.46,2.07993,1.13634,0,330.18,958.222,0.320611,0,35.7,262.483,2465345
-0.140015,0.292297,0.758911,0.09,0.233,46.79,46.79,2.09682,1.16704,0,292.402,991.719,0.305344,0,35.7,262.504,2465375
-0.00750732,0.288147,1.03522,0.169,0.105,47.48,47.48,2.10553,1.18274,0,278.633,899.24,0.29771,0,35.7,262.524,2465390
0.00787354,0.25177,1.23242,0.146,0.048,48.17,48.17,2.11446,1.19856,0,234.731,1143.31,0.288168,0,35.7,262.545,2465405
-0.0783691,0.193115,0.990662,0.056,0.092,49.57,49.57,2.13303,1.23041,0,224.112,1016.05,0.288168,0,35.7,262.563,2465435
0.0386353,0.296204,1.04559,0.209,0.06,50.27,50.27,2.14258,1.24649,0,179.205,1146.07,0.288168,0,35.7,262.583,2465450
-0.0900879,0.233154,1.07941,0.078,0.113,50.99,50.99,2.15233,1.2627,0,162.611,1037.56,0.280534,0,35.7,262.603,2465465
-0.0368042,0.118469,0.949707,0.029,0.01,52.46,52.46,2.17232,1.29547,0,163.755,1001.05,0.280534,0,35.7,262.623,2465495
0.0615845,0.163086,0.82196,0.13,-0.029,53.2,53.2,2.1825,1.31187,0,140.826,1101.5,0.280534,0,35.7,262.644,2465510
0.0111694,0.105286,0.968689,0.047,-0.038,53.93,53.93,2.19278,1.32825,0,121.013,1288.58,0.280534,0,35.7,262.663,2465525
-0.0587158,0.12085,0.992126,0.019,0.023,55.42,55.42,2.21358,1.36093,0,120.852,1010.76,0.280534,0,35.7,262.683,2465555
0.133789,0.108154,0.774231,0.127,-0.123,56.16,56.16,2.22411,1.37723,0,114.704,934.973,0.280534,0,35.7,262.703,2465570
-0.0339355,0.188538,1.19806,0.08,0.018,56.92,56.92,2.23477,1.39345,0,115.747,1089.15,0.280534,0,35.7,262.724,2465585
-0.074585,0.26947,1.32434,0.122,0.079,58.52,58.52,2.25664,1.39351,0,103.275,686.13,0.280534,0,35.7,262.743,2465615
0.133972,0.22876,0.779053,0.223,-0.071,59.36,59.36,2.2679,1.39357,0,85.2882,949.623,0.280534,0,35.7,262.763,2465630
-0.13324,0.218628,1.04602,0.066,0.127,60.2,60.2,2.27937,1.39368,0,72.535,910.539,0.358779,0,35.7,262.783,2465645
-0.0219727,0.247437,0.907593,0.156,0.053,61.89,61.89,2.3027,1.39413,0,77.1653,910.332,0.383588,0,35.7,262.804,2465675
-0.0960083,0.128418,1.09552,0.007,0.045,62.75,62.75,2.31456,1.39445,0,102.385,879.044,0.414122,0,35.7,262.826,2465690
-0.0166016,0.101624,1.15515,0.018,-0.045,63.65,63.65,2.31456,1.39478,0,97.8009,894.935,0.437023,0,35.7,262.843,2465705
-0.0409546,0.124146,1.24207,0.025,-0.026,65.57,65.57,2.31474,1.39555,0,127.393,854.701,0.444656,0,35.7,262.863,2465735
-0.150085,0.105286,1.05463,-0.023,0.083,66.57,66.57,2.31487,1.396,0,143.21,859.107,0.45229,0,35.7,262.884,2465750
0.0237427,0.148499,1.05054,0.086,-0.063,67.6,67.6,2.31503,1.39647,0,161.849,833.924,0.477099,0,35.71,262.904,2465765
0.0742798,0.0784912,1.01086,0.042,-0.135,69.77,69.77,2.31551,1.3972,0,188.03,1132.82,0.492366,0,35.71,262.923,2465795
-0.0743408,0.1073,1.04736,0.017,0.009,70.88,70.88,2.3158,1.39743,0,187.096,1052.19,0.5,0,35.71,262.943,2465810
-0.0160522,0.1745,1.12097,0.097,-0.032,72.02,72.02,2.31616,1.39766,0,228.384,1019.94,0.507634,0,35.71,262.965,2465825
0.0697632,0.147827,1.08093,0.099,-0.122,74.34,74.34,2.31709,1.39795,0,247.617,945.046,0.507634,0,35.71,262.983,2465855
0.0736694,0.145081,0.800842,0.113,-0.104,75.51,75.51,2.31773,1.39789,0,272.937,980.825,0.538168,0,35.71,263.003,2465870
0.0107422,0.149475,0.782898,0.102,-0.044,76.71,76.71,2.31851,1.39774,0,313.009,992.113,0.585878,0,35.71,263.024,2465886
0.117676,0.0393066,1.10168,-0.003,-0.2,79.17,79.17,2.32039,1.39716,0,296.345,1021.19,0.694656,0,35.71,263.047,2465915
-0.0105591,0.0684204,0.74292,0.023,-0.038,80.4,80.4,2.32137,1.39662,0,363.994,1215.51,0.788168,0,35.71,263.064,2465930
-0.0333862,0.0722046,0.905029,0.015,-0.028,81.65,81.65,2.32236,1.39604,0,470.511,1121.08,0.820611,0,35.71,263.084,2465945
0.181274,0.0651855,1.00787,0.026,-0.25,84.19,84.19,2.32457,1.39452,0,583.908,1061.68,0.851145,0,35.71,263.104,2465975
-0.0927124,0.138794,1.00238,0.074,0.027,85.5,85.5,2.32576,1.39348,0,567.086,930.406,0.883588,0,35.71,263.124,2465990
0.0258789,0.015564,1.20184,-0.049,-0.115,88.28,88.28,2.32805,1.39108,0,526.981,980.008,0.944656,0,35.71,263.15,2466021
0.0100098,-0.0674438,1.37933,-0.14,-0.11,89.71,89.71,2.32901,1.38963,0,579.408,877.039,0.977099,0,35.71,263.169,2466036
-0.0808105,-0.0698853,0.675232,-0.102,0.032,91.16,91.16,2.32982,1.38814,0,617.913,689.655,0.977099,0,35.71,263.186,2466051
-0.0270996,-0.1073,1.08362,-0.158,-0.047,92.63,92.63,2.33043,1.38663,0,708.692,629.148,1,0,35.71,263.204,2466066
-0.00762939,-0.00976562,1.39783,-0.074,-0.095,95.6,95.6,2.33128,1.3835,0,711.82,416.406,1,0,35.71,263.224,2466096
-0.189148,-0.295288,1.1886,-0.322,0.135,97.08,97.08,2.33139,1.38194,0,711.491,267.38,1,0,35.71,263.244,2466111
0.114075,-0.398071,0.927429,-0.446,-0.121,98.54,98.54,2.33096,1.38039,0,736.893,255.222,1,0,35.71,263.263,2466126
0.230164,-0.313843,1.00049,-0.382,-0.237,101.35,101.35,2.32848,1.37663,0,795.355,156.13,1,0,35.71,263.284,2466156
-0.017395,-0.146973,1.54913,-0.178,-0.064,102.7,102.7,2.32658,1.37442,0,794.06,95.485,1,0,35.71,263.303,2466171
0.248108,-0.25531,0.319031,-0.314,-0.201,104.02,104.02,2.32437,1.37202,0,811.063,57.5765,1,0,35.71,263.324,2466186
0.133606,-0.196228,0.740479,-0.237,-0.124,106.66,106.66,2.31897,1.36681,0,936.067,57.5765,1,0,35.71,263.343,2466216
0.0890503,-0.121887,1.32782,-0.16,-0.142,107.95,107.95,2.31587,1.36395,0,935.104,-21.2714,1,0,35.71,263.363,2466231
0.00897217,-0.145752,0.707642,-0.147,-0.011,109.22,109.22,2.31256,1.36101,0,998.752,-162.025,1,0,35.71,263.383,2466246
0.0999756,-0.21344,1.20789,-0.243,-0.101,111.77,111.77,2.30527,1.3551,0,959.831,-379.809,1,0,35.77,263.407,2466276
0.277954,-0.285583,1.21094,-0.375,-0.229,112.99,112.99,2.30107,1.3519,0,904.65,-546.687,1,0,35.77,263.425,2466291
0.256042,-0.324524,0.776245,-0.399,-0.154,114.13,114.13,2.29634,1.34843,0,1058.65,-457.216,1,0,35.77,263.445,2466306
0.345459,-0.452148,1.25598,-0.542,-0.193,116.2,116.2,2.2849,1.34091,0,1053.41,-637.979,1,0,35.77,263.464,2466336
0.356567,-0.336853,1.22168,-0.438,-0.242,117.1,117.1,2.27814,1.33675,0,1112.29,-716.64,1,0,35.77,263.484,2466351
0.366638,-0.272034,0.610901,-0.396,-0.233,117.92,117.92,2.27081,1.33226,0,1153.27,-767.165,1,0,35.77,263.503,2466366
0.3255,-0.325073,0.868164,-0.412,-0.173,119.35,119.35,2.2543,1.32251,0,1167.88,-764.701,1,0,35.77,263.523,2466396
0.341248,-0.344055,1.38422,-0.411,-0.198,119.93,119.93,2.24518,1.31726,0,1284.77,-899.442,1,0,35.77,263.544,2466411
0.243469,-0.170471,0.741638,-0.233,-0.159,120.79,120.79,2.22549,1.30618,0,1243.09,-1198.04,1,0,35.77,263.572,2466441
0.333801,-0.389832,0.848572,-0.458,-0.124,121.1,121.1,2.215,1.30037,0,1254.86,-1110.99,0.875954,0,35.77,263.584,2466456
0.177856,-0.245239,1.06793,-0.238,-0.073,121.38,121.38,2.20401,1.2944,0,1283.78,-1158.08,0.664122,0,35.77,263.603,2466471
0.495056,-0.393066,1.19745,-0.517,-0.268,121.57,121.57,2.19252,1.28822,0,1183.36,-1124.54,0.461832,0,35.77,263.623,2466486
0.0217285,-0.100586,1.47876,0.007,-0.021,121.7,121.7,2.16797,1.27499,0,1124.73,-931.489,0.108779,0,35.77,263.646,2466516
0.644043,-0.276001,0.315063,-0.548,-0.415,121.64,121.64,2.15518,1.26801,0,890.512,-1232.51,0.0229008,0,35.77,263.663,2466531
-0.0569458,0.0436401,1.91174,0.205,-0.041,121.56,121.56,2.14217,1.2607,0,900.86,-1264.06,0.00763359,0,35.77,263.683,2466546
0.244873,0.174927,1.03271,0.098,-0.329,121.25,121.25,2.11667,1.24539,0,954.973,-1168.09,0.00763359,0,35.77,263.704,2466576
0.0905151,-0.0180664,0.991028,0.009,-0.094,121.01,121.01,2.10406,1.23726,0,1185.11,-1313.2,0.00763359,0,35.77,263.723,2466591
0.132446,0.00628662,0.622314,-0.017,-0.133,120.8,120.8,2.09145,1.22899,0,1121.96,-1305.57,0.00763359,0,35.77,263.743,2466606
0.211914,-0.0227661,0.539001,-0.088,-0.185,120.46,120.46,2.06662,1.21193,0,1065.98,-1443.94,0.00763359,0,35.77,263.763,2466636
-0.344788,0.132935,1.98645,0.426,0.176,120.34,120.34,2.05447,1.20331,0,1085.6,-1510.35,0.00763359,0,35.77,263.784,2466651
-0.0187988,-0.0440063,0.354004,-0.003,0.028,120.22,120.22,2.04262,1.19482,0,1229.18,-1184.97,0.00763359,0,35.77,263.804,2466666
0.0939331,0.0748291,1.99994,0.153,-0.176,120,120,2.01912,1.17761,0,1285.02,-1230.16,0.00763359,0,35.77,263.824,2466696
-0.0408936,-0.200806,0.961426,-0.088,0.106,119.9,119.9,2.00748,1.16888,0,1215.95,-905.346,0.00763359,0,35.77,263.843,2466711
0.0675049,0.0606079,0.51062,0.054,-0.102,119.81,119.81,1.9958,1.16014,0,1155.47,-1498.24,0.00763359,0,35.77,263.865,2466726
-0.101074,-0.0842896,1.10242,0.05,0.097,119.65,119.65,1.97244,1.14291,0,1262.31,-1172.61,0.00763359,0,35.77,263.884,2466756
-0.243225,0.0384521,1.6236,0.263,0.144,119.56,119.56,1.96097,1.13455,0,1136.17,-1427.14,0.00763359,0,35.77,263.905,2466771
0.0401001,-0.115845,0.0473022,-0.116,0.02,119.44,119.44,1.94958,1.1263,0,1202.65,-1319.61,-0.0229885,0,35.72,263.924,2466786
-0.010376,-0.0490112,1.03589,0.033,0.004,119.24,119.24,1.92706,1.11038,0,1292.99,-1535.16,-0.181992,0,35.72,263.943,2466816
0.154175,-0.0958252,0.593994,-0.117,-0.103,119.11,119.11,1.9158,1.10246,0,940.955,-1648.26,-0.440613,0,35.72,263.963,2466831
0.0817871,0.236694,1.44537,0.264,-0.225,119.02,119.02,1.90465,1.09431,0,558.987,-1207.36,-0.614943,0,35.72,263.984,2466846
0.213135,0.0628052,0.5177,-0.013,-0.226,118.61,118.61,1.88298,1.07655,0,185.247,-1337.35,-0.747126,0,35.72,264.004,2466876
0.0354004,0.217285,1.17584,0.248,-0.153,118.33,118.33,1.87234,1.06718,0,-280.147,-1210.07,-0.756705,0,35.72,264.024,2466891
0.322083,0.276794,0.668884,0.134,-0.422,117.99,117.99,1.86197,1.05742,0,-315.035,-1619.96,-0.630268,0,35.72,264.043,2466906
0.470581,0.107422,0.210876,-0.106,-0.468,117.12,117.12,1.84215,1.0368,0,-378.294,-1119.82,-0.534483,0,35.72,264.063,2466936
-0.0397949,0.151611,1.63885,0.245,-0.029,116.62,116.62,1.83243,1.02597,0,-426.085,-1420.35,-0.52682,0,35.72,264.084,2466951
0.51355,0.0147705,0.709351,-0.173,-0.465,116.09,116.09,1.82274,1.0148,0,-299.101,-1354.19,-0.52682,0,35.72,264.103,2466966
0.161682,0.239929,0.690125,0.185,-0.238,114.9,114.9,1.80402,0.991043,0,-250.935,-1333.96,-0.614943,0,35.72,264.124,2466996
0.00708008,0.3125,1.86188,0.37,-0.108,114.27,114.27,1.79523,0.978729,0,-290.398,-1195.74,-0.614943,0,35.72,264.144,2467011
0.2453,0.0942383,0.482239,0.011,-0.253,113.62,113.62,1.78668,0.966187,0,-294.833,-1403.02,-0.622605,0,35.72,264.166,2467026
0.218445,0.0950317,0.884766,0.041,-0.217,112.27,112.27,1.77016,0.94014,0,-329.121,-1200.91,-0.779693,0,35.72,264.184,2467056
0.296204,0.100159,1.13916,0.029,-0.282,111.54,111.54,1.76205,0.92662,0,-376.124,-1281.56,-0.929119,0,35.72,264.203,2467071
0.147644,0.306763,0.777954,0.261,-0.226,110.8,110.8,1.75414,0.91275,0,-531.576,-945.716,-1,0,35.72,264.224,2467086
-0.0189209,0.281982,1.42621,0.317,-0.03,109.2,109.2,1.73921,0.883682,0,-669.994,-1207.36,-1,0,35.72,264.245,2467116
0.129761,0.125732,0.713928,0.101,-0.138,108.39,108.39,1.73221,0.868851,0,-871.992,-1202.72,-0.622605,0,35.72,264.263,2467131
0.0333252,0.187439,1.46771,0.212,-0.035,107.57,107.57,1.7254,0.853912,0,-731.823,-1314.23,-0.369732,0,35.72,264.284,2467146
0.165955,0.20752,1.99994,0.205,-0.137,105.89,105.89,1.71185,0.823151,0,-573.099,-1040.15,0.00763359,0,35.72,264.304,2467176
0.271301,0.0584106,0.951416,0.009,-0.235,105,105,1.70523,0.807343,0,-339.98,-1314.58,0.00763359,0,35.72,264.324,2467191
0.229126,0.236267,1.07025,0.197,-0.231,104.1,104.1,1.69875,0.791214,0,-170.19,-1255.1,0.00763359,0,35.72,264.343,2467206
0.319458,0.129028,0.967041,0.078,-0.29,102.26,102.26,1.68628,0.757553,0,-23.0352,-1043.19,0.00763359,0,35.72,264.364,2467236
-0.134766,0.205017,1.56952,0.255,0.171,101.37,101.37,1.68031,0.740387,0,250.498,-1108.16,0.00763359,0,35.72,264.383,2467251
0.0811768,0.013916,0.683533,0.009,-0.047,100.53,100.53,1.67455,0.723297,0,330.901,-994.431,0.00763359,0,35.72,264.403,2467267
-0.0834351,0.114929,1.17792,0.142,0.125,99.04,99.04,1.66328,0.689407,0,442.801,-948.812,0.00763359,0,35.62,264.423,2467296
-0.197144,0.11499,1.1225,0.156,0.234,98.4,98.4,1.65793,0.672806,0,453.042,-829.222,0.00763359,0,35.62,264.444,2467311
0.00299072,0.132202,0.86261,0.139,0.021,97.84,97.84,1.65279,0.656357,0,529.717,-788.644,0.00763359,0,35.62,264.465,2467326
-0.373657,0.183777,0.996704,0.233,0.391,96.97,96.97,1.6432,0.62442,0,546.403,-672.993,0.00763359,0,35.62,264.483,2467356
-0.272888,0.228943,0.708618,0.262,0.273,96.65,96.65,1.63889,0.609131,0,510.504,-592.347,0.00763359,0,35.62,264.503,2467371
-0.482849,0.224304,1.51471,0.277,0.507,96.42,96.42,1.63493,0.594391,0,546.582,-620.347,0.00763359,0,35.62,264.524,2467386
-0.468079,0.350952,1.29364,0.392,0.459,96.18,96.18,1.62813,0.566559,0,507.962,-569.136,0.00763359,0,35.62,264.544,2467416
-0.0309448,0.122498,0.784424,0.119,0.035,96.18,96.18,1.62527,0.553253,0,515.411,-487.888,0.00763359,0,35.62,264.564,2467431
-0.0630493,0.189148,1.11133,0.186,0.066,96.19,96.19,1.62263,0.540009,0,546.792,-577.584,0.00763359,0,35.62,264.583,2467446
-0.0203857,0.0358887,0.956543,0.029,0.037,96.18,96.18,1.61772,0.513672,0,465.495,-476.474,0.00763359,0,35.62,264.603,2467476
-0.0215454,0.142883,0.994568,0.134,0.028,96.19,96.19,1.61542,0.500565,0,449.368,-519.359,0.0381679,0,35.62,264.623,2467491
0.0241089,0.0600586,1.09406,0.045,-0.005,96.19,96.19,1.61322,0.487457,0,461.382,-434.887,0.0858779,0,35.62,264.642,2467506
0.0913086,0.120972,1.22968,0.094,-0.077,96.22,96.22,1.60912,0.487411,0,367.715,-485.402,0.194656,0,35.62,264.664,2467536
0.138977,0.161255,0.685486,0.135,-0.139,96.22,96.22,1.60727,0.487213,0,433.398,-442.497,0.280534,0,35.62,264.684,2467551
-0.154358,0.195923,1.49384,0.186,0.166,96.2,96.2,1.60565,0.48703,0,403.437,-413.112,0.320611,0,35.62,264.703,2467566
0.10376,0.135193,0.963989,0.105,-0.096,96.24,96.24,1.60294,0.486862,0,358.989,-343.018,0.335878,0,35.62,264.724,2467596
0.0176392,0.00390625,1.05774,-0.018,0.006,96.26,96.26,1.60172,0.486694,0,370.028,-339.547,0.351145,0,35.62,264.743,2467611
-0.0743408,0.140503,0.927124,0.129,0.079,96.29,96.29,1.60057,0.486572,0,403.161,-302.457,0.383588,0,35.62,264.764,2467626
0.145264,-0.0668335,0.809753,-0.099,-0.118,96.38,96.38,1.59843,0.48642,0,367.1,-370.261,0.383588,0,35.62,264.783,2467656
-0.0524292,-0.0887451,1.1236,-0.104,0.087,96.4,96.4,1.5972,0.486282,0,359.906,-306.363,0.398855,0,35.62,264.804,2467671
0.027771,-0.103394,0.935425,-0.122,0.004,96.41,96.41,1.59581,0.486206,0,399.313,-376.591,0.414122,0,35.62,264.824,2467686
0.134888,-0.176025,1.09845,-0.209,-0.091,96.43,96.43,1.59261,0.485886,0,471.276,-452.806,0.421756,0,35.62,264.844,2467716
-0.570801,0.125427,1.14069,0.169,0.573,96.45,96.45,1.59087,0.485992,0,429.71,-639.161,0.421756,0,35.62,264.863,2467731
0.243286,-0.158691,0.363586,-0.19,-0.215,96.48,96.48,1.58913,0.486359,0,443.528,-488.854,0.421756,0,35.62,264.884,2467746
0.239929,-0.426758,0.554749,-0.455,-0.176,96.47,96.47,1.58446,0.487122,0,439.609,-501.379,0.429389,0,35.62,264.903,2467777
-0.40271,-0.127014,1.99994,-0.094,0.456,96.44,96.44,1.5815,0.487717,0,599.377,-510.803,0.461832,0,35.62,264.923,2467792
-0.00354004,-0.271606,-0.43573,-0.268,0.023,96.41,96.41,1.57829,0.488632,0,559.581,-539.505,0.515267,0,35.6,264.943,2467807
0.000976562,-0.052002,0.861755,-0.052,0.023,96.41,96.41,1.5708,0.490143,0,648.719,-658.155,0.555344,0,35.6,264.963,2467837
-0.0289307,-0.258362,1.11938,-0.249,0.081,96.4,96.4,1.56671,0.490921,0,645.828,-657.527,0.593511,0,35.6,264.983,2467852
-0.0419922,-0.173035,0.991516,-0.161,0.082,96.39,96.39,1.56235,0.491806,0,645.432,-703.161,0.601145,0,35.6,265.004,2467867
0.0303955,-0.169128,1.04773,-0.161,0.01,96.38,96.38,1.55287,0.493851,0,697.715,-641.581,0.608779,0,35.6,265.024,2467897
0.0321045,-0.121338,1.04077,-0.111,0.003,96.37,96.37,1.54782,0.494934,0,781.953,-836.61,0.608779,0,35.6,265.043,2467912
0.0638428,-0.137817,0.870178,-0.132,-0.028,96.37,96.37,1.54262,0.495987,0,766.401,-782.044,0.608779,0,35.6,265.063,2467927
0.143738,-0.152405,0.913879,-0.152,-0.106,96.39,96.39,1.53157,0.49791,0,843.917,-779.575,0.608779,0,35.6,265.084,2467957
0.0231934,-0.0681152,1.25732,-0.047,0.01,96.39,96.39,1.52582,0.498764,0,740.604,-921.914,0.608779,0,35.6,265.104,2467972
-0.0391846,-0.0843506,0.986328,-0.06,0.069,96.38,96.38,1.51997,0.49968,0,852.551,-820.143,0.616412,0,35.6,265.124,2467987
0.090332,-0.170959,0.919434,-0.16,-0.051,96.39,96.39,1.50793,0.501816,0,822.639,-837.135,0.616412,0,35.6,265.143,2468017
0.0404663,-0.119995,0.974182,-0.102,-0.006,96.4,96.4,1.50166,0.502884,0,765.433,-852.188,0.616412,0,35.6,265.164,2468032
-0.125977,-0.010437,1.06561,0.028,0.148,96.42,96.42,1.49533,0.504044,0,840.725,-954.016,0.616412,0,35.6,265.184,2468047
0.15741,-0.0630493,0.846863,-0.06,-0.132,96.43,96.43,1.48257,0.506561,0,868.018,-889.324,0.616412,0,35.6,265.203,2468077
0.100159,-0.0911865,0.74762,-0.083,-0.072,96.44,96.44,1.47606,0.50766,0,805.153,-965.437,0.616412,0,35.6,265.224,2468092
0.0721436,0.00646973,1.14636,0.025,-0.048,96.44,96.44,1.46951,0.508652,0,959.647,-925.155,0.616412,0,35.6,265.243,2468107
0.0497437,-0.164429,0.759827,-0.151,-0.015,96.44,96.44,1.45638,0.510895,0,856.568,-910.457,0.616412,0,35.6,265.264,2468137
-0.0692749,-0.065918,0.969421,-0.035,0.095,96.44,96.44,1.44965,0.512115,0,902.568,-851.789,0.616412,0,35.6,265.283,2468152
-0.00756836,-0.113708,1.06427,-0.087,0.041,96.46,96.46,1.44283,0.513428,0,938.042,-849.582,0.616412,0,35.6,265.305,2468167
-0.189087,-0.0464478,0.940735,-0.002,0.211,96.49,96.49,1.42929,0.516266,0,873.248,-998.004,0.616412,0,35.6,265.331,2468197
0.255127,-0.0259399,1.03461,-0.029,-0.23,96.48,96.48,1.42253,0.517746,0,935.935,-1057.98,0.616412,0,35.6,265.344,2468212
0.0170288,-0.138733,0.781799,-0.121,0.015,96.47,96.47,1.41566,0.519089,0,890.313,-997.108,0.616412,0,35.6,265.364,2468227
0.00134277,0.0259399,0.954956,0.047,0.015,96.48,96.48,1.40181,0.521667,0,877.925,-820.614,0.616412,0,35.6,265.385,2468257
-0.243835,0.0299683,1.0838,0.081,0.26,96.5,96.5,1.39499,0.523132,0,913.117,-887.824,0.616412,0,35.6,265.403,2468272
0.235107,-0.244751,0.839172,-0.25,-0.188,96.49,96.49,1.38805,0.524643,0,1001.35,-972.479,0.616412,0,35.6,265.424,2468287
0.0463867,-0.03302,0.60968,-0.023,-0.029,96.51,96.51,1.37411,0.528046,0,1057.59,-948.947,0.616412,0,35.63,265.443,2468317
0.0678711,-0.0418701,1.2196,-0.022,-0.039,96.52,96.52,1.36717,0.5298,0,971.865,-1091.58,0.616412,0,35.63,265.464,2468332
0.0166016,-0.0667725,1.11603,-0.043,0.012,96.52,96.52,1.36017,0.53154,0,946.208,-979.288,0.616412,0,35.63,265.484,2468347
0.195801,-0.0679321,0.634338,-0.074,-0.174,96.54,96.54,1.34624,0.535004,0,975.895,-890.908,0.616412,0,35.63,265.506,2468377
0.0369873,-0.0473022,0.966125,-0.029,-0.013,96.55,96.55,1.3392,0.53656,0,1060.5,-910.498,0.616412,0,35.63,265.523,2468392
-0.195862,-0.0698242,1.37213,-0.015,0.228,96.55,96.55,1.33215,0.538254,0,985.61,-959.095,0.616412,0,35.63,265.543,2468407
0.0176392,-0.0413208,0.885681,-0.02,0.003,96.51,96.51,1.33212,0.541733,0,953.38,-975.372,0.616412,0,35.63,265.564,2468437
-0.109375,0.0473633,1.13666,0.087,0.124,96.48,96.48,1.33215,0.543533,0,979.816,-1084.25,0.616412,0,35.63,265.583,2468452
0.177734,-0.00549316,0.956299,-0.001,-0.157,96.45,96.45,1.33223,0.545288,0,828.123,-1042.86,0.616412,0,35.63,265.606,2468467
0.0907593,-0.00811768,1.27051,0.014,-0.062,96.4,96.4,1.33237,0.548569,0,1045.75,-1071.52,0.616412,0,35.63,265.624,2468497
0.422729,-0.184021,0.504395,-0.217,-0.388,96.38,96.38,1.33229,0.549881,0,1068.2,-830.91,0.555344,0,35.63,265.644,2468512
0.0827026,0.381104,1.99994,0.418,-0.083,96.33,96.33,1.33235,0.550858,0,923.574,-848.248,0.538168,0,35.63,265.664,2468527
-0.226746,0.189209,1.99994,0.259,0.246,96.35,96.35,1.33269,0.552414,0,979.624,-1001.6,0.522901,0,35.63,265.683,2468557
0.442688,-0.132629,0.381409,-0.171,-0.416,96.34,96.34,1.3329,0.55307,0,820.546,-979.864,0.45229,0,35.63,265.704,2468572
-0.409729,0.290771,1.99994,0.38,0.42,96.34,96.34,1.33327,0.553726,0,889.521,-962.881,0.358779,0,35.63,265.723,2468587
-0.114746,0.144043,1.17719,0.178,0.125,96.33,96.33,1.3345,0.556046,0,1001.55,-948.272,0.125954,0,35.63,265.743,2468617
0.196594,0.0775146,1.06812,0.073,-0.18,96.35,96.35,1.33533,0.557251,0,640.041,-679.44,0.0477099,0,35.63,265.764,2468632
-0.0195312,0.274048,0.752991,0.286,0.006,96.35,96.35,1.3364,0.55835,0,742.501,-751.597,0.00763359,0,35.63,265.783,2468647
-0.153137,0.375977,0.984009,0.395,0.133,96.38,96.38,1.34035,0.560776,0,832.813,-872.22,-0.0555556,0,35.63,265.803,2468677
0.0112305,0.157837,0.85791,0.158,-0.007,96.37,96.37,1.34303,0.562149,0,544.381,-855.066,-0.149425,0,35.63,265.823,2468692
0.198792,0.189514,1.03656,0.168,-0.191,96.37,96.37,1.34593,0.563385,0,373.42,-506.022,-0.369732,0,35.63,265.844,2468709
-0.232239,0.595581,0.931152,0.611,0.192,96.28,96.28,1.35281,0.564636,0,173.408,-236.527,-0.496169,0,35.63,265.863,2468737
-0.022522,0.57251,1.44171,0.55,0.001,96.2,96.2,1.35732,0.565277,0,29.4458,0,-0.597701,0,35.63,265.883,2468752
0.0394897,0.572571,0.461243,0.555,-0.086,96.14,96.14,1.36256,0.565872,0,-121.15,260.675,-0.630268,0,35.63,265.903,2468767
0.0849609,0.557312,0.608704,0.523,-0.124,96.04,96.04,1.37538,0.567123,0,-175.366,337.16,-0.676245,0,35.63,265.924,2468797
-0.0895996,0.73291,1.26544,0.683,0.052,95.99,95.99,1.383,0.567703,0,-237.408,541.521,-0.772031,0,35.63,265.944,2468812
0.0615234,0.569641,1.03711,0.507,-0.088,95.95,95.95,1.39142,0.568253,0,-290.457,814.2,-0.835249,0,35.62,265.964,2468827
-0.0113525,0.456177,0.728516,0.409,-0.011,95.85,95.85,1.41,0.569122,0,-455.84,880.824,-0.898467,0,35.62,265.984,2468857
-0.0630493,0.463684,1.10876,0.392,0.053,95.81,95.81,1.4201,0.56958,0,-491.364,874.241,-0.913793,0,35.62,266.004,2468872
-0.0976562,0.455383,0.945984,0.392,0.083,95.77,95.77,1.43076,0.570114,0,-660.96,939.541,-0.936782,0,35.62,266.024,2468887
-0.0556641,0.700439,1.14526,0.602,0.024,95.76,95.76,1.4541,0.571091,0,-744.241,722.543,-0.95977,0,35.62,266.047,2468917
0.0100708,0.581848,0.976685,0.486,-0.034,95.78,95.78,1.4669,0.571548,0,-792.613,725.874,-0.977011,0,35.62,266.064,2468932
-0.2099,0.67688,1.12451,0.581,0.179,95.82,95.82,1.48044,0.572098,0,-853.242,722.569,-0.977011,0,35.62,266.084,2468947
0.0674438,0.508118,0.947754,0.392,-0.085,95.94,95.94,1.50967,0.573349,0,-854.884,643.252,-0.977011,0,35.62,266.105,2468977
0.0556641,0.439331,1.00702,0.314,-0.064,95.99,95.99,1.5251,0.573837,0,-901.388,842.247,-0.984674,0,35.62,266.123,2468992
0.105225,0.461426,0.878479,0.342,-0.118,96,96,1.54097,0.574203,0,-905.346,953.334,-1,0,35.62,266.143,2469007
-0.0886841,0.397339,1.25885,0.244,0.097,96.01,96.01,1.57413,0.574677,0,-915.122,901.023,-1,0,35.62,266.164,2469037
0.294617,0.414124,1.28418,0.215,-0.286,96.01,96.01,1.59123,0.574799,0,-1160.23,929.93,-1,0,35.62,266.19,2469052
0.193298,0.246338,0.446594,0.165,-0.198,96.02,96.02,1.60861,0.57457,0,-995.322,954.927,-1,0,35.62,266.205,2469067
-0.148804,0.36676,1.1615,0.221,0.157,96.01,96.01,1.64418,0.574036,0,-975.039,869.49,-1,0,35.62,266.224,2469097
0.127563,0.40387,1.00226,0.248,-0.128,96.02,96.02,1.66245,0.573853,0,-1040.31,1071.35,-1,0,35.62,266.243,2469112
-0.0228271,0.285278,1.05267,0.138,0.033,96.01,96.01,1.68097,0.573608,0,-1259.68,1185.89,-1,0,35.62,266.264,2469127
0.513184,0.128601,-0.615662,0.16,-0.547,96.07,96.07,1.71884,0.574463,0,-1173.71,1147.78,-1,0,35.62,266.284,2469157
-0.127747,0.139587,0.532104,0.073,0.131,96.05,96.05,1.75769,0.577316,0,-1374.85,1208.97,-1,0,35.62,266.313,2469187
-0.127747,0.139587,0.532104,0.073,0.131,96.05,96.05,1.75769,0.577316,0,-1282.96,1351.63,-1,0,35.62,266.323,2469187
0.230957,0.139893,0.919006,-0.02,-0.208,96.02,96.02,1.79745,0.580505,0,-1247.5,1358.51,-0.936782,0,35.62,266.343,2469217
0.495117,0.133728,1.08551,-0.078,-0.465,95.98,95.98,1.81737,0.581451,0,-1353.82,1490.31,-0.913793,0,35.62,266.363,2469232
0.606384,0.881104,1.99994,0.506,-0.629,95.89,95.89,1.83757,0.581665,0,-1199.98,1181.75,-0.8659,0,35.62,266.383,2469247
0.65509,-0.104126,0.240417,-0.204,-0.631,95.93,95.93,1.85799,0.581024,0,-1474.93,1343.09,-0.842912,0,35.62,266.403,2469263
0.120789,-0.071106,0.0247192,-0.085,-0.112,95.82,95.82,1.89835,0.579086,0,-1561.28,1020.51,-0.787356,0,35.62,266.425,2469292
0.0423584,0.440735,0.763977,0.317,-0.055,95.84,95.84,1.91864,0.578018,0,-1256.12,1392.18,-0.739464,0,35.62,266.443,2469307
-0.157593,-0.107361,1.0058,-0.239,0.204,95.85,95.85,1.95963,0.575439,0,-1545.48,1507.61,-0.724138,0,35.57,266.463,2469337
0.232849,0.128174,1.37982,-0.1,-0.192,95.86,95.86,1.97984,0.574158,0,-1359.53,1274.53,-0.724138,0,35.57,266.483,2469352
0.0679321,0.0789795,0.349854,0.02,-0.062,95.89,95.89,1.99998,0.572693,0,-1488.76,1369.39,-0.724138,0,35.57,266.506,2469367
-0.382507,0.200012,1.99994,-0.051,0.429,95.92,95.92,2.04002,0.57019,0,-1472.54,1446.13,-0.708812,0,35.57,266.524,2469397
0.170288,-0.0153198,-0.0129395,-0.03,-0.168,95.96,95.96,2.05994,0.569305,0,-1412.63,1332,-0.701149,0,35.57,266.544,2469412
0.133484,0.141602,1.01868,-0.015,-0.11,95.96,95.96,2.07982,0.568222,0,-1387.15,1416.13,-0.701149,0,35.57,266.564,2469427
0.0354614,0.142578,0.892578,0.014,-0.02,96.03,96.03,2.11913,0.566727,0,-1504.66,1571.83,-0.701149,0,35.57,266.583,2469457
0.232605,-0.12207,0.39209,-0.197,-0.204,96.09,96.09,2.1386,0.565964,0,-1326.79,994.233,-0.701149,0,35.57,266.603,2469472
-0.333801,0.150452,1.90033,-0.074,0.381,96.11,96.11,2.15787,0.565323,0,-1304.89,1280.16,-0.701149,0,35.57,266.625,2469488
-0.0731812,0.0470581,0.493042,-0.01,0.085,96.18,96.18,2.17709,0.565002,0,-1334.94,1611.86,-0.701149,0,35.57,266.643,2469503
-0.141357,0.165466,1.69495,-0.042,0.181,96.28,96.28,2.21524,0.564438,0,-1463.91,1662.51,-0.701149,0,35.57,266.664,2469533
-0.150208,-0.00817871,0.245911,-0.022,0.158,96.36,96.36,2.23422,0.564423,0,-1414.23,1582.28,-0.701149,0,35.57,266.685,2469548
0.266846,-0.121338,0.959106,-0.271,-0.217,96.46,96.46,2.27203,0.56398,0,-1430.72,1390.53,-0.701149,0,35.57,266.704,2469578
-0.579224,0.0951538,1.99994,-0.097,0.632,96.49,96.49,2.2906,0.563889,0,-1356.76,1550.15,-0.701149,0,35.57,266.724,2469593
0.0377808,-0.486816,-0.397034,-0.435,0.001,96.57,96.57,2.30881,0.564224,0,-1400.56,1577.16,-0.693487,0,35.57,266.743,2469609
-0.0943604,-0.0585938,0.830139,-0.15,0.125,96.6,96.6,2.34431,0.564697,0,-1190.97,1544.88,-0.693487,0,35.57,266.764,2469638
-0.0568237,-0.0101318,0.223633,-0.03,0.065,96.69,96.69,2.36185,0.565063,0,-1306.76,1384.08,-0.685824,0,35.57,266.784,2469653
-0.0317383,-0.289978,1.6051,-0.477,0.115,96.75,96.75,2.37904,0.565552,0,-1528.7,1598.72,-0.685824,0,35.57,266.803,2469668
-1.72864,-0.370667,1.99994,-0.398,1.822,96.79,96.79,2.41264,0.567749,0,-1439.26,1741.25,-0.685824,0,35.57,266.824,2469698
0.0328369,0.335632,-0.389038,0.373,-0.084,97.02,97.02,2.42932,0.570633,0,-1305.48,1687.91,-0.685824,0,35.57,266.843,2469713
0.551147,-0.18573,1.7373,-0.462,-0.481,96.93,96.93,2.44592,0.57312,0,-1333.24,1501.73,-0.676245,0,35.57,266.863,2469728
0.146606,0.0232544,1.1958,-0.135,-0.113,97.1,97.1,2.47853,0.577728,0,-1335.83,1727.56,-0.676245,0,35.57,266.884,2469758
0.417175,-0.145935,1.48773,-0.369,-0.354,97.15,97.15,2.49446,0.579742,0,-1226.54,1547.39,-0.676245,0,35.57,266.904,2469773
0.0996704,-0.0221558,0.140564,-0.05,-0.091,97.23,97.23,2.5101,0.581451,0,-1319.7,1319.87,-0.668582,0,35.57,266.924,2469788
-0.120667,0.0889893,1.06104,-0.016,0.139,97.41,97.41,2.55679,0.587051,0,-1450.12,1354.28,-0.66092,0,35.57,266.958,2469833
-0.120667,0.0889893,1.06104,-0.016,0.139,97.41,97.41,2.55679,0.587051,0,-1272.75,1537.63,-0.66092,0,35.57,266.967,2469833
0.105042,0.0245972,1.33203,-0.137,-0.07,97.61,97.61,2.60236,0.59256,0,-1371.65,1553.28,-0.66092,0,35.62,267.003,2469878
-0.241455,-0.216919,0.784851,-0.267,0.291,97.69,97.69,2.61707,0.594406,0,-1327.58,1531.04,-0.645594,0,35.62,267.024,2469893
-0.412109,-0.0128174,1.11218,-0.078,0.441,97.75,97.75,2.63155,0.596756,0,-1415.63,1541.19,-0.645594,0,35.62,267.044,2469909
-0.249695,0.118652,1.99603,-0.063,0.288,97.87,97.87,2.66002,0.602051,0,-1427.35,1288.16,-0.637931,0,35.62,267.064,2469938
-0.121399,-0.151184,0.646729,-0.199,0.158,97.92,97.92,2.674,0.605057,0,-1361.19,1396.94,-0.637931,0,35.62,267.084,2469953
-0.0918579,0.122681,1.04156,0.026,0.103,97.99,97.99,2.68787,0.608261,0,-1320.83,1679.12,-0.637931,0,35.62,267.103,2469968
0.135864,-0.0342407,1.13409,-0.166,-0.098,98.13,98.13,2.71561,0.614563,0,-1277.63,1289.57,-0.630268,0,35.62,267.123,2469998
0.288696,0.0637207,0.272888,-0.005,-0.286,98.22,98.22,2.72931,0.617386,0,-1380.45,1634.65,-0.630268,0,35.62,267.144,2470013
-0.039917,-0.0266113,1.99994,-0.221,0.1,98.29,98.29,2.74286,0.620087,0,-1344.36,1562.74,-0.630268,0,35.62,267.164,2470028
0.183167,-0.0272217,0.0858154,-0.061,-0.174,98.51,98.51,2.76906,0.625366,0,-1306.51,1755.16,-0.630268,0,35.62,267.183,2470058
-0.31781,0.0926514,1.99994,-0.055,0.356,98.55,98.55,2.78197,0.628052,0,-1334.85,1253.76,-0.630268,0,35.62,267.204,2470073
0.230164,-0.341919,0.302246,-0.399,-0.168,98.64,98.64,2.79457,0.630875,0,-1407.36,1472.21,-0.622605,0,35.62,267.224,2470088
0.0145874,-0.131165,0.0116577,-0.132,0.005,98.8,98.8,2.81917,0.636856,0,-1326.35,1592.99,-0.622605,0,35.62,267.244,2470118
0.145203,-0.272888,1.90045,-0.471,-0.047,98.85,98.85,2.83101,0.639938,0,-1402.43,1375.89,-0.622605,0,35.62,267.265,2470133
-0.202515,0.139771,0.475647,0.125,0.192,98.95,98.95,2.84262,0.643097,0,-1269.2,1407.26,-0.614943,0,35.62,267.284,2470148
0.247864,0.0632935,1.33112,-0.1,-0.217,99.09,99.09,2.86554,0.648926,0,-1470.37,1164.62,-0.614943,0,35.62,267.304,2470178
-0.34906,0.136658,1.67993,0.041,0.373,99.15,99.15,2.87685,0.651749,0,-1335.65,1584.16,-0.605364,0,35.62,267.324,2470193
0.258606,-0.0784302,-0.162231,-0.104,-0.248,99.25,99.25,2.88812,0.654678,0,-1466.81,1503.99,-0.605364,0,35.62,267.343,2470208
0.438904,-0.132324,0.810364,-0.27,-0.387,99.37,99.37,2.91029,0.660049,0,-1216.77,1515.61,-0.582375,0,35.62,267.364,2470238
0.464783,-0.104187,0.191101,-0.193,-0.434,99.45,99.45,2.92097,0.662064,0,-1475.04,1347.8,-0.534483,0,35.62,267.383,2470253
-0.092041,0.281555,1.92975,0.128,0.1,99.52,99.52,2.93161,0.663849,0,-1237.62,1345.99,-0.496169,0,35.62,267.403,2470268
0.238159,-0.199829,0.647034,-0.288,-0.182,99.57,99.57,2.94212,0.665588,0,-1312.42,1464.99,-0.417625,0,35.62,267.423,2470283
-0.290039,0.121765,1.24823,0.067,0.304,99.7,99.7,2.96292,0.669357,0,-1271.46,1467.46,-0.385057,0,35.62,267.443,2470313
0.0308228,-0.122375,0.417847,-0.158,0.003,99.78,99.78,2.97331,0.671616,0,-1248.75,1537.04,-0.314176,0,35.62,267.464,2470328
-0.296021,0.0377197,1.99994,-0.067,0.342,99.87,99.87,2.98354,0.674103,0,-1095.29,1223.17,-0.220307,0,35.62,267.484,2470343
-0.151855,-0.0582275,0.647766,-0.077,0.178,100.16,100.16,3.00354,0.679886,0,-1130.14,1556.06,-0.0862069,0,35.66,267.504,2470373
-0.0864258,-0.212646,1.20178,-0.281,0.152,100.33,100.33,3.01321,0.683105,0,-1123.53,1429.9,0.00763359,0,35.66,267.523,2470388
-0.281128,-0.313782,0.383911,-0.282,0.343,100.55,100.55,3.02252,0.686646,0,-1164.62,1316.57,0.00763359,0,35.66,267.543,2470403
0.134827,-0.1828,0.824097,-0.257,-0.081,101.12,101.12,3.0401,0.694809,0,-1135.98,1336.01,0.00763359,0,35.66,267.564,2470433
0.165039,-0.0957642,1.15802,-0.197,-0.115,101.38,101.38,3.04842,0.698853,0,-1159.35,1310.44,0.00763359,0,35.66,267.584,2470448
0.26416,0.138977,0.438904,0.056,-0.274,101.73,101.73,3.0648,0.706467,0,-1117.51,1458.68,0.00763359,0,35.66,267.605,2470478
0.442017,-0.0621338,1.15424,-0.219,-0.386,101.85,101.85,3.07292,0.709702,0,-1115.01,1243.63,0.0477099,0,35.66,267.626,2470493
0.296936,-0.18866,1.55005,-0.336,-0.204,101.92,101.92,3.08064,0.71254,0,-1254.23,1311.65,0.108779,0,35.66,267.643,2470508
0.0253296,0.0865479,0.578918,0.048,-0.023,102.01,102.01,3.09502,0.717377,0,-1002.05,1230.09,0.164122,0,35.66,267.664,2470538
-0.0783081,-0.355164,1.20801,-0.395,0.188,102.04,102.04,3.10185,0.719788,0,-698.275,1341.02,0.219466,0,35.66,267.683,2470553
-0.366394,-0.453491,1.72449,-0.452,0.498,102.19,102.19,3.10814,0.722687,0,-490.244,1379.31,0.343511,0,35.66,267.705,2470568
-0.209656,-0.350159,0.3526,-0.307,0.287,102.87,102.87,3.11929,0.730453,0,-327.123,1392.66,0.343511,0,35.66,267.724,2470598
-0.0847778,-0.307983,1.38257,-0.331,0.17,103.39,103.39,3.12424,0.734924,0,-177.019,1308.73,0.562977,0,35.66,267.743,2470613
-0.244507,-0.312012,1.36481,-0.292,0.324,103.97,103.97,3.12877,0.739731,0,-94.767,1082.02,0.562977,0,35.66,267.763,2470628
-0.432007,-0.308899,0.507507,-0.205,0.498,104.61,104.61,3.13295,0.745102,0,0,1216.55,0.616412,0,35.66,267.783,2470644
-0.171509,-0.26709,1.99994,-0.263,0.233,106.18,106.18,3.14066,0.757584,0,93.6869,1059.88,0.625954,0,35.66,267.803,2470673
0.0158691,-0.297668,0.692566,-0.303,0.068,107.05,107.05,3.14398,0.764252,0,147.418,1282.3,0.671756,0,35.66,267.825,2470688
-0.106079,-0.279358,0.973267,-0.246,0.18,109.01,109.01,3.15005,0.778656,0,236.038,1146.92,0.719466,0,35.66,267.844,2470718
-0.480286,-0.0462646,1.82385,0.094,0.443,110.05,110.05,3.15289,0.786484,0,274.533,1015.38,0.79771,0,35.66,267.863,2470733
-0.216309,-0.311279,0.627258,-0.219,0.304,111.15,111.15,3.15565,0.794815,0,325.908,1012.15,0.835878,0,35.66,267.884,2470748
-0.23584,-0.101379,0.891846,-0.013,0.239,112.34,112.34,3.15825,0.803528,0,453.258,920.471,0.883588,0,35.66,267.904,2470764
-0.109192,-0.133179,0.849304,-0.082,0.136,114.85,114.85,3.16304,0.821548,0,558.316,1106.13,0.906489,0,35.66,267.924,2470793
-0.119873,-0.0924072,0.812378,-0.035,0.129,116.19,116.19,3.16527,0.830811,0,437.905,986.242,0.95229,0,35.66,267.946,2470808
-0.105225,-0.190247,0.688721,-0.118,0.165,119.04,119.04,3.16994,0.850235,0,650.343,990.835,0.969466,0,35.66,267.964,2470838
0.0738525,-0.00238037,0.7005,-0.042,-0.082,120.55,120.55,3.1722,0.860168,0,590.092,1043.57,0.992366,0,35.66,267.983,2470853
-0.201965,0.0691528,1.40283,0.156,0.091,122.08,122.08,3.17451,0.870102,0,588.668,924.855,0.992366,0,35.73,268.003,2470868
0.0401611,-0.0200195,0.636658,-0.043,-0.044,125.29,125.29,3.17917,0.890472,0,551.663,855.542,1,0,35.73,268.024,2470898
-0.0419312,0.0664673,0.687439,0.075,-0.033,127,127,3.18147,0.90065,0,723.197,841.397,1,0,35.73,268.044,2470913
-0.00726318,-0.000244141,0.921936,-0.003,-0.032,128.76,128.76,3.18382,0.910797,0,667.735,857.89,1,0,35.73,268.064,2470928
0.159546,0.0183105,1.4397,-0.098,-0.191,130.53,130.53,3.18611,0.920776,0,735.943,747.133,1,0,35.73,268.084,2470944
-0.35675,0.0913696,0.997681,0.306,0.149,134.27,134.27,3.1909,0.940155,0,723.929,768.876,1,0,35.73,268.103,2470973
0.0846558,0.0582275,0.422852,-0.024,-0.118,136.19,136.19,3.19362,0.94986,0,823.418,875.925,1,0,35.73,268.123,2470988
-0.343323,0.172485,1.35895,0.357,0.043,138.14,138.14,3.19658,0.959503,0,853.716,1038.37,1,0,35.73,268.143,2471004
-0.154419,0.235657,1.52515,0.246,-0.152,142.14,142.14,3.20338,0.97847,0,844.167,808.767,1,0,35.73,268.163,2471033
0.0896606,0.0592651,0.788025,-0.047,-0.131,144.17,144.17,3.20705,0.987671,0,852.769,840.124,1,0,35.73,268.183,2471048
0.0133057,0.218445,0.889526,0.099,-0.223,146.22,146.22,3.21075,0.996628,0,928.462,784.837,1,0,35.73,268.203,2471064
0.0197754,0.114868,1.15533,0.022,-0.15,150.36,150.36,3.21819,1.01353,0,969.039,709.673,1,0,35.73,268.223,2471093
0.0133057,0.185242,1.14758,0.056,-0.209,152.46,152.46,3.22195,1.02158,0,932.14,968.851,1,0,35.73,268.247,2471109
0.0786743,0.117432,0.854858,-0.039,-0.165,156.66,156.66,3.22974,1.0368,0,998.851,1003.16,1,0,35.73,268.263,2471138
0.133179,0.112854,1.61597,-0.112,-0.2,158.76,158.76,3.23355,1.04404,0,1091.05,1056.69,1,0,35.73,268.283,2471153
0.163208,0.114014,0.730896,-0.127,-0.182,160.83,160.83,3.2372,1.05101,0,1131.54,939.85,1,0,35.73,268.304,2471168
-0.0160522,0.283203,0.969299,0.085,-0.291,162.91,162.91,3.24081,1.05766,0,1093.55,711.997,1,0,35.73,268.324,2471184
0.512695,0.0153198,1.1709,-0.507,-0.157,166.99,166.99,3.24823,1.06996,0,1150.68,509.632,1,0,35.73,268.344,2471213
0.192688,0.386169,0.389404,-0.119,-0.424,169.07,169.07,3.25142,1.07558,0,1058.37,293.341,0.891221,0,35.73,268.364,2471228
-0.26947,0.0836792,1.12646,0.269,-0.075,172.98,172.98,3.25764,1.08603,0,953.062,136.728,0.858779,0,35.73,268.385,2471258
0.0863647,-0.337769,0.264587,-0.118,0.322,174.86,174.86,3.26093,1.09137,0,968.476,51.9308,0.851145,0,35.73,268.404,2471273
0.48822,-0.270813,1.99994,-0.518,0.19,176.6,176.6,3.26378,1.09705,0,981.065,-546.03,0.851145,0,35.73,268.423,2471289
0.765808,-0.718689,0.558533,-0.788,0.676,178.19,178.19,3.26575,1.10333,0,985.902,-574.828,0.851145,0,35.73,268.443,2471304
1.0437,-0.537598,0.8349,-1.029,0.517,-179.11,180.88,3.26701,1.1185,0,1084.54,-656.685,0.851145,0,35.73,268.464,2471334
0.656799,-0.543579,1.10156,-0.62,0.512,-177.95,182.04,3.26604,1.12718,0,1178.34,-755.658,0.820611,0,35.73,268.484,2471349
0.476624,-0.401367,0.980957,-0.432,0.373,-176.89,183.1,3.26433,1.13647,0,1106.56,-732.279,0.742366,0,35.73,268.504,2471364
0.343506,-0.266541,0.534973,-0.302,0.261,-175.09,184.9,3.25964,1.15625,0,1120.07,-1045.64,0.578244,0,35.71,268.524,2471394
0.391418,-0.320801,1.47363,-0.306,0.26,-174.36,185.63,3.2567,1.16667,0,1082.37,-1049.15,0.375954,0,35.71,268.544,2471409
0.431458,-0.173096,1.42175,-0.343,0.116,-173.29,186.7,3.24901,1.18884,0,1001.75,-1009.08,0.25,0,35.71,268.563,2471439
0.551392,-0.377197,0.799255,-0.458,0.377,-172.96,187.03,3.24431,1.20047,0,864.416,-1140.51,0.0629771,0,35.71,268.583,2471454
0.656189,0.135986,0.808105,-0.616,-0.119,-172.62,187.37,3.23299,1.22455,0,677.369,-1130.01,0.0152672,0,35.71,268.609,2471484
0.656189,0.135986,0.808105,-0.616,-0.119,-172.62,187.37,3.23299,1.22455,0,657.938,-1224.96,0.00763359,0,35.71,268.624,2471484
0.208862,-0.0565796,0.712036,-0.148,0.023,-172.8,187.19,3.2197,1.24854,0,677.759,-1285.02,0.00763359,0,35.71,268.643,2471514
0.307983,0.00402832,1.2287,-0.215,-0.067,-173.3,186.69,3.2061,1.27213,0,992.359,-1313.03,0.00763359,0,35.71,268.671,2471544
0.307983,0.00402832,1.2287,-0.215,-0.067,-173.3,186.69,3.2061,1.27213,0,952.381,-1278.28,0.00763359,0,35.71,268.683,2471544
-0.343689,-0.015625,1.33093,0.442,-0.121,-173.84,186.15,3.19206,1.29578,0,911.452,-1114.14,0.00763359,0,35.71,268.703,2471574
-0.0714722,-0.101562,0.97699,0.154,0.018,-174.08,185.91,3.18553,1.30757,0,940.955,-1322.23,0.00763359,0,35.71,268.723,2471589
0.0975342,0.00201416,0.647949,-0.049,-0.043,-174.5,185.49,3.17326,1.30753,0,880.32,-1130.84,0.00763359,0,35.71,268.749,2471619
-0.135925,-0.134644,1.34113,0.242,0.02,-174.68,185.31,3.16736,1.30748,0,940.247,-1289.16,0.00763359,0,35.71,268.765,2471634
-0.0239258,0.0106201,1.22766,0.107,-0.105,-174.85,185.14,3.16168,1.30737,0,992.753,-1262.79,0.00763359,0,35.71,268.783,2471649
0.0610352,-0.00860596,1.22186,0.022,-0.077,-175.17,184.82,3.15038,1.30702,0,1059.38,-1341.65,0.00763359,0,35.71,268.81,2471679
0.213684,-0.193604,0.986084,-0.13,0.134,-175.32,184.67,3.14465,1.30687,0,1066.72,-1118.38,0.00763359,0,35.71,268.824,2471694
0.157227,0.00646973,1.33826,-0.07,-0.095,-175.46,184.53,3.13878,1.30675,0,1038.37,-1529.52,0.00763359,0,35.71,268.844,2471709
0.485168,-0.0655518,0.487854,-0.445,0.062,-175.6,184.39,3.13255,1.30659,0,971.912,-1193.46,0.00763359,0,35.71,268.863,2471724
-0.09021,-0.203552,0.830933,0.158,0.133,-175.89,184.1,3.11992,1.3064,0,978.426,-1509.66,0.101145,0,35.71,268.884,2471754
-0.119263,0.102051,1.15997,0.186,-0.197,-176.02,183.97,3.11395,1.30629,0,890.869,-1400.27,0.227099,0,35.71,268.904,2471769
0.27179,0.024353,1.19904,-0.19,-0.096,-176.33,183.66,3.10193,1.30544,0,834.794,-1132.5,0.351145,0,35.71,268.924,2471799
0.137634,0.16864,1.12158,-0.071,-0.24,-176.58,183.41,3.09563,1.30469,0,738.471,-1334.58,0.522901,0,35.71,268.943,2471814
0.202942,0.0541382,0.60022,-0.162,-0.086,-176.87,183.12,3.08917,1.30373,0,945.761,-1260.8,0.585878,0,35.71,268.964,2471829
0.0411377,-0.0736084,1.01178,0.034,0.007,-177.51,182.48,3.07623,1.30125,0,1011.33,-1239.31,0.625954,0,35.71,268.985,2471859
-0.201172,0.0806274,0.981628,0.265,-0.151,-177.8,182.19,3.06999,1.29985,0,1140.97,-1232.13,0.625954,0,35.71,269.004,2471874
0.0320435,-0.132812,0.502319,0.008,0.1,-178.05,181.94,3.06395,1.2984,0,998.303,-1238.39,0.625954,0,35.64,269.024,2471889
-0.191162,-0.000427246,1.1889,0.272,-0.082,-178.26,181.73,3.05809,1.29698,0,1109.2,-1552.07,0.625954,0,35.64,269.043,2471904
-0.0673828,-0.0379639,1.05688,0.136,-0.032,-178.61,181.38,3.04726,1.29424,0,1198.11,-1355.11,0.625954,0,35.64,269.063,2471934
0.0397949,0.00891113,1.10193,0.03,-0.079,-178.75,181.24,3.04208,1.29282,0,1141.36,-1426.94,0.625954,0,35.64,269.084,2471949
-0.095459,-0.0595093,0.855408,0.147,0.003,-178.98,181.01,3.03172,1.29062,0,972.384,-1329.08,0.633588,0,35.64,269.103,2471979
-0.0384521,0.114441,1.37738,0.119,-0.204,-179.07,180.92,3.02676,1.28952,0,1159.08,-1241.23,0.648855,0,35.64,269.124,2471994
0.026062,-0.0402832,1.13263,0.042,-0.033,-179.16,180.83,3.02191,1.28825,0,1064.51,-1342.46,0.656489,0,35.64,269.143,2472009
0.0438843,-0.163269,0.269592,-0.025,0.145,-179.25,180.74,3.01707,1.28705,0,1106.32,-1174.4,0.687023,0,35.64,269.164,2472024
-0.114502,-0.0165405,0.763672,0.158,-0.034,-179.46,180.53,3.00826,1.28462,0,1274.45,-1357.04,0.70229,0,35.64,269.184,2472054
-0.133667,-0.238464,1.28931,0.208,0.152,-179.56,180.43,3.00427,1.28345,0,1236.55,-1367.15,0.742366,0,35.64,269.204,2472069
0.16217,0.0540161,0.644653,-0.123,-0.097,-179.73,180.26,2.99654,1.28116,0,1146.79,-1429.08,0.780534,0,35.64,269.234,2472099
0.0892334,-0.0437622,0.843872,-0.041,-0.012,-179.82,180.17,2.99251,1.27991,0,1351.35,-1240.08,0.835878,0,35.64,269.244,2472114
-0.139954,-0.110535,1.77087,0.237,-0.007,-179.9,180.09,2.98862,1.27991,0,1260.4,-1406.57,0.858779,0,35.64,269.263,2472129
0.315491,-0.00524902,0.514771,-0.286,-0.03,-179.97,180.02,2.9847,1.27988,0,1104.73,-1262.47,0.866412,0,35.64,269.284,2472144
-0.0174561,-0.166199,1.38782,0.092,0.077,179.94,179.94,2.97629,1.27963,0,1459.21,-1497.68,0.891221,0,35.64,269.303,2472174
-0.0409546,-0.102173,1.06244,0.097,0.032,179.91,179.91,2.9722,1.27959,0,1317.26,-1318.57,0.914122,0,35.64,269.323,2472189
0.186401,-0.0250854,0.487976,-0.159,-0.008,179.9,179.9,2.96808,1.27954,0,1374.95,-1182.73,0.95229,0,35.64,269.343,2472204
0.102356,-0.368225,1.23022,-0.038,0.285,179.88,179.88,2.96021,1.28001,0,1385.91,-1323.8,0.977099,0,35.64,269.371,2472234
0.0792847,-0.0196533,0.772766,-0.04,-0.032,179.9,179.9,2.9563,1.28058,0,1394.12,-1416.83,0.977099,0,35.64,269.383,2472249
0.196594,-0.16156,0.685181,-0.161,0.113,179.91,179.91,2.95226,1.28119,0,1370.61,-1304.55,0.977099,0,35.64,269.403,2472264
0.0939941,-0.324097,0.957458,-0.048,0.258,179.93,179.93,2.94354,1.28296,0,1331.2,-1582.65,0.984733,0,35.64,269.424,2472294
0.28479,0.143433,0.406311,-0.264,-0.172,179.97,179.97,2.93889,1.28403,0,1379.88,-1351.53,0.992366,0,35.64,269.443,2472309
0.181335,-0.323669,1.0874,-0.131,0.249,-179.99,180,2.92953,1.2859,0,1558.97,-1524.27,1,0,35.64,269.464,2472339
0.223938,-0.0170288,0.69751,-0.191,-0.03,-179.95,180.04,2.92465,1.28703,0,1472.75,-1159.02,1,0,35.64,269.484,2472354
-0.0385132,0.0556641,1.65247,0.112,-0.164,-179.9,180.09,2.91972,1.28804,0,1596.81,-1274.45,1,0,35.64,269.504,2472369
0.282288,0.107422,1.17725,-0.233,-0.183,-179.86,180.13,2.9147,1.2888,0,1463.06,-1047.01,1,0,35.64,269.523,2472385
-0.03479,0.125732,0.881348,0.068,-0.178,-179.59,180.4,2.90538,1.28941,0,1442.9,-1179.31,1,0,35.57,269.543,2472414
-0.24231,0.268494,0.843994,0.271,-0.318,-179.4,180.59,2.90114,1.28923,0,1424.6,-1314.23,1,0,35.57,269.564,2472429
-0.132507,0.183655,1.99176,0.199,-0.294,-179.18,180.81,2.89722,1.28862,0,1502.07,-1173.16,1,0,35.57,269.584,2472445
-0.0358887,0.157593,0.943176,0.064,-0.207,-178.7,181.29,2.88965,1.28662,0,1401.35,-1211.09,1,0,35.57,269.604,2472474
-0.27301,0.0558472,0.579529,0.291,-0.092,-178.5,181.49,2.88611,1.28531,0,1450.54,-834.829,1,0,35.57,269.624,2472489
0.416992,-0.0633545,1.78674,-0.358,-0.017,-178.33,181.66,2.88254,1.28392,0,1417.53,-1251.64,1,0,35.57,269.643,2472505
 0.125,-0.238892,0.816284,-0.088,0.202,-178.02,181.97,2.87457,1.28101,0,1388.89,-1479.73,1,0,35.57,269.663,2472534
0.00787354,-0.133545,1.00385,0.029,0.085,-177.91,182.08,2.87048,1.27979,0,1422.48,-1300.64,1,0,35.57,269.683,2472549
0.157532,-0.0307617,1.23779,-0.115,-0.026,-177.83,182.16,2.86633,1.27859,0,1423.79,-1116.26,1,0,35.57,269.704,2472565
-0.0756836,-0.310669,1.88153,0.149,0.215,-177.65,182.34,2.85829,1.27637,0,1320.04,-1385.81,1,0,35.57,269.724,2472594
0.110352,-0.00158691,0.682678,-0.089,-0.026,-177.57,182.42,2.85442,1.27547,0,1353.64,-1154.2,1,0,35.57,269.744,2472609
0.0502319,0.000305176,-0.146362,-0.054,0.009,-177.44,182.55,2.84702,1.27328,0,1424.3,-1620.35,1,0,35.57,269.766,2472639
-0.646362,-0.118591,1.99994,0.716,-0.008,-177.4,182.59,2.84384,1.27216,0,1413.03,-1376.46,1,0,35.57,269.783,2472654
-0.0732422,-0.291199,0.506653,0.103,0.261,-177.36,182.63,2.84122,1.27118,0,1318.74,-1228.65,1,0,35.57,269.804,2472669
-0.125549,0.0689697,1.06616,0.153,-0.128,-177.27,182.72,2.83617,1.26923,0,1518.83,-1689.47,1,0,35.57,269.823,2472699
0.046814,-0.11853,1.02698,-0.01,0.066,-177.24,182.76,2.83379,1.26811,0,1389.18,-1356.12,1,0,35.57,269.845,2472714
0.0900879,-0.0701294,0.146423,-0.081,0.066,-177.22,182.77,2.83134,1.26709,0,1550.51,-1448.86,1,0,35.57,269.863,2472729
0.319458,-0.310974,0.967651,-0.27,0.272,-177.24,182.75,2.82867,1.2663,0,1520.45,-1603.33,1,0,35.57,269.884,2472745
0.0970459,-0.364319,-0.668945,-0.104,0.406,-177.3,182.69,2.82326,1.2652,0,1575.67,-1443.83,1,0,35.57,269.911,2472774
-0.213867,-0.120178,1.79761,0.281,0.01,-177.29,182.7,2.82069,1.26506,0,1445.61,-1544.64,1,0,35.57,269.924,2472789
0.192322,-0.0809326,0.896851,-0.162,0.041,-177.35,182.64,2.81821,1.26495,0,1467.35,-1523.69,1,0,35.57,269.944,2472805
0.234009,-0.138062,0.595032,-0.207,0.113,-177.42,182.57,2.81352,1.26472,0,1700.97,-1560.43,1,0,35.57,269.964,2472834
-0.130371,-0.0117798,1.9881,0.191,-0.106,-177.45,182.54,2.8112,1.26463,0,1608.36,-1206.35,1,0,35.57,269.987,2472849
0.245667,-0.352234,0.687561,-0.207,0.321,-177.48,182.51,2.80888,1.26468,0,1693.77,-1364.72,1,0,35.57,270.004,2472879
0.45813,-0.0839233,1.38715,-0.411,0.024,-177.45,182.54,2.80348,1.26514,0,1575.18,-1477.54,1,0,35.57,270.032,2472894
-0.0977783,0.0585938,0.529724,0.113,-0.093,-177.42,182.57,2.8004,1.2653,0,1462.63,-1575.05,1,0,35.56,270.043,2472910
0.440063,0.0658569,1.2572,-0.401,-0.117,-177.42,182.57,2.79713,1.26534,0,1602.31,-1401.93,1,0,35.56,270.064,2472925
-0.00518799,0.0187378,0.450256,0.018,-0.044,-177.39,182.6,2.79004,1.26511,0,1652.62,-1797.43,1,0,35.56,270.083,2472954
0.0621948,-0.131042,1.10596,-0.021,0.072,-177.36,182.63,2.78648,1.265,0,1711.3,-1925.85,1,0,35.56,270.104,2472969
-0.17627,0.108826,1.27576,0.207,-0.186,-177.35,182.64,2.78307,1.26479,0,1521.95,-1572.08,1,0,35.56,270.124,2472985
-0.335266,0.0913696,1.99994,0.383,-0.212,-177.35,182.64,2.77599,1.26419,0,1748.86,-1574.43,1,0,35.56,270.143,2473015
-0.191406,-0.443604,1.56653,0.256,0.347,-177.4,182.59,2.77287,1.26395,0,1731,-1667.64,0.875954,0,35.56,270.164,2473030
-0.0396118,0.273926,0.0805054,0.029,-0.279,-177.38,182.61,2.76996,1.26373,0,1626.28,-1442.9,0.772901,0,35.56,270.183,2473045
-0.192627,0.203979,1.52734,0.222,-0.293,-177.39,182.6,2.76425,1.26309,0,1456.13,-1680.39,0.555344,0,35.56,270.203,2473075
0.240234,-0.0505981,-0.222595,-0.244,0.073,-177.38,182.61,2.76146,1.26257,0,1629.33,-1507.61,0.148855,0,35.56,270.224,2473090
-0.447205,0.258362,1.99994,0.483,-0.377,-177.4,182.59,2.75882,1.26184,0,1104.67,-1709.4,0.148855,0,35.56,270.244,2473105
0.266541,0.110474,0.0188599,-0.27,-0.1,-177.49,182.5,2.75391,1.26033,0,989.266,-1681.38,0.0305344,0,35.56,270.264,2473135
0.176086,0.916748,1.99994,-0.164,-0.999,-177.58,182.41,2.75105,1.25888,0,1104.67,-1659.61,0.00763359,0,35.56,270.283,2473150
0.529663,-0.35321,-0.158325,-0.521,0.379,-177.8,182.19,2.74773,1.257,0,1106.32,-1128.41,0.00763359,0,35.56,270.303,2473165
0.253052,-0.0844116,0.827271,-0.221,0.057,-178.22,181.77,2.74191,1.25371,0,1288.24,-1706.92,0.00763359,0,35.56,270.324,2473195
0.252625,0.283691,-0.135376,-0.265,-0.271,-178.42,181.57,2.73888,1.25192,0,1367.15,-1554.12,0.00763359,0,35.56,270.343,2473210
-0.760803,0.101196,1.99994,0.833,-0.19,-178.66,181.33,2.73622,1.24983,0,1517.11,-1524.74,0.00763359,0,35.56,270.363,2473225
0.146973,0.0823364,0.252808,-0.137,-0.088,-179.03,180.96,2.73177,1.24501,0,1289.82,-1405.09,-0.0153257,0,35.56,270.383,2473255
0.038208,-0.0519409,1.61841,0.022,0,-179.14,180.85,2.72939,1.24246,0,1431.95,-1624.3,-0.0708812,0,35.56,270.404,2473270
0.0090332,0.228149,1.42645,0.037,-0.277,-179.24,180.75,2.72705,1.23973,0,1018.43,-1729.21,-0.220307,0,35.56,270.423,2473285
-0.266907,0.161682,1.56665,0.326,-0.212,-179.46,180.53,2.72169,1.23358,0,514.139,-1468.86,-0.252874,0,35.56,270.445,2473315
0.227966,-0.0319824,1.41577,-0.171,-0.01,-179.66,180.33,2.71907,1.23026,0,266.905,-1428.27,-0.291188,0,35.56,270.464,2473330
0.427856,0.17926,-0.0176392,-0.428,-0.178,-179.89,180.1,2.71605,1.22679,0,170.51,-1991.44,-0.298851,0,35.56,270.484,2473345
-0.275085,0.0637817,1.48267,0.348,-0.091,179.45,179.45,2.70987,1.21887,0,0,-1416.03,-0.306513,0,35.56,270.503,2473375
0.242981,-0.0101929,0.26947,-0.228,0,179.08,179.08,2.70702,1.21469,0,-122.84,-1321,-0.306513,0,35.56,270.523,2473390
0.21106,0.448853,1.71875,-0.112,-0.481,178.76,178.76,2.70392,1.21021,0,-75.7739,-1335.65,-0.306513,0,35.56,270.543,2473405
0.39856,0.172974,0.724854,-0.351,-0.194,177.97,177.97,2.69717,1.19969,0,-33.3087,-1429.18,-0.306513,0,35.48,270.563,2473435
0.272766,0.0420532,0.997009,-0.215,-0.061,177.54,177.54,2.69327,1.19408,0,-153.763,-1383.89,-0.306513,0,35.48,270.583,2473450
0.204468,0.0682983,1.04877,-0.142,-0.085,177.09,177.09,2.68912,1.18835,0,-142.651,-1578.28,-0.377395,0,35.48,270.603,2473465
-0.0303955,0.209534,1.28217,0.12,-0.207,176.07,176.07,2.67979,1.17607,0,-27.8391,-1446.86,-0.440613,0,35.48,270.623,2473495
-0.0819092,0.0876465,0.890137,0.142,-0.079,175.52,175.52,2.67522,1.16956,0,-146.52,-1292.99,-0.559387,0,35.48,270.644,2473510
0.121399,0.181335,0.973877,-0.046,-0.188,174.96,174.96,2.6707,1.16286,0,-185.713,-1600.51,-0.645594,0,35.48,270.664,2473525
0.250549,0.398315,1.57422,-0.11,-0.408,173.77,173.77,2.66081,1.14868,0,-287.026,-1160.03,-0.8659,0,35.48,270.683,2473555
0.00286865,0.186218,0.902588,0.076,-0.174,173.16,173.16,2.6557,1.14104,0,-423.03,-1518.95,-0.944444,0,35.48,270.703,2473570
0.358521,0.198425,1.2511,-0.251,-0.223,172.56,172.56,2.65047,1.1331,0,-643.273,-1109.57,-1,0,35.48,270.723,2473585
0.318237,0.318298,1.35016,-0.181,-0.334,171.36,171.36,2.63918,1.11621,0,-685.542,-1269.52,-1,0,35.48,270.743,2473615
0.16333,0.305542,1.43488,-0.01,-0.292,170.07,170.07,2.62642,1.09778,0,-813.935,-1437.61,-1,0,35.48,270.775,2473645
0.16333,0.305542,1.43488,-0.01,-0.292,170.07,170.07,2.62642,1.09778,0,-805.672,-1288.91,-1,0,35.48,270.784,2473645
0.194092,0.201843,0.953857,-0.083,-0.206,168.74,168.74,2.61328,1.07799,0,-811.392,-1289.32,-1,0,35.48,270.803,2473675
0.212158,0.0958252,0.774597,-0.129,-0.111,168.04,168.04,2.60654,1.06773,0,-1049.43,-1149.23,-1,0,35.48,270.826,2473690
0.235168,0.212341,1.60541,-0.065,-0.2,167.34,167.34,2.59967,1.05728,0,-1071.64,-1172.26,-1,0,35.48,270.843,2473705
-0.0830078,0.263062,1.34399,0.244,-0.182,165.91,165.91,2.58545,1.03577,0,-983.768,-790.795,-1,0,35.48,270.864,2473735
0.282776,0.0773926,0.983826,-0.176,-0.105,165.17,165.17,2.57837,1.02472,0,-1028.75,-987.069,-1,0,35.48,270.883,2473750
0.0375977,0.119446,1.14783,0.086,-0.075,164.43,164.43,2.57123,1.01355,0,-1136.11,-1191.61,-1,0,35.48,270.903,2473765
0.37262,0.0626831,0.726868,-0.278,-0.135,162.95,162.95,2.55653,0.990891,0,-861.289,-1248.75,-1,0,35.48,270.923,2473795
0.214905,0.0617676,1.58081,-0.056,-0.049,162.19,162.19,2.54881,0.97937,0,-1075.85,-950.435,-1,0,35.48,270.943,2473810
0.0594482,-0.00628662,0.696289,0,0.02,161.4,161.4,2.54106,0.967819,0,-1269.12,-1109.51,-1,0,35.48,270.964,2473825
0.633545,0.150452,0.49884,-0.496,-0.332,159.78,159.78,2.52563,0.944687,0,-1069.92,-1209.04,-1,0,35.48,270.983,2473855
0.0787354,0.328979,1.6098,0.181,-0.253,158.96,158.96,2.51762,0.932632,0,-1077.82,-1113.21,-1,0,35.48,271.003,2473870
0.267944,0.0665894,0.675659,-0.162,-0.124,158.1,158.1,2.50961,0.920319,0,-1027.75,-1170.34,-1,0,35.48,271.024,2473885
0.387634,-0.000183105,1.23309,-0.238,-0.081,156.31,156.31,2.49297,0.895111,0,-1107.79,-1113.77,-1,0,35.48,271.044,2473915
0.129333,0.17804,1.03705,0.052,-0.154,155.39,155.39,2.48439,0.882248,0,-1150.22,-1191.54,-1,0,35.44,271.067,2473930
-0.00421143,0.0809937,0.959106,0.132,-0.008,153.47,153.47,2.46675,0.855545,0,-1155.13,-1196.39,-1,0,35.44,271.086,2473960
0.0701904,-0.00164795,1.23413,0.056,0.051,152.48,152.48,2.45799,0.842102,0,-1035.68,-1119.07,-1,0,35.44,271.114,2473975
-0.0383911,0.137756,1.01007,0.198,-0.03,150.51,150.51,2.4407,0.815079,0,-1091.7,-1037.88,-1,0,35.44,271.136,2474005
0.339539,0.0525513,0.873779,-0.172,-0.159,147.5,147.5,2.41466,0.773514,0,-1036.16,-1100.47,-1,0,35.44,271.18,2474050
-0.0032959,0.16095,1.22748,0.208,-0.038,146.47,146.47,2.40587,0.759338,0,-1052.52,-1101.56,-1,0,35.44,271.199,2474065
0.172485,0.0525513,1.17651,0,-0.045,145.44,145.44,2.39723,0.745102,0,-1087.73,-1150.81,-1,0,35.44,271.217,2474080
0.423645,0.0737915,0.842834,-0.221,-0.234,144.41,144.41,2.38844,0.730682,0,-1026.48,-1009.13,-1,0,35.44,271.225,2474095
0.131592,0.194336,1.13971,0.115,-0.139,143.39,143.39,2.37958,0.716003,0,-982.174,-1128.54,-1,0,35.44,271.244,2474110
0.255371,0.0999146,0.681763,-0.078,-0.175,142.37,142.37,2.37074,0.701111,0,-1084.6,-1192.39,-1,0,35.44,271.263,2474126
-0.0167236,0.0341797,1.04407,0.128,0.075,140.28,140.28,2.35327,0.671188,0,-1160.97,-992.507,-1,0,35.44,271.284,2474155
0.450195,0.166748,0.707153,-0.167,-0.354,139.24,139.24,2.3446,0.656067,0,-1089.92,-996.612,-1,0,35.44,271.304,2474170
0.0692139,0.175171,1.40717,0.188,-0.049,138.19,138.19,2.33594,0.640671,0,-1070.15,-729.182,-1,0,35.44,271.324,2474186
0.239441,0.190186,1.2937,0.071,-0.182,136.07,136.07,2.31914,0.609802,0,-1069.8,-1272.35,-1,0,35.44,271.344,2474215
0.0935669,0.0830688,0.233337,0.013,-0.102,134.98,134.98,2.31085,0.594116,0,-1004.42,-1091.52,-1,0,35.44,271.364,2474230
-0.0170288,0.229858,1.74902,0.324,0.019,133.87,133.87,2.3028,0.578384,0,-1168.09,-1193.1,-1,0,35.44,271.384,2474246
