accelx,accely,accelz,gyrox,gyroy,gyroz,time
-0.0322266,-0.00109863,1.02032,0.15213,0.30426,-0,6.655e+06
-0.0319824,0.000610352,1.02167,-0,-0.15213,0.30426,6.655e+06
-0.0343628,-0.000366211,1.01678,-0,-0,0.15213,6.655e+06
-0.0343628,-0.000366211,1.01678,-0,-0,0.15213,6.655e+06
-0.0339355,-0.000183105,1.01923,0.30426,0.15213,0.30426,6.655e+06
-0.0333862,0.00292969,1.01587,-0,-0,-0.15213,6.655e+06
-0.0333862,0.00292969,1.01587,-0,-0,-0.15213,6.655e+06
-0.0338745,-0.000671387,1.01862,-0,-0,-0.15213,6.655e+06
-0.0299683,-0.00201416,1.02228,0.15213,0.30426,0.45639,6.655e+06
-0.0299683,-0.00201416,1.02228,0.15213,0.30426,0.45639,6.655e+06
-0.0324707,0.000915527,1.02148,0.15213,0.15213,-0,6.655e+06
-0.0324707,-0.00012207,1.01459,-0,-0,-0,6.655e+06
-0.0324707,-0.00012207,1.01459,-0,-0,-0,6.655e+06
-0.0346069,0.000915527,1.01746,-0,-0,0.15213,6.655e+06
-0.0341797,0.00152588,1.01733,0.15213,0.15213,0.15213,6.655e+06
-0.0341797,0.00152588,1.01733,0.15213,0.15213,0.15213,6.655e+06
 -0.03302,0.000427246,1.02081,0.15213,0.15213,0.30426,6.655e+06
-0.0327759,-0.000732422,1.0191,0.30426,0.15213,0.30426,6.655e+06
-0.0327759,-0.000732422,1.0191,0.30426,0.15213,0.30426,6.655e+06
-0.0355835,0.00146484,1.01886,-0.30426,-0,0.15213,6.655e+06
-0.0338135,0.000610352,1.0191,-0.15213,-0,0.15213,6.655e+06
-0.0338135,0.000610352,1.0191,-0.15213,-0,0.15213,6.655e+06
-0.0343018,0.000793457,1.01849,-0,-0.30426,-0,6.655e+06
-0.0311279,-6.10352e-05,1.01947,0.15213,0.30426,-0,6.655e+06
-0.0311279,-6.10352e-05,1.01947,0.15213,0.30426,-0,6.655e+06
-0.0307007,-0.00164795,1.02228,-0,-0,0.45639,6.655e+06
-0.0332642,0.000793457,1.0202,-0,-0,0.15213,6.655e+06
-0.0332642,0.000793457,1.0202,-0,-0,0.15213,6.655e+06
 -0.03479,-0.000976562,1.01788,-0,-0,0.15213,6.655e+06
-0.036377,-0.000671387,1.02106,0.15213,0.15213,0.15213,6.655e+06
-0.036377,-0.000671387,1.02106,0.15213,0.15213,0.15213,6.655e+06
-0.0335693,0.00274658,1.01453,0.15213,0.15213,0.15213,6.655e+06
-0.0328979,-0.00274658,1.02313,-0,-0,-0,6.655e+06
-0.0328979,-0.00274658,1.02313,-0,-0,-0,6.655e+06
-0.0339355,-0.00109863,1.01807,0.15213,0.15213,0.15213,6.655e+06
-0.0354614,-0.000427246,1.01294,0.15213,0.30426,-0,6.655e+06
-0.0354614,-0.000427246,1.01294,0.15213,0.30426,-0,6.655e+06
-0.0345459,-6.10352e-05,1.0224,0.15213,0.15213,0.30426,6.655e+06
-0.0313721,-0.000793457,1.02161,0.15213,0.30426,0.30426,6.655e+06
-0.0313721,-0.000793457,1.02161,0.15213,0.30426,0.30426,6.655e+06
-0.032959,-0.0012207,1.02014,-0.30426,-0,0.45639,6.655e+06
-0.0337524,0.00109863,1.02148,0.15213,0.15213,0.15213,6.655e+06
-0.0337524,0.00109863,1.02148,0.15213,0.15213,0.15213,6.655e+06
-0.034729,-0.000244141,1.01428,-0,-0.15213,0.30426,6.655e+06
-0.0334473,-0.000244141,1.0155,-0.30426,-0.15213,0.45639,6.655e+06
-0.0334473,-0.000244141,1.0155,-0.30426,-0.15213,0.45639,6.655e+06
-0.0354004,0.000854492,1.01831,-0.15213,-0,0.30426,6.655e+06
-0.0348511,0.000732422,1.01996,-0,-0.15213,0.15213,6.655e+06
-0.0348511,0.000732422,1.01996,-0,-0.15213,0.15213,6.655e+06
-0.0314331,-0.0010376,1.01843,0.15213,0.30426,0.15213,6.655e+06
-0.0319824,-0.00164795,1.01721,0.15213,0.15213,0.15213,6.655e+06
-0.0319824,-0.00164795,1.01721,0.15213,0.15213,0.15213,6.655e+06
-0.0317993,-0.000671387,1.01703,0.15213,0.15213,0.15213,6.655e+06
 -0.03125,-0.000793457,1.0202,-0.15213,-0,0.30426,6.655e+06
 -0.03125,-0.000793457,1.0202,-0.15213,-0,0.30426,6.655e+06
-0.0332642,-0.00012207,1.02191,0.15213,0.30426,0.30426,6.655e+06
-0.032959,0.00177002,1.02655,-0,0.15213,-0,6.655e+06
-0.032959,0.00177002,1.02655,-0,0.15213,-0,6.655e+06
-0.0335083,-6.10352e-05,1.01801,-0.15213,-0,0.30426,6.655e+06
-0.032959,-0.0012207,1.02277,0.15213,0.15213,0.30426,6.655e+06
-0.032959,-0.0012207,1.02277,0.15213,0.15213,0.30426,6.655e+06
-0.0317383,-0.00201416,1.02057,0.15213,0.15213,0.30426,6.655e+06
-0.0348511,-0.000366211,1.02002,0.15213,0.15213,-0,6.655e+06
-0.0348511,-0.000366211,1.02002,0.15213,0.15213,-0,6.655e+06
-0.0328979,-0.000976562,1.01959,-0.15213,-0,0.15213,6.655e+06
-0.0353394,-0.000976562,1.02057,-0,-0.15213,0.45639,6.655e+06
-0.0353394,-0.000976562,1.02057,-0,-0.15213,0.45639,6.655e+06
-0.0346069,0.0010376,1.01666,-0,0.30426,0.15213,6.655e+06
-0.0331421,0.00012207,1.01648,-0,0.15213,0.15213,6.655e+06
-0.0331421,0.00012207,1.01648,-0,0.15213,0.15213,6.655e+06
-0.0336914,-0.00219727,1.02649,-0,0.30426,0.30426,6.655e+06
-0.0343018,-0.000793457,1.01941,-0.30426,-0,0.15213,6.655e+06
-0.0343018,-0.000793457,1.01941,-0.30426,-0,0.15213,6.655e+06
-0.034729,0.00280762,1.01886,-0.15213,-0.15213,0.45639,6.655e+06
-0.0350342,-6.10352e-05,1.0155,0.30426,0.30426,0.15213,6.655e+06
-0.0350342,-6.10352e-05,1.0155,0.30426,0.30426,0.15213,6.655e+06
-0.0358276,-0.00311279,1.01868,0.15213,0.15213,0.15213,6.655e+06
-0.032959,-0.000610352,1.02393,-0,0.15213,0.30426,6.655e+06
-0.032959,-0.000610352,1.02393,-0,0.15213,0.30426,6.655e+06
-0.0324097,0.000976562,1.01813,-0,0.15213,0.45639,6.655e+06
-0.0371094,0.00292969,1.01801,0.15213,0.15213,0.15213,6.655e+06
-0.0371094,0.00292969,1.01801,0.15213,0.15213,0.15213,6.655e+06
-0.0358887,-0.00128174,1.01971,-0,-0,0.15213,6.655e+06
-0.0343628,-0.00183105,1.02136,0.15213,0.30426,0.15213,6.655e+06
-0.0343628,-0.00183105,1.02136,0.15213,0.30426,0.15213,6.655e+06
-0.0349121,-0.00231934,1.01996,0.30426,0.30426,-0.15213,6.655e+06
-0.0375366,-0.00268555,1.01648,-0,0.15213,0.15213,6.655e+06
-0.0375366,-0.00268555,1.01648,-0,0.15213,0.15213,6.655e+06
-0.0341187,0.000793457,1.02039,0.15213,0.15213,0.45639,6.655e+06
-0.0334473,-0.00146484,1.0163,-0.15213,0.15213,-0,6.655e+06
-0.0334473,-0.00146484,1.0163,-0.15213,0.15213,-0,6.655e+06
-0.0321655,-6.10352e-05,1.01849,0.15213,0.30426,0.608521,6.655e+06
-0.0344238,0,1.01941,-0,-0,0.45639,6.655e+06
-0.0344238,0,1.01941,-0,-0,0.45639,6.655e+06
-0.0326538,0.00146484,1.02032,0.15213,-0,0.30426,6.655e+06
-0.0350342,-0.000183105,1.01501,-0.15213,0.30426,0.30426,6.655e+06
-0.0350342,-0.000183105,1.01501,-0.15213,0.30426,0.30426,6.655e+06
-0.0321045,0.00354004,1.01721,0.15213,0.15213,0.15213,6.655e+06
-0.0344238,-0.00213623,1.01917,-0,0.15213,0.45639,6.655e+06
-0.0344238,-0.00213623,1.01917,-0,0.15213,0.45639,6.655e+06
-0.0343018,-0.00177002,1.02417,-0,-0,0.30426,6.655e+06
-0.0343018,-0.000854492,1.01587,-0,-0.15213,0.30426,6.655e+06
-0.0343018,-0.000854492,1.01587,-0,-0.15213,0.30426,6.655e+06
-0.0372925,0.0012207,1.01819,0.15213,0.15213,-0.15213,6.655e+06
-0.0370483,0.000366211,1.02057,-0,-0.15213,-0,6.655e+06
-0.0370483,0.000366211,1.02057,-0,-0.15213,-0,6.655e+06
-0.0355225,0.000915527,1.02478,-0,-0,0.45639,6.655e+06
-0.0320435,6.10352e-05,1.01923,0.15213,0.45639,-0,6.655e+06
-0.0320435,6.10352e-05,1.01923,0.15213,0.45639,-0,6.655e+06
-0.0337524,-0.000671387,1.01941,-0.30426,-0,0.15213,6.655e+06
-0.0339966,0.000915527,1.0213,0.15213,0.15213,-0,6.655e+06
-0.0339966,0.000915527,1.0213,0.15213,0.15213,-0,6.655e+06
-0.0319824,0.000305176,1.0202,-0,-0,0.30426,6.655e+06
-0.0326538,-0.00292969,1.01831,0.15213,0.30426,-0,6.655e+06
-0.0326538,-0.00292969,1.01831,0.15213,0.30426,-0,6.655e+06
-0.0336304,-0.00115967,1.02057,0.15213,0.15213,0.30426,6.655e+06
-0.0316772,-0.000793457,1.01813,0.15213,0.15213,0.15213,6.655e+06
-0.0316772,-0.000793457,1.01813,0.15213,0.15213,0.15213,6.655e+06
-0.0338745,0.000244141,1.02039,-0,-0,0.15213,6.655e+06
-0.0369873,-0.000427246,1.01965,0.15213,0.15213,0.30426,6.655e+06
-0.0369873,-0.000427246,1.01965,0.15213,0.15213,0.30426,6.655e+06
-0.0333252,-0.000732422,1.01495,-0.15213,-0,0.30426,6.655e+06
-0.0344849,-0.000915527,1.01904,0.30426,0.15213,0.15213,6.655e+06
-0.0344849,-0.000915527,1.01904,0.30426,0.15213,0.15213,6.655e+06
-0.0339966,-0.000366211,1.02161,-0.30426,-0,0.15213,6.655e+06
-0.0341187,-0.000366211,1.01483,-0,-0.15213,0.15213,6.655e+06
-0.0341187,-0.000366211,1.01483,-0,-0.15213,0.15213,6.655e+06
-0.0355225,0.000488281,1.02179,0.30426,0.30426,0.45639,6.655e+06
-0.0316772,-0.0020752,1.01978,-0.15213,0.30426,0.15213,6.655e+06
-0.0316772,-0.0020752,1.01978,-0.15213,0.30426,0.15213,6.655e+06
-0.0325928,-0.000366211,1.03229,0.15213,0.912781,0.15213,6.655e+06
-0.0335083,-0.00366211,1.0199,0.15213,0.30426,0.15213,6.655e+06
-0.0335083,-0.00366211,1.0199,0.15213,0.30426,0.15213,6.655e+06
-0.0360107,-0.0010376,1.01642,-0.15213,-0.15213,0.30426,6.655e+06
 -0.03479,0.000915527,1.0144,-0,-0.15213,0.30426,6.655e+06
 -0.03479,0.000915527,1.0144,-0,-0.15213,0.30426,6.655e+06
-0.0324707,-0.000854492,1.0188,0.15213,0.30426,0.30426,6.655e+06
-0.0372314,-0.000366211,1.01898,-0,-0,-0,6.655e+06
-0.0372314,-0.000366211,1.01898,-0,-0,-0,6.655e+06
-0.0421753,0.0105591,0.935242,0.15213,-1.82556,0.30426,6.655e+06
-0.0428467,-0.0154419,0.907104,0.30426,-1.21704,0.45639,6.655e+06
-0.0428467,-0.0154419,0.907104,0.30426,-1.21704,0.45639,6.655e+06
-0.0441284,-0.00219727,0.944519,0.15213,0.45639,-0,6.655e+06
-0.0229492,-0.0110474,1.07233,0.30426,2.89047,0.30426,6.655e+06
-0.0229492,-0.0110474,1.07233,0.30426,2.89047,0.30426,6.655e+06
-0.0162964,-0.00671387,1.07404,0.15213,1.97769,0.30426,6.655e+06
-0.0339355,0.00463867,1.00311,-0,-1.21704,0.15213,6.655e+06
-0.0339355,0.00463867,1.00311,-0,-1.21704,0.15213,6.655e+06
-0.0392456,0.00244141,0.991028,-0,-1.06491,0.30426,6.655e+06
-0.0336304,0.00390625,1.02301,0.15213,0.30426,0.30426,6.655e+06
-0.0336304,0.00390625,1.02301,0.15213,0.30426,0.30426,6.655e+06
-0.0307617,-0.00280762,1.04004,-0,0.608521,-0,6.655e+06
 -0.03302,0.000366211,1.02271,0.15213,0.15213,-0,6.655e+06
 -0.03302,0.000366211,1.02271,0.15213,0.15213,-0,6.655e+06
-0.0363159,0.00469971,1.00793,-0,-0.45639,0.30426,6.655e+06
-0.0355835,0.00146484,0.997437,0.15213,-0.30426,0.30426,6.655e+06
-0.0355835,0.00146484,0.997437,0.15213,-0.30426,0.30426,6.655e+06
-0.034729,0.0010376,1.00891,0.15213,0.45639,0.15213,6.655e+06
-0.0338745,-0.00164795,1.03064,0.15213,0.760651,-0.15213,6.655e+06
-0.0338745,-0.00164795,1.03064,0.15213,0.760651,-0.15213,6.655e+06
-0.0366211,0.00927734,1.06024,-0.15213,0.912781,0.15213,6.655e+06
-0.0300293,-0.00152588,1.04065,0.15213,0.608521,0.15213,6.655e+06
-0.0300293,-0.00152588,1.04065,0.15213,0.608521,0.15213,6.655e+06
-0.034729,0.00439453,1.04065,-0,0.15213,0.15213,6.655e+06
-0.0378418,0.0045166,1.01892,0.15213,-0,0.45639,6.655e+06
-0.0378418,0.0045166,1.01892,0.15213,-0,0.45639,6.655e+06
-0.0369873,-0.00177002,1.01111,-0.45639,-0,0.30426,6.655e+06
-0.0350342,0.0045166,1.02448,0.15213,0.45639,0.30426,6.655e+06
-0.0350342,0.0045166,1.02448,0.15213,0.45639,0.30426,6.655e+06
-0.0335693,-0.00177002,1.02509,0.15213,0.30426,0.30426,6.655e+06
-0.0354614,0.00244141,1.01416,-0.30426,-0.30426,0.30426,6.655e+06
-0.0354614,0.00244141,1.01416,-0.30426,-0.30426,0.30426,6.655e+06
-0.0333862,-0.0043335,1.01465,-0,-0.45639,0.15213,6.655e+06
-0.0331421,-0.000488281,1.02118,0.15213,0.30426,0.30426,6.655e+06
-0.0331421,-0.000488281,1.02118,0.15213,0.30426,0.30426,6.655e+06
-0.0319214,-0.00158691,1.02985,0.15213,0.15213,0.30426,6.655e+06
-0.031311,-0.000305176,1.0202,0.15213,0.30426,0.15213,6.655e+06
-0.031311,-0.000305176,1.0202,0.15213,0.30426,0.15213,6.655e+06
-0.0321655,0.000549316,1.02332,-0,-0,0.30426,6.655e+06
-0.0339355,-0.000488281,1.01483,-0.15213,-0.30426,0.30426,6.655e+06
-0.0339355,-0.000488281,1.01483,-0.15213,-0.30426,0.30426,6.655e+06
-0.0343628,0.0010376,1.01831,0.15213,0.15213,0.15213,6.655e+06
-0.0307007,-0.00189209,1.02478,-0,0.15213,0.45639,6.655e+06
-0.0307007,-0.00189209,1.02478,-0,0.15213,0.45639,6.655e+06
-0.0317383,-0.00238037,1.02594,0.15213,0.15213,0.15213,6.655e+06
-0.0365601,0.00177002,1.02203,-0,-0.30426,0.30426,6.655e+06
-0.0365601,0.00177002,1.02203,-0,-0.30426,0.30426,6.655e+06
-0.0342407,0.000976562,1.02136,0.15213,0.15213,0.15213,6.655e+06
-0.0332031,-0.00335693,1.01617,0.15213,0.15213,0.15213,6.655e+06
-0.0332031,-0.00335693,1.01617,0.15213,0.15213,0.15213,6.655e+06
-0.0341187,-0.00195312,1.02094,-0.30426,-0,0.30426,6.655e+06
-0.0348511,-6.10352e-05,1.02429,0.15213,0.30426,0.30426,6.655e+06
-0.0348511,-6.10352e-05,1.02429,0.15213,0.30426,0.30426,6.655e+06
-0.0331421,-0.000854492,1.02374,-0.30426,-0,0.15213,6.655e+06
-0.0374756,-0.00323486,1.01501,-0.15213,-0,0.30426,6.655e+06
-0.0374756,-0.00323486,1.01501,-0.15213,-0,0.30426,6.655e+06
-0.0338745,0.00183105,1.01483,-0,-0.30426,0.15213,6.655e+06
-0.0342407,-0.00128174,1.01996,0.15213,0.15213,0.45639,6.655e+06
-0.0342407,-0.00128174,1.01996,0.15213,0.15213,0.45639,6.655e+06
 -0.03302,-0.00219727,1.0202,-0.30426,-0,0.15213,6.655e+06
-0.0332031,-0.010376,0.963013,-0.15213,-0,0.15213,6.655e+06
-0.0332031,-0.010376,0.963013,-0.15213,-0,0.15213,6.655e+06
-0.0462646,0.00994873,1.03235,0.912781,5.02029,0.30426,6.655e+06
0.000183105,-0.0291748,1.09955,0.30426,5.93307,0.45639,6.655e+06
0.000183105,-0.0291748,1.09955,0.30426,5.93307,0.45639,6.655e+06
 0.003479,-0.00408936,1.28796,0.760651,8.82355,0.45639,6.655e+06
-0.0137939,0.0057373,1.12372,0.15213,1.5213,0.15213,6.655e+06
-0.0137939,0.0057373,1.12372,0.15213,1.5213,0.15213,6.655e+06
-0.039978,-0.00994873,0.972839,-0.30426,-3.0426,0.30426,6.655e+06
-0.0561523,0.0203857,0.949585,-0,-2.73834,0.608521,6.655e+06
-0.0561523,0.0203857,0.949585,-0,-2.73834,0.608521,6.655e+06
-0.0323486,-0.000671387,1.02563,-0,0.45639,0.15213,6.655e+06
-0.0308228,-0.0020752,1.05139,0.30426,1.21704,0.30426,6.655e+06
-0.0308228,-0.0020752,1.05139,0.30426,1.21704,0.30426,6.655e+06
-0.0305786,-0.000915527,1.00049,-0,-0.30426,-0,6.655e+06
-0.0404053,-0.00268555,0.983215,-0.30426,-1.06491,-0.15213,6.655e+06
-0.0404053,-0.00268555,0.983215,-0.30426,-1.06491,-0.15213,6.655e+06
-0.034668,0.0010376,0.985596,-0,-0.45639,0.15213,6.655e+06
-0.0282593,-0.00604248,1.03143,-0,0.760651,0.45639,6.655e+06
-0.0282593,-0.00604248,1.03143,-0,0.760651,0.45639,6.655e+06
-0.0270386,-0.00396729,1.05499,0.15213,1.21704,0.15213,6.655e+06
-0.0296631,-0.00396729,1.02887,0.15213,0.608521,0.30426,6.655e+06
-0.0296631,-0.00396729,1.02887,0.15213,0.608521,0.30426,6.655e+06
-0.0362549,-0.00109863,1.02448,-0.15213,-0.30426,-0,6.655e+06
-0.0362549,0.00244141,1.00781,-0,-0.15213,0.30426,6.655e+06
-0.0362549,0.00244141,1.00781,-0,-0.15213,0.30426,6.655e+06
-0.0333862,-0.000732422,1.02734,0.30426,0.30426,0.30426,6.655e+06
-0.0321655,-0.000183105,1.02625,0.15213,0.30426,-0,6.655e+06
-0.0321655,-0.000183105,1.02625,0.15213,0.30426,-0,6.655e+06
-0.0352173,0.000610352,1.01794,-0.30426,-0,0.15213,6.655e+06
-0.0333862,-0.000671387,1.01782,-0,-0,0.15213,6.655e+06
-0.0333862,-0.000671387,1.01782,-0,-0,0.15213,6.655e+06
-0.0355835,-0.000183105,1.0152,-0.30426,-0,-0,6.655e+06
-0.0340576,-0.00231934,1.01782,0.15213,0.608521,-0,6.655e+06
-0.0340576,-0.00231934,1.01782,0.15213,0.608521,-0,6.655e+06
-0.0319824,-0.00274658,1.01556,0.15213,0.45639,-0,6.655e+06
-0.0303955,-0.00140381,1.02502,0.15213,0.30426,0.30426,6.655e+06
-0.0303955,-0.00140381,1.02502,0.15213,0.30426,0.30426,6.655e+06
-0.0358276,-0.000366211,1.02435,-0.30426,-0,-0,6.655e+06
-0.0375366,-0.00109863,1.01044,-0.15213,-0.30426,0.45639,6.655e+06
-0.0375366,-0.00109863,1.01044,-0.15213,-0.30426,0.45639,6.655e+06
-0.0309448,0.000488281,1.01746,0.15213,0.30426,0.15213,6.655e+06
-0.0361328,-0.000183105,1.02032,0.15213,0.15213,0.30426,6.655e+06
-0.0361328,-0.000183105,1.02032,0.15213,0.15213,0.30426,6.655e+06
-0.0339966,-0.000915527,1.02295,0.30426,0.45639,0.15213,6.655e+06
-0.032959,0.00012207,1.02649,0.30426,0.30426,0.30426,6.655e+06
-0.032959,0.00012207,1.02649,0.30426,0.30426,0.30426,6.655e+06
-0.0336304,-0.00012207,1.02002,-0,0.30426,0.30426,6.655e+06
-0.0369873,-0.0022583,1.02197,-0.15213,0.15213,0.30426,6.655e+06
-0.0369873,-0.0022583,1.02197,-0.15213,0.15213,0.30426,6.655e+06
-0.0332031,-0.00109863,1.01752,0.15213,-0,0.30426,6.655e+06
-0.0374146,0.000183105,1.01855,-0.15213,0.15213,0.15213,6.655e+06
-0.0374146,0.000183105,1.01855,-0.15213,0.15213,0.15213,6.655e+06
-0.0335693,0,1.01672,0.15213,0.30426,0.15213,6.655e+06
-0.0332031,0.00164795,1.01715,0.15213,0.15213,0.15213,6.655e+06
-0.0332031,0.00164795,1.01715,0.15213,0.15213,0.15213,6.655e+06
-0.0343628,-0.00012207,1.02087,-0.15213,-0,0.15213,6.655e+06
-0.0340576,-0.00134277,1.01849,0.15213,0.608521,-0,6.655e+06
-0.0340576,-0.00134277,1.01849,0.15213,0.608521,-0,6.655e+06
-0.0336914,-0.0010376,1.02203,-0,-0,0.15213,6.655e+06
-0.0351562,0.000854492,1.0163,-0,-0.15213,0.15213,6.655e+06
-0.0351562,0.000854492,1.0163,-0,-0.15213,0.15213,6.655e+06
 -0.03302,-0.0022583,1.01849,-0,0.30426,0.15213,6.655e+06
-0.0342407,-0.00268555,1.02039,-0,-0,0.30426,6.655e+06
-0.0342407,-0.00268555,1.02039,-0,-0,0.30426,6.655e+06
-0.0321045,-0.000366211,1.01862,-0,-0.15213,0.45639,6.655e+06
-0.0348511,0.000549316,1.01819,-0.15213,-0.15213,0.30426,6.655e+06
-0.0348511,0.000549316,1.01819,-0.15213,-0.15213,0.30426,6.655e+06
-0.0314941,-0.00256348,1.01984,0.608521,0.15213,0.608521,6.655e+06
-0.0321655,0.000915527,1.0177,-0,-0,0.30426,6.655e+06
-0.0321655,0.000915527,1.0177,-0,-0,0.30426,6.655e+06
-0.0328369,-0.00189209,1.01849,-0,-0,-0.15213,6.655e+06
-0.0333252,0.000183105,1.02716,0.15213,-0,-0,6.655e+06
-0.0333252,0.000183105,1.02716,0.15213,-0,-0,6.655e+06
-0.0317383,0.000427246,1.02332,0.15213,0.45639,0.15213,6.655e+06
-0.0350952,0.00152588,1.01514,-0,-0,0.45639,6.655e+06
-0.0350952,0.00152588,1.01514,-0,-0,0.45639,6.655e+06
-0.0346069,0.000244141,1.01733,-0.15213,-0.15213,0.30426,6.655e+06
-0.0307007,-0.00158691,1.01703,-0,0.15213,0.15213,6.655e+06
-0.0307007,-0.00158691,1.01703,-0,0.15213,0.15213,6.655e+06
-0.0324707,-0.00286865,1.02173,-0,0.30426,0.45639,6.655e+06
-0.0358276,0.000488281,1.01672,0.15213,0.15213,0.30426,6.655e+06
-0.0358276,0.000488281,1.01672,0.15213,0.15213,0.30426,6.655e+06
-0.0334473,-0.000976562,1.01807,0.15213,0.15213,0.30426,6.655e+06
-0.0338135,-0.000793457,1.02063,0.15213,0.30426,0.15213,6.655e+06
-0.0338135,-0.000793457,1.02063,0.15213,0.30426,0.15213,6.655e+06
-0.031189,0.00213623,1.02203,-0.15213,0.30426,-0,6.655e+06
-0.0315552,-0.000549316,1.02515,0.15213,0.30426,0.15213,6.655e+06
-0.0315552,-0.000549316,1.02515,0.15213,0.30426,0.15213,6.655e+06
-0.0344849,-0.000976562,1.02118,-0,-0,0.15213,6.655e+06
-0.0352173,-0.00231934,1.0202,-0,-0,-0,6.655e+06
-0.0352173,-0.00231934,1.0202,-0,-0,-0,6.655e+06
-0.0348511,-0.000549316,1.02258,-0,-0.15213,0.15213,6.655e+06
-0.0330811,-0.000488281,1.01709,0.15213,0.45639,-0,6.655e+06
-0.0330811,-0.000488281,1.01709,0.15213,0.45639,-0,6.655e+06
-0.0336914,0.00164795,1.01746,0.15213,0.15213,-0.15213,6.655e+06
-0.036377,0.000183105,1.01874,0.15213,-0,0.15213,6.655e+06
-0.036377,0.000183105,1.01874,0.15213,-0,0.15213,6.655e+06
-0.0344849,0.00170898,1.02112,-0,-0,0.30426,6.655e+06
-0.0352173,-0.00238037,1.01465,-0.45639,-0,-0,6.655e+06
-0.0352173,-0.00238037,1.01465,-0.45639,-0,-0,6.655e+06
-0.031189,0.00134277,1.01831,0.15213,0.30426,-0,6.655e+06
-0.0330811,0.000549316,1.02344,0.15213,0.15213,0.30426,6.655e+06
-0.0330811,0.000549316,1.02344,0.15213,0.15213,0.30426,6.655e+06
-0.0341187,-0.00213623,1.026,0.15213,0.45639,0.30426,6.655e+06
-0.0319214,0.000915527,1.01569,0.15213,0.15213,-0.15213,6.655e+06
-0.0319214,0.000915527,1.01569,0.15213,0.15213,-0.15213,6.655e+06
-0.0298462,-0.00164795,1.01636,-0,-0.15213,-0,6.655e+06
-0.0318604,0.00134277,1.02032,0.15213,0.15213,0.15213,6.655e+06
-0.0318604,0.00134277,1.02032,0.15213,0.15213,0.15213,6.655e+06
-0.0323486,-0.000366211,1.02148,0.15213,0.15213,-0,6.655e+06
-0.0335083,-0.00238037,1.02112,0.15213,0.15213,0.45639,6.655e+06
-0.0335083,-0.00238037,1.02112,0.15213,0.15213,0.45639,6.655e+06
-0.032959,-0.00012207,1.01978,-0.15213,-0.15213,-0,6.655e+06
-0.0343628,0.00238037,1.02197,-0,-0,0.30426,6.655e+06
-0.0343628,0.00238037,1.02197,-0,-0,0.30426,6.655e+06
-0.0356445,-0.00183105,1.02246,0.15213,0.15213,0.15213,6.655e+06
-0.0336914,-0.000183105,1.01587,0.15213,-0,0.30426,6.655e+06
-0.0336914,-0.000183105,1.01587,0.15213,-0,0.30426,6.655e+06
-0.0335083,-0.000183105,1.02222,0.30426,0.608521,0.30426,6.655e+06
-0.032959,-0.0012207,1.02057,0.15213,0.30426,0.30426,6.655e+06
-0.032959,-0.0012207,1.02057,0.15213,0.30426,0.30426,6.655e+06
-0.0332031,-0.00012207,1.02344,-0.15213,-0.15213,0.30426,6.655e+06
-0.0328979,-0.000305176,1.01801,-0,0.15213,-0,6.655e+06
-0.0328979,-0.000305176,1.01801,-0,0.15213,-0,6.655e+06
 -0.03479,-0.00262451,1.01782,0.15213,0.15213,0.30426,6.655e+06
-0.0348511,-0.00299072,1.0199,-0.30426,-0,0.15213,6.655e+06
-0.0348511,-0.00299072,1.0199,-0.30426,-0,0.15213,6.655e+06
-0.0318604,-0.000305176,1.02252,-0.30426,-0,0.30426,6.655e+06
-0.0349731,-0.000915527,1.02167,0.15213,0.30426,0.608521,6.655e+06
-0.0349731,-0.000915527,1.02167,0.15213,0.30426,0.608521,6.655e+06
-0.0345459,0.000549316,1.02234,-0,-0.15213,0.45639,6.655e+06
-0.0333862,0.000915527,1.02124,0.15213,0.15213,-0,6.655e+06
-0.0333862,0.000915527,1.02124,0.15213,0.15213,-0,6.655e+06
-0.034668,-0.000427246,1.02136,-0.30426,-0,0.45639,6.655e+06
-0.0349731,-0.000183105,1.01892,-0,-0,0.30426,6.655e+06
-0.0349731,-0.000183105,1.01892,-0,-0,0.30426,6.655e+06
-0.0341797,0.000732422,1.01868,0.15213,0.30426,0.30426,6.655e+06
-0.0336304,-0.0010376,1.02155,0.15213,0.15213,0.30426,6.655e+06
-0.0336304,-0.0010376,1.02155,0.15213,0.15213,0.30426,6.655e+06
-0.036438,0.00146484,1.02344,0.15213,-0,-0,6.655e+06
-0.0339966,-0.00219727,1.01886,-0,-0,0.30426,6.655e+06
-0.0339966,-0.00219727,1.01886,-0,-0,0.30426,6.655e+06
-0.0314941,-0.0012207,1.02045,-0,-0,0.608521,6.655e+06
-0.0325928,-0.000549316,1.01782,0.15213,0.15213,0.30426,6.655e+06
-0.0325928,-0.000549316,1.01782,0.15213,0.15213,0.30426,6.655e+06
-0.0325928,0.00183105,1.02539,-0,0.45639,-0.15213,6.655e+06
-0.0355225,0.000488281,1.02197,0.15213,0.608521,0.45639,6.655e+06
-0.0355225,0.000488281,1.02197,0.15213,0.608521,0.45639,6.655e+06
-0.0335693,0.000549316,1.01868,-0,0.15213,0.15213,6.655e+06
-0.0344238,0.000793457,1.01831,-0.15213,0.15213,0.15213,6.655e+06
-0.0344238,0.000793457,1.01831,-0.15213,0.15213,0.15213,6.655e+06
-0.0336914,0.000244141,1.01923,0.15213,0.30426,0.15213,6.655e+06
-0.0324707,-0.000915527,1.02002,-0,-0,0.30426,6.655e+06
-0.0324707,-0.000915527,1.02002,-0,-0,0.30426,6.655e+06
-0.0327759,0.000366211,1.01886,-0.15213,-0.15213,0.15213,6.655e+06
-0.0322876,-0.000915527,1.02142,-0,-0,-0.15213,6.655e+06
-0.0322876,-0.000915527,1.02142,-0,-0,-0.15213,6.655e+06
-0.0319214,0,1.01672,-0,0.15213,0.15213,6.655e+06
-0.0338135,-0.00189209,1.01923,-0.15213,-0,-0,6.655e+06
-0.0338135,-0.00189209,1.01923,-0.15213,-0,-0,6.655e+06
-0.0341797,-0.000610352,1.01874,0.15213,0.30426,0.30426,6.655e+06
-0.0331421,0.00195312,1.0191,0.30426,0.30426,0.45639,6.655e+06
-0.0331421,0.00195312,1.0191,0.30426,0.30426,0.45639,6.655e+06
-0.0328369,0.00134277,1.02069,0.15213,0.30426,0.15213,6.655e+06
-0.0340576,6.10352e-05,1.01947,-0,-0,0.45639,6.655e+06
-0.0340576,6.10352e-05,1.01947,-0,-0,0.45639,6.655e+06
-0.0339355,0.000366211,1.01398,0.15213,0.15213,0.30426,6.655e+06
-0.0336304,0.00274658,1.01514,0.15213,0.15213,0.30426,6.655e+06
-0.0336304,0.00274658,1.01514,0.15213,0.15213,0.30426,6.655e+06
-0.0319214,0.000671387,1.01874,-0,0.45639,0.15213,6.655e+06
-0.0326538,-0.00286865,1.01953,0.15213,0.30426,0.45639,6.655e+06
-0.0326538,-0.00286865,1.01953,0.15213,0.30426,0.45639,6.655e+06
 -0.03302,-0.00286865,1.021,-0,-0.15213,0.30426,6.655e+06
-0.0331421,-6.10352e-05,1.01965,-0,-0,0.45639,6.655e+06
-0.0331421,-6.10352e-05,1.01965,-0,-0,0.45639,6.655e+06
-0.0328369,-0.0010376,1.02356,0.30426,0.30426,0.15213,6.655e+06
-0.0316162,0.00195312,1.0188,0.15213,0.30426,0.15213,6.655e+06
-0.0316162,0.00195312,1.0188,0.15213,0.30426,0.15213,6.655e+06
-0.0335693,0.000549316,1.02087,0.30426,0.15213,0.15213,6.655e+06
-0.0342407,0.000610352,1.02173,-0,-0,0.15213,6.655e+06
-0.0342407,0.000610352,1.02173,-0,-0,0.15213,6.655e+06
-0.0325317,0.000671387,1.01733,-0,-0,0.15213,6.655e+06
-0.0344238,0.000610352,1.01685,0.15213,0.30426,0.30426,6.655e+06
-0.0344238,0.000610352,1.01685,0.15213,0.30426,0.30426,6.655e+06
-0.0339966,0.000305176,1.01843,0.15213,0.15213,-0,6.655e+06
-0.0343018,-0.00250244,1.02264,0.45639,0.15213,-0.15213,6.655e+06
-0.0343018,-0.00250244,1.02264,0.45639,0.15213,-0.15213,6.655e+06
-0.0330811,-0.00158691,1.0246,0.15213,0.45639,0.15213,6.655e+06
-0.032959,0.000305176,1.01953,-0,-0,0.45639,6.655e+06
-0.032959,0.000305176,1.01953,-0,-0,0.45639,6.655e+06
-0.0336304,-0.00140381,1.01447,-0,-0,0.15213,6.655e+06
-0.0355225,6.10352e-05,1.01849,-0.30426,-0,0.15213,6.655e+06
-0.0355225,6.10352e-05,1.01849,-0.30426,-0,0.15213,6.655e+06
-0.034729,-0.00109863,1.01996,-0,-0,0.15213,6.655e+06
-0.0357666,6.10352e-05,1.02075,-0,0.15213,0.45639,6.655e+06
-0.0357666,6.10352e-05,1.02075,-0,0.15213,0.45639,6.655e+06
-0.0350952,0.000671387,1.02124,-0.30426,-0,0.15213,6.655e+06
-0.0336914,-0.00262451,1.01459,0.15213,0.15213,0.15213,6.655e+06
-0.0336914,-0.00262451,1.01459,0.15213,0.15213,0.15213,6.655e+06
-0.0318604,6.10352e-05,1.01831,0.45639,0.30426,-0,6.655e+06
-0.0338745,0.00323486,1.02441,0.30426,0.30426,0.30426,6.655e+06
-0.0338745,0.00323486,1.02441,0.30426,0.30426,0.30426,6.655e+06
-0.0308228,0.000427246,1.02057,0.15213,0.30426,0.30426,6.655e+06
-0.0313721,-0.00189209,1.01672,0.15213,0.30426,0.30426,6.655e+06
-0.0313721,-0.00189209,1.01672,0.15213,0.30426,0.30426,6.655e+06
-0.0310059,-0.0010376,1.01746,-0,-0.15213,-0,6.655e+06
 -0.03302,-0.000244141,1.01801,-0,0.15213,0.15213,6.655e+06
 -0.03302,-0.000244141,1.01801,-0,0.15213,0.15213,6.655e+06
-0.0349121,0.000549316,1.02045,-0.45639,-0.15213,0.15213,6.655e+06
-0.0303345,-0.000915527,1.02472,0.15213,0.15213,0.30426,6.655e+06
-0.0303345,-0.000915527,1.02472,0.15213,0.15213,0.30426,6.655e+06
-0.0321045,0.00140381,1.02075,0.15213,0.45639,0.15213,6.655e+06
-0.0351562,-0.000549316,1.01465,0.15213,0.15213,0.15213,6.655e+06
-0.0351562,-0.000549316,1.01465,0.15213,0.15213,0.15213,6.655e+06
-0.0338135,0.000427246,1.01923,-0,-0.15213,0.15213,6.655e+06
-0.0323486,0.000183105,1.02209,-0.15213,-0,0.45639,6.655e+06
-0.0323486,0.000183105,1.02209,-0.15213,-0,0.45639,6.655e+06
-0.0319824,0.00012207,1.02045,0.15213,0.15213,0.15213,6.655e+06
-0.0350952,-0.0022583,1.01971,0.15213,0.15213,0.15213,6.655e+06
-0.0350952,-0.0022583,1.01971,0.15213,0.15213,0.15213,6.655e+06
-0.0357056,-0.00305176,1.01111,-0.15213,-0.15213,0.30426,6.655e+06
-0.0333252,0.000854492,1.02203,0.15213,0.45639,0.15213,6.655e+06
-0.0333252,0.000854492,1.02203,0.15213,0.45639,0.15213,6.655e+06
-0.0333252,6.10352e-05,1.02362,-0.15213,-0.30426,0.30426,6.655e+06
-0.0322876,-0.00372314,1.01593,0.15213,0.15213,0.15213,6.655e+06
-0.0322876,-0.00372314,1.01593,0.15213,0.15213,0.15213,6.655e+06
-0.0351562,6.10352e-05,1.02478,-0.30426,-0.15213,0.15213,6.655e+06
-0.0317993,-0.000854492,1.01562,0.15213,0.15213,0.30426,6.655e+06
-0.0317993,-0.000854492,1.01562,0.15213,0.15213,0.30426,6.655e+06
-0.0355835,0.000793457,1.01801,-0,-0,0.45639,6.655e+06
-0.0349731,0,1.01691,0.15213,0.15213,-0,6.655e+06
-0.0349731,0,1.01691,0.15213,0.15213,-0,6.655e+06
-0.0366211,-0.000305176,1.02228,0.15213,0.15213,0.15213,6.655e+06
-0.0376587,-0.00177002,1.02014,-0,-0,0.15213,6.655e+06
-0.0376587,-0.00177002,1.02014,-0,-0,0.15213,6.655e+06
-0.0327759,0.000854492,1.01849,-0,-0.15213,0.15213,6.655e+06
-0.0331421,-0.000549316,1.01904,0.15213,0.15213,0.45639,6.655e+06
-0.0331421,-0.000549316,1.01904,0.15213,0.15213,0.45639,6.655e+06
-0.0358887,0.00158691,1.0174,-0,0.15213,0.15213,6.655e+06
-0.038269,-0.0055542,1.01666,-0,-0.15213,0.15213,6.655e+06
-0.038269,-0.0055542,1.01666,-0,-0.15213,0.15213,6.655e+06
-0.0303345,-0.000671387,1.02325,0.15213,0.30426,0.15213,6.655e+06
-0.0346069,0.00280762,1.01428,-0,-0,0.30426,6.655e+06
-0.0346069,0.00280762,1.01428,-0,-0,0.30426,6.655e+06
-0.0333252,0.00268555,1.02173,-0,-0,0.15213,6.655e+06
-0.0324097,0.000732422,1.02332,0.15213,0.30426,-0,6.655e+06
-0.0324097,0.000732422,1.02332,0.15213,0.30426,-0,6.655e+06
-0.0337524,-6.10352e-05,1.02356,-0,0.30426,0.15213,6.655e+06
-0.0345459,-0.00146484,1.01025,-0.30426,-0.45639,0.15213,6.655e+06
-0.0345459,-0.00146484,1.01025,-0.30426,-0.45639,0.15213,6.655e+06
-0.0330811,0.00457764,1.03265,0.15213,0.15213,0.30426,6.655e+06
-0.0344849,-0.00592041,1.0152,-0,-0.15213,-0.15213,6.655e+06
-0.0344849,-0.00592041,1.0152,-0,-0.15213,-0.15213,6.655e+06
-0.036377,-0.000183105,1.01025,-0,-0.30426,0.30426,6.655e+06
-0.0296631,-0.00622559,1.02795,-0.15213,0.15213,0.15213,6.655e+06
-0.0296631,-0.00622559,1.02795,-0.15213,0.15213,0.15213,6.655e+06
-0.0297241,-0.00268555,1.01575,0.15213,0.30426,0.15213,6.655e+06
-0.0341187,-0.000366211,1.01624,-0.15213,-0.15213,0.15213,6.655e+06
-0.0341187,-0.000366211,1.01624,-0.15213,-0.15213,0.15213,6.655e+06
-0.0359497,0.0012207,1.02679,-0.15213,0.30426,0.30426,6.655e+06
-0.031311,0.000854492,1.02118,0.15213,0.30426,0.30426,6.655e+06
-0.031311,0.000854492,1.02118,0.15213,0.30426,0.30426,6.655e+06
-0.0321045,-0.000244141,1.02515,-0.15213,-0.15213,0.30426,6.655e+06
-0.0430298,0.0107422,1.0271,0.15213,0.45639,-0,6.655e+06
-0.0430298,0.0107422,1.0271,0.15213,0.45639,-0,6.655e+06
-0.0338135,0.00177002,1.02295,-0,0.30426,0.30426,6.655e+06
-0.0336304,0.00231934,1.02789,0.30426,0.30426,-0,6.655e+06
-0.0336304,0.00231934,1.02789,0.30426,0.30426,-0,6.655e+06
-0.0362549,-0.00506592,1.02368,-0,-0.15213,0.45639,6.655e+06
-0.0313721,0.000305176,1.02148,0.15213,0.30426,0.15213,6.655e+06
-0.0313721,0.000305176,1.02148,0.15213,0.30426,0.15213,6.655e+06
-0.0307617,0.00115967,1.0285,0.15213,0.608521,0.15213,6.655e+06
-0.0304565,-0.00482178,1.00531,0.15213,0.15213,0.15213,6.655e+06
-0.0304565,-0.00482178,1.00531,0.15213,0.15213,0.15213,6.655e+06
-0.032959,0.0067749,1.01367,0.15213,0.608521,0.15213,6.655e+06
-0.0323486,-0.00640869,1.03351,0.15213,0.608521,0.45639,6.655e+06
-0.0323486,-0.00640869,1.03351,0.15213,0.608521,0.45639,6.655e+06
-0.0355225,0.00305176,1.03485,0.30426,0.760651,0.30426,6.655e+06
-0.0310669,-0.00396729,1.02136,-0,-0,0.45639,6.655e+06
-0.0310669,-0.00396729,1.02136,-0,-0,0.45639,6.655e+06
-0.0344238,0.00140381,1.01117,-0.30426,-0.30426,0.15213,6.655e+06
-0.0367432,-0.00250244,1.01721,-0,0.15213,0.15213,6.655e+06
-0.0367432,-0.00250244,1.01721,-0,0.15213,0.15213,6.655e+06
-0.0345459,-0.00152588,1.02844,0.15213,0.45639,0.30426,6.655e+06
-0.0328369,-0.000671387,1.01947,-0,0.15213,-0.15213,6.655e+06
-0.0328369,-0.000671387,1.01947,-0,0.15213,-0.15213,6.655e+06
-0.0368042,-0.00280762,1.0224,-0.15213,-0.30426,0.15213,6.655e+06
-0.0333862,0.00195312,1.01562,-0.15213,0.30426,0.30426,6.655e+06
-0.0333862,0.00195312,1.01562,-0.15213,0.30426,0.30426,6.655e+06
-0.0334473,0.00170898,1.02411,-0.15213,-0,0.15213,6.655e+06
-0.0322266,-0.000305176,1.02625,0.15213,0.15213,0.30426,6.655e+06
-0.0322266,-0.000305176,1.02625,0.15213,0.15213,0.30426,6.655e+06
-0.0322266,0.000366211,1.01434,0.15213,0.15213,0.15213,6.655e+06
-0.0371094,0.00238037,1.02222,-0.30426,-0.15213,0.15213,6.655e+06
-0.0371094,0.00238037,1.02222,-0.30426,-0.15213,0.15213,6.655e+06
-0.0352783,-0.00134277,1.02271,0.15213,0.15213,0.15213,6.655e+06
-0.0328369,-0.00366211,1.0155,0.15213,0.30426,-0,6.655e+06
-0.0328369,-0.00366211,1.0155,0.15213,0.30426,-0,6.655e+06
 -0.03302,-0.00219727,1.02045,-0.15213,-0,0.30426,6.655e+06
-0.0316162,-0.00189209,1.01862,-0.15213,0.15213,-0,6.655e+06
-0.0316162,-0.00189209,1.01862,-0.15213,0.15213,-0,6.655e+06
-0.0345459,-0.00152588,1.02008,0.45639,0.45639,0.30426,6.655e+06
-0.0336304,-0.000976562,1.01123,0.15213,0.30426,-0,6.655e+06
-0.0336304,-0.000976562,1.01123,0.15213,0.30426,-0,6.655e+06
-0.0328979,0.00219727,1.01477,0.15213,0.30426,0.15213,6.655e+06
-0.0322266,0.0022583,1.02283,-0.15213,-0,-0,6.655e+06
-0.0322266,0.0022583,1.02283,-0.15213,-0,-0,6.655e+06
-0.032959,0.000610352,1.02448,0.15213,0.608521,0.30426,6.655e+06
-0.0326538,0.00109863,1.01404,0.15213,0.30426,0.15213,6.655e+06
-0.0326538,0.00109863,1.01404,0.15213,0.30426,0.15213,6.655e+06
-0.0330811,-0.00231934,1.01495,-0,-0.15213,0.30426,6.655e+06
-0.0361328,-0.00311279,1.01807,0.15213,0.30426,-0,6.655e+06
-0.0361328,-0.00311279,1.01807,0.15213,0.30426,-0,6.655e+06
-0.0343628,-0.00115967,1.02106,0.15213,0.30426,-0.15213,6.655e+06
-0.0328369,-0.000183105,1.01855,0.15213,0.15213,0.15213,6.655e+06
-0.0328369,-0.000183105,1.01855,0.15213,0.15213,0.15213,6.655e+06
-0.0358887,-0.00012207,1.01917,0.15213,0.30426,0.15213,6.655e+06
-0.0331421,0.000793457,1.01837,0.15213,0.30426,0.15213,6.655e+06
-0.0331421,0.000793457,1.01837,0.15213,0.30426,0.15213,6.655e+06
-0.0349121,0.00170898,1.01819,0.15213,0.15213,0.45639,6.655e+06
-0.0348511,0.00262451,1.01508,0.15213,0.15213,0.15213,6.655e+06
-0.0348511,0.00262451,1.01508,0.15213,0.15213,0.15213,6.655e+06
-0.0328369,0.00128174,1.02295,-0.15213,-0,-0,6.655e+06
 -0.03479,0.000610352,1.02094,0.15213,0.15213,0.30426,6.655e+06
 -0.03479,0.000610352,1.02094,0.15213,0.15213,0.30426,6.655e+06
-0.0350952,-0.00262451,1.02386,-0.15213,-0,0.15213,6.655e+06
-0.0322266,-0.0032959,1.01636,-0,-0.30426,0.30426,6.655e+06
-0.0322266,-0.0032959,1.01636,-0,-0.30426,0.30426,6.655e+06
-0.0345459,-0.00274658,1.01727,-0.15213,-0,0.45639,6.655e+06
 -0.03479,-0.00427246,1.0152,0.15213,0.15213,-0,6.655e+06
 -0.03479,-0.00427246,1.0152,0.15213,0.15213,-0,6.655e+06
-0.0352173,0.00170898,1.01593,-0,-0.15213,-0.15213,6.655e+06
-0.0377197,-0.000915527,1.01587,0.15213,0.30426,0.30426,6.655e+06
-0.0377197,-0.000915527,1.01587,0.15213,0.30426,0.30426,6.655e+06
-0.0318604,0.000671387,1.02112,0.30426,0.30426,0.15213,6.655e+06
-0.0323486,0.00195312,1.02008,-0,-0,0.30426,6.655e+06
-0.0323486,0.00195312,1.02008,-0,-0,0.30426,6.655e+06
-0.0341797,-0.000671387,1.02094,0.15213,0.45639,-0,6.655e+06
-0.0322876,-0.00354004,1.01947,0.15213,0.30426,0.15213,6.655e+06
-0.0322876,-0.00354004,1.01947,0.15213,0.30426,0.15213,6.655e+06
-0.0319214,-0.00250244,1.02026,-0,-0,0.15213,6.655e+06
-0.0360718,-0.00366211,1.02057,-0.15213,0.15213,0.608521,6.655e+06
-0.0360718,-0.00366211,1.02057,-0.15213,0.15213,0.608521,6.655e+06
-0.0311279,0.000854492,1.02173,-0,0.30426,0.45639,6.655e+06
-0.0316772,-0.00189209,1.01782,0.15213,0.15213,0.45639,6.655e+06
-0.0316772,-0.00189209,1.01782,0.15213,0.15213,0.45639,6.655e+06
-0.0337524,-0.000488281,1.0188,0.30426,0.30426,0.30426,6.655e+06
-0.0359497,-0.00231934,1.02313,0.15213,0.30426,0.30426,6.655e+06
-0.0359497,-0.00231934,1.02313,0.15213,0.30426,0.30426,6.655e+06
-0.0339355,0.000671387,1.01654,-0,-0.15213,0.30426,6.655e+06
-0.0353394,-0.000183105,1.01843,0.15213,0.30426,0.45639,6.655e+06
-0.0353394,-0.000183105,1.01843,0.15213,0.30426,0.45639,6.655e+06
-0.0304565,0.000183105,1.02698,0.15213,0.608521,0.30426,6.655e+06
-0.0316162,0.000671387,1.01788,-0.30426,0.15213,0.30426,6.655e+06
-0.0316162,0.000671387,1.01788,-0.30426,0.15213,0.30426,6.655e+06
-0.0350342,0.0010376,1.02271,-0.15213,-0,-0,6.655e+06
-0.0358887,0.00164795,1.02264,0.30426,0.30426,0.30426,6.655e+06
-0.0358887,0.00164795,1.02264,0.30426,0.30426,0.30426,6.655e+06
-0.0353394,0.00152588,1.01709,0.30426,0.15213,0.15213,6.655e+06
-0.0324707,0.000305176,1.02283,-0,-0,0.30426,6.655e+06
-0.0324707,0.000305176,1.02283,-0,-0,0.30426,6.655e+06
-0.0351562,-0.000610352,1.01599,-0,-0,0.15213,6.655e+06
-0.034668,0.000488281,1.01331,-0.15213,-0,0.15213,6.655e+06
-0.034668,0.000488281,1.01331,-0.15213,-0,0.15213,6.655e+06
-0.0349121,0.00183105,1.01129,0.15213,0.30426,0.15213,6.655e+06
-0.0363159,0.000305176,1.01886,0.15213,0.45639,0.15213,6.655e+06
-0.0363159,0.000305176,1.01886,0.15213,0.45639,0.15213,6.655e+06
-0.0317993,-0.000915527,1.02362,-0.15213,-0,0.15213,6.655e+06
-0.0331421,-0.000671387,1.01544,-0,-0,0.45639,6.655e+06
-0.0331421,-0.000671387,1.01544,-0,-0,0.45639,6.655e+06
-0.0326538,0.00305176,1.01343,-0.15213,-0.15213,0.15213,6.655e+06
-0.0327759,-0.00152588,1.02087,-0.15213,-0,0.45639,6.655e+06
-0.0327759,-0.00152588,1.02087,-0.15213,-0,0.45639,6.655e+06
-0.0342407,0.000488281,1.0188,-0.15213,0.15213,0.30426,6.655e+06
-0.0344849,-0.000976562,1.02332,-0,0.30426,0.30426,6.655e+06
-0.0344849,-0.000976562,1.02332,-0,0.30426,0.30426,6.655e+06
-0.0352783,-0.00012207,1.01648,0.15213,0.15213,0.30426,6.655e+06
-0.0353394,-0.00219727,1.01715,0.15213,0.30426,-0,6.655e+06
-0.0353394,-0.00219727,1.01715,0.15213,0.30426,-0,6.655e+06
-0.0336914,-0.00164795,1.01892,-0.15213,-0,0.45639,6.655e+06
-0.0321655,0.000671387,1.02008,0.30426,0.15213,0.30426,6.655e+06
-0.0321655,0.000671387,1.02008,0.30426,0.15213,0.30426,6.655e+06
-0.0339966,0.00354004,1.02271,0.15213,0.30426,0.30426,6.655e+06
-0.0318604,-0.000671387,1.02222,-0.15213,-0.15213,0.30426,6.655e+06
-0.0318604,-0.000671387,1.02222,-0.15213,-0.15213,0.30426,6.655e+06
-0.0327759,0.000915527,1.01941,0.15213,0.15213,0.45639,6.655e+06
-0.0328369,6.10352e-05,1.0199,0.15213,0.30426,0.30426,6.655e+06
-0.0328369,6.10352e-05,1.0199,0.15213,0.30426,0.30426,6.655e+06
-0.0354614,-6.10352e-05,1.02051,0.30426,0.45639,0.30426,6.655e+06
-0.0317993,0.000976562,1.02618,0.15213,0.608521,0.15213,6.655e+06
-0.0317993,0.000976562,1.02618,0.15213,0.608521,0.15213,6.655e+06
-0.0335083,0,1.0213,-0,-0,0.15213,6.655e+06
-0.0332031,-0.000915527,1.01636,-0,-0.15213,0.30426,6.655e+06
-0.0332031,-0.000915527,1.01636,-0,-0.15213,0.30426,6.655e+06
-0.036377,-0.000183105,1.01575,-0,0.15213,-0,6.655e+06
-0.0338135,0.00244141,1.01819,0.15213,0.30426,0.15213,6.655e+06
-0.0338135,0.00244141,1.01819,0.15213,0.30426,0.15213,6.655e+06
-0.0342407,-0.000366211,1.021,-0,0.15213,0.15213,6.655e+06
-0.0320435,0.00158691,1.02002,-0,-0,0.45639,6.655e+06
-0.0320435,0.00158691,1.02002,-0,-0,0.45639,6.655e+06
-0.0341797,-0.0012207,1.01746,-0,-0.15213,-0.15213,6.655e+06
-0.0355835,-0.00140381,1.01337,-0,0.15213,0.30426,6.655e+06
-0.0355835,-0.00140381,1.01337,-0,0.15213,0.30426,6.655e+06
-0.0344849,-0.00244141,1.01898,0.15213,-0,0.30426,6.655e+06
-0.0345459,0.0010376,1.02216,0.15213,0.30426,-0,6.655e+06
-0.0345459,0.0010376,1.02216,0.15213,0.30426,-0,6.655e+06
-0.0351562,-0.000915527,1.01685,0.30426,0.30426,0.30426,6.655e+06
-0.0357056,-0.00012207,1.02057,0.15213,0.45639,0.45639,6.655e+06
-0.0357056,-0.00012207,1.02057,0.15213,0.45639,0.45639,6.655e+06
-0.0341187,0.0020752,1.0174,0.15213,0.15213,0.30426,6.655e+06
-0.0332642,0.00195312,1.02026,-0,0.45639,-0,6.655e+06
-0.0332642,0.00195312,1.02026,-0,0.45639,-0,6.655e+06
-0.0339355,-0.000671387,1.01874,-0,0.15213,0.45639,6.655e+06
-0.0324707,-0.000366211,1.02002,0.15213,0.30426,0.30426,6.655e+06
-0.0324707,-0.000366211,1.02002,0.15213,0.30426,0.30426,6.655e+06
-0.0360107,-0.000366211,1.02002,0.15213,0.15213,0.45639,6.655e+06
-0.0348511,0.000305176,1.01923,-0.30426,-0,0.15213,6.655e+06
-0.0348511,0.000305176,1.01923,-0.30426,-0,0.15213,6.655e+06
-0.0328369,-0.00268555,1.02423,0.30426,0.30426,-0,6.655e+06
-0.0330811,-0.000427246,1.02008,-0,-0,0.30426,6.655e+06
-0.0330811,-0.000427246,1.02008,-0,-0,0.30426,6.655e+06
-0.0352173,0.00146484,1.01837,-0,-0,0.15213,6.655e+06
-0.0327759,0.00152588,1.01532,0.15213,0.15213,0.15213,6.655e+06
-0.0327759,0.00152588,1.01532,0.15213,0.15213,0.15213,6.655e+06
-0.032959,-0.00463867,1.01971,-0,-0,0.15213,6.655e+06
-0.0332031,-0.000305176,1.02655,0.15213,0.15213,0.30426,6.655e+06
-0.0332031,-0.000305176,1.02655,0.15213,0.15213,0.30426,6.655e+06
-0.0342407,0.00213623,1.02411,0.15213,0.15213,0.15213,6.655e+06
-0.0341187,0.00177002,1.01935,-0,-0.15213,-0,6.655e+06
-0.0341187,0.00177002,1.01935,-0,-0.15213,-0,6.655e+06
-0.0338745,-0.000183105,1.0166,-0.15213,-0,0.30426,6.655e+06
-0.0333252,-0.00152588,1.02209,-0,0.15213,0.45639,6.655e+06
-0.0333252,-0.00152588,1.02209,-0,0.15213,0.45639,6.655e+06
 -0.03125,-0.00140381,1.02002,0.15213,-0,0.30426,6.65501e+06
-0.0326538,0.000854492,1.02264,-0,-0.15213,0.15213,6.65501e+06
-0.0326538,0.000854492,1.02264,-0,-0.15213,0.15213,6.65501e+06
-0.036499,-0.00012207,1.02124,0.15213,0.30426,0.45639,6.65501e+06
-0.0315552,-0.000976562,1.02008,-0.15213,0.15213,0.30426,6.65501e+06
-0.0315552,-0.000976562,1.02008,-0.15213,0.15213,0.30426,6.65501e+06
-0.0327759,0.00213623,1.01965,-0,-0,0.30426,6.65501e+06
-0.0336914,-0.00164795,1.02203,-0,-0,0.30426,6.65501e+06
-0.0336914,-0.00164795,1.02203,-0,-0,0.30426,6.65501e+06
-0.0311279,0.00134277,1.02112,-0.15213,-0,0.15213,6.65501e+06
-0.0335083,0.00128174,1.01544,-0,-0.15213,-0,6.65501e+06
-0.0335083,0.00128174,1.01544,-0,-0.15213,-0,6.65501e+06
-0.0362549,0.00244141,1.01764,0.15213,0.45639,0.45639,6.65501e+06
-0.0350952,-0.0020752,1.01593,0.15213,0.30426,0.30426,6.65501e+06
-0.0350952,-0.0020752,1.01593,0.15213,0.30426,0.30426,6.65501e+06
-0.0354614,0.00244141,1.02161,-0.30426,-0,0.15213,6.65501e+06
-0.0363159,0.00012207,1.01752,0.15213,0.30426,0.30426,6.65501e+06
-0.0363159,0.00012207,1.01752,0.15213,0.30426,0.30426,6.65501e+06
-0.0332642,-0.00201416,1.02594,-0.15213,-0,0.15213,6.65501e+06
-0.0358276,-0.00177002,1.01428,0.15213,0.608521,0.15213,6.65501e+06
-0.0358276,-0.00177002,1.01428,0.15213,0.608521,0.15213,6.65501e+06
-0.0358276,-0.00195312,1.01935,0.15213,0.45639,0.15213,6.65501e+06
-0.0319824,0.000488281,1.01947,0.30426,0.15213,0.15213,6.65501e+06
-0.0319824,0.000488281,1.01947,0.30426,0.15213,0.15213,6.65501e+06
-0.0349121,0.000976562,1.02008,-0,-0.30426,-0,6.65501e+06
-0.0333252,0.00238037,1.01776,0.45639,0.30426,-0,6.65501e+06
-0.0333252,0.00238037,1.01776,0.45639,0.30426,-0,6.65501e+06
-0.0375977,0.00109863,1.02002,-0.15213,-0.15213,0.45639,6.65501e+06
-0.0328979,-0.00244141,1.01898,-0.15213,-0.15213,0.15213,6.65501e+06
-0.0328979,-0.00244141,1.01898,-0.15213,-0.15213,0.15213,6.65501e+06
-0.0354614,0,1.01685,0.15213,0.15213,0.30426,6.65501e+06
-0.0357056,6.10352e-05,1.02258,-0,-0,0.608521,6.65501e+06
-0.0357056,6.10352e-05,1.02258,-0,-0,0.608521,6.65501e+06
-0.0320435,-0.00195312,1.01678,0.15213,0.15213,0.30426,6.65501e+06
-0.0340576,-0.0010376,1.02295,-0,-0.45639,0.30426,6.65501e+06
-0.0340576,-0.0010376,1.02295,-0,-0.45639,0.30426,6.65501e+06
-0.0321655,0.000305176,1.02307,0.15213,0.15213,0.15213,6.65501e+06
-0.0344238,0.000244141,1.01642,-0,-0,0.45639,6.65501e+06
-0.0344238,0.000244141,1.01642,-0,-0,0.45639,6.65501e+06
-0.0348511,0.000366211,1.02179,0.15213,0.15213,0.15213,6.65501e+06
-0.0355835,0.000427246,1.01959,-0,-0.15213,-0,6.65501e+06
-0.0355835,0.000427246,1.01959,-0,-0.15213,-0,6.65501e+06
-0.0358276,-0.00177002,1.02032,-0.15213,-0,0.15213,6.65501e+06
 -0.03479,-0.00360107,1.01672,-0,-0,0.30426,6.65501e+06
 -0.03479,-0.00360107,1.01672,-0,-0,0.30426,6.65501e+06
-0.0336914,-0.000427246,1.02087,-0,0.30426,0.30426,6.65501e+06
-0.0371094,-0.00274658,1.02411,-0,-0,0.45639,6.65501e+06
-0.0371094,-0.00274658,1.02411,-0,-0,0.45639,6.65501e+06
-0.0333252,-0.000488281,1.02277,0.15213,0.30426,0.15213,6.65501e+06
-0.0355225,-0.00219727,1.01593,0.15213,0.15213,0.15213,6.65501e+06
-0.0355225,-0.00219727,1.01593,0.15213,0.15213,0.15213,6.65501e+06
-0.0331421,0.00317383,1.02087,0.15213,0.15213,0.45639,6.65501e+06
-0.0351562,0.0010376,1.02173,-0,-0,-0,6.65501e+06
-0.0351562,0.0010376,1.02173,-0,-0,-0,6.65501e+06
-0.0339355,-0.000366211,1.02393,-0,-0,0.15213,6.65501e+06
-0.0331421,-0.000976562,1.01593,-0,0.30426,0.15213,6.65501e+06
-0.0331421,-0.000976562,1.01593,-0,0.30426,0.15213,6.65501e+06
-0.0348511,0.000610352,1.0202,0.15213,0.15213,-0,6.65501e+06
-0.0325317,0.000366211,1.021,0.15213,0.30426,0.15213,6.65501e+06
-0.0325317,0.000366211,1.021,0.15213,0.30426,0.15213,6.65501e+06
-0.0335083,-0.00213623,1.01947,0.15213,0.45639,0.15213,6.65501e+06
-0.0302124,-0.000366211,1.01904,-0,-0,0.15213,6.65501e+06
-0.0302124,-0.000366211,1.01904,-0,-0,0.15213,6.65501e+06
-0.0326538,-0.00213623,1.02283,0.15213,0.30426,-0,6.65501e+06
-0.0353394,0.0020752,1.01837,-0,-0,-0.15213,6.65501e+06
-0.0353394,0.0020752,1.01837,-0,-0,-0.15213,6.65501e+06
-0.0311279,0.00012207,1.02313,-0,0.30426,-0,6.65501e+06
-0.0371704,-0.000793457,1.01794,-0,-0,0.30426,6.65501e+06
-0.0371704,-0.000793457,1.01794,-0,-0,0.30426,6.65501e+06
-0.0332031,0.00164795,1.01489,0.15213,0.15213,0.15213,6.65501e+06
-0.0345459,-0.00170898,1.02533,-0,-0,0.45639,6.65501e+06
-0.0345459,-0.00170898,1.02533,-0,-0,0.45639,6.65501e+06
-0.0361938,-0.00183105,1.0188,-0,-0,-0,6.65501e+06
-0.0310059,0.00524902,1.021,0.15213,0.15213,0.45639,6.65501e+06
-0.0310059,0.00524902,1.021,0.15213,0.15213,0.45639,6.65501e+06
-0.0355835,0.0043335,1.01544,0.15213,0.15213,0.30426,6.65501e+06
-0.0360718,0.0020752,1.01801,-0,0.30426,0.15213,6.65501e+06
-0.0360718,0.0020752,1.01801,-0,0.30426,0.15213,6.65501e+06
-0.0394897,-0.00152588,1.01654,0.15213,0.15213,0.608521,6.65501e+06
-0.0326538,-0.00543213,1.0813,-0.30426,1.06491,-0,6.65501e+06
-0.0326538,-0.00543213,1.0813,-0.30426,1.06491,-0,6.65501e+06
-0.0247192,-0.00982666,1.01776,-0,-0.15213,-0,6.65501e+06
-0.0349121,0.00189209,1.00421,-0.30426,-0.45639,-0,6.65501e+06
-0.0349121,0.00189209,1.00421,-0.30426,-0.45639,-0,6.65501e+06
-0.0319214,0.00415039,1.02222,-0,0.15213,0.45639,6.65501e+06
-0.0343628,0.00201416,1.01569,-0.15213,0.760651,0.15213,6.65501e+06
-0.0343628,0.00201416,1.01569,-0.15213,0.760651,0.15213,6.65501e+06
-0.034729,0.00427246,1.03284,-0.30426,-0,-0.15213,6.65501e+06
-0.0317383,0.00579834,1.02368,0.15213,0.608521,0.15213,6.65501e+06
-0.0317383,0.00579834,1.02368,0.15213,0.608521,0.15213,6.65501e+06
-0.0335693,0.00695801,1.01617,-0.15213,-0,-0,6.65501e+06
-0.0356445,0.000976562,1.02551,-0,-0,0.45639,6.65501e+06
-0.0356445,0.000976562,1.02551,-0,-0,0.45639,6.65501e+06
-0.0333862,-0.00622559,1.01202,-0,-0,0.30426,6.65501e+06
-0.0357666,-0.00354004,1.02985,0.15213,0.30426,0.15213,6.65501e+06
-0.0357666,-0.00354004,1.02985,0.15213,0.30426,0.15213,6.65501e+06
-0.0279541,-0.00561523,1.0166,0.45639,0.15213,0.15213,6.65501e+06
-0.0356445,0.000366211,1.02045,-0,-0,0.30426,6.65501e+06
-0.0356445,0.000366211,1.02045,-0,-0,0.30426,6.65501e+06
-0.0324707,0.00244141,1.02307,-0,-0,0.30426,6.65501e+06
-0.0349731,0.0032959,1.02338,-0,0.15213,0.15213,6.65501e+06
-0.0349731,0.0032959,1.02338,-0,0.15213,0.15213,6.65501e+06
-0.0333252,0.00427246,1.02252,0.15213,0.30426,0.45639,6.65501e+06
-0.0349731,0.0022583,1.01086,0.30426,0.15213,0.15213,6.65501e+06
-0.0349731,0.0022583,1.01086,0.30426,0.15213,0.15213,6.65501e+06
-0.0388794,0.00537109,1.0293,-0.15213,-0.15213,0.15213,6.65501e+06
-0.0344238,-0.00170898,1.0235,0.30426,0.30426,0.30426,6.65501e+06
-0.0344238,-0.00170898,1.0235,0.30426,0.30426,0.30426,6.65501e+06
-0.0319824,0.000793457,1.02252,0.15213,0.30426,0.45639,6.65501e+06
-0.0315552,-0.00396729,1.02002,0.15213,0.15213,0.15213,6.65501e+06
-0.0315552,-0.00396729,1.02002,0.15213,0.15213,0.15213,6.65501e+06
-0.0296631,-0.00598145,1.01837,0.30426,-0,0.15213,6.65501e+06
-0.0336914,-0.00469971,1.02136,0.15213,0.30426,0.15213,6.65501e+06
-0.0336914,-0.00469971,1.02136,0.15213,0.30426,0.15213,6.65501e+06
-0.032959,-0.00170898,1.01965,-0,-0.15213,0.30426,6.65501e+06
-0.0320435,0.00177002,1.0155,0.15213,0.30426,0.15213,6.65501e+06
-0.0320435,0.00177002,1.0155,0.15213,0.30426,0.15213,6.65501e+06
-0.0383301,0.00372314,1.01953,0.15213,0.30426,0.30426,6.65501e+06
-0.0358276,0.00012207,1.01514,-0,-0.15213,0.15213,6.65501e+06
-0.0358276,0.00012207,1.01514,-0,-0.15213,0.15213,6.65501e+06
-0.0387573,0.00518799,1.01935,-0,0.15213,-0,6.65501e+06
-0.0333252,0.00463867,1.0188,-0,-0,0.30426,6.65501e+06
-0.0333252,0.00463867,1.0188,-0,-0,0.30426,6.65501e+06
-0.0339355,0.00213623,1.02783,-0,-0,0.45639,6.65501e+06
-0.0323486,-0.00274658,1.0213,0.15213,0.15213,0.30426,6.65501e+06
-0.0323486,-0.00274658,1.0213,0.15213,0.15213,0.30426,6.65501e+06
-0.0336914,-0.00384521,1.01593,0.15213,0.30426,0.45639,6.65501e+06
-0.0352783,-0.00305176,1.02307,-0,-0,0.30426,6.65501e+06
-0.0352783,-0.00305176,1.02307,-0,-0,0.30426,6.65501e+06
-0.0355835,-0.000549316,1.01483,-0.15213,-0,0.15213,6.65501e+06
-0.0350342,0.000915527,1.02209,-0.15213,-0,0.45639,6.65501e+06
-0.0350342,0.000915527,1.02209,-0.15213,-0,0.45639,6.65501e+06
-0.0343018,-0.00115967,1.01947,0.15213,0.15213,0.15213,6.65501e+06
-0.0328369,0.00189209,1.02295,0.15213,0.15213,0.15213,6.65501e+06
-0.0328369,0.00189209,1.02295,0.15213,0.15213,0.15213,6.65501e+06
-0.0340576,0.00146484,1.02472,0.15213,-0,0.30426,6.65501e+06
-0.0327148,0.00469971,1.02319,0.15213,0.15213,0.15213,6.65501e+06
-0.0327148,0.00469971,1.02319,0.15213,0.15213,0.15213,6.65501e+06
-0.0321045,-0.000427246,1.02167,0.15213,0.15213,0.30426,6.65501e+06
-0.0350952,-0.00177002,1.02063,0.15213,0.30426,0.30426,6.65501e+06
-0.0350952,-0.00177002,1.02063,0.15213,0.30426,0.30426,6.65501e+06
-0.0344238,-0.00421143,1.01935,0.15213,0.15213,0.45639,6.65501e+06
 -0.03479,-0.00219727,1.01831,0.15213,0.15213,-0,6.65501e+06
 -0.03479,-0.00219727,1.01831,0.15213,0.15213,-0,6.65501e+06
-0.0346069,-0.00115967,1.01855,0.15213,0.15213,0.30426,6.65501e+06
-0.0338745,-0.00195312,1.02069,-0,-0,0.15213,6.65501e+06
-0.0338745,-0.00195312,1.02069,-0,-0,0.15213,6.65501e+06
-0.0343628,-0.00012207,1.02142,0.15213,0.15213,0.30426,6.65501e+06
-0.0366821,0.00256348,1.01978,0.30426,0.15213,0.15213,6.65501e+06
-0.0366821,0.00256348,1.01978,0.30426,0.15213,0.15213,6.65501e+06
-0.0335083,0.00244141,1.01953,-0,-0,-0,6.65501e+06
-0.0318604,0.00445557,1.02173,0.15213,0.15213,0.45639,6.65501e+06
-0.0318604,0.00445557,1.02173,0.15213,0.15213,0.45639,6.65501e+06
 -0.03302,-0.000488281,1.01855,0.15213,0.30426,0.30426,6.65501e+06
 -0.03479,-0.00274658,1.0224,-0,-0,0.30426,6.65501e+06
 -0.03479,-0.00274658,1.0224,-0,-0,0.30426,6.65501e+06
-0.0357666,-0.0057373,1.02551,-0,-0,0.30426,6.65501e+06
-0.034668,-0.00402832,1.01721,0.15213,0.30426,0.45639,6.65501e+06
-0.034668,-0.00402832,1.01721,0.15213,0.30426,0.45639,6.65501e+06
-0.0335083,-0.00201416,1.02362,-0.30426,-0.15213,0.15213,6.65501e+06
-0.0358276,0.00109863,1.026,-0,-0,0.45639,6.65501e+06
-0.0358276,0.00109863,1.026,-0,-0,0.45639,6.65501e+06
-0.0354004,0.00189209,1.01898,0.15213,0.30426,0.15213,6.65501e+06
-0.0324707,0.0020752,1.0163,-0,-0.15213,0.30426,6.65501e+06
-0.0324707,0.0020752,1.0163,-0,-0.15213,0.30426,6.65501e+06
-0.0352783,0.00115967,1.01941,0.15213,0.30426,0.45639,6.65501e+06
-0.0331421,0.00109863,1.03046,-0,-0.15213,0.15213,6.65501e+06
-0.038269,-0.00317383,1.01801,0.15213,0.30426,0.15213,6.65501e+06
-0.038269,-0.00317383,1.01801,0.15213,0.30426,0.15213,6.65501e+06
-0.0344238,-0.00628662,1.01276,0.15213,0.15213,0.15213,6.65501e+06
-0.0344238,-0.00628662,1.01276,0.15213,0.15213,0.15213,6.65501e+06
-0.0357056,-0.003479,1.01703,-0,-0,0.45639,6.65501e+06
-0.0354004,-0.00402832,1.01721,0.15213,0.45639,0.30426,6.65501e+06
-0.0354004,-0.00402832,1.01721,0.15213,0.45639,0.30426,6.65501e+06
-0.0328979,-0.000427246,1.0188,0.15213,0.30426,0.15213,6.65501e+06
-0.0311279,-0.00213623,1.02289,0.15213,0.15213,-0,6.65501e+06
-0.0311279,-0.00213623,1.02289,0.15213,0.15213,-0,6.65501e+06
-0.0339355,0.00512695,1.01965,0.30426,0.30426,-0,6.65501e+06
-0.0336914,0.00134277,1.01886,-0,-0,0.15213,6.65501e+06
-0.0336914,0.00134277,1.01886,-0,-0,0.15213,6.65501e+06
-0.034729,0.000976562,1.01752,-0,-0,0.30426,6.65501e+06
-0.0355835,-0.0010376,1.01575,0.30426,0.608521,0.15213,6.65501e+06
-0.0355835,-0.0010376,1.01575,0.30426,0.608521,0.15213,6.65501e+06
-0.0348511,-0.00537109,1.01569,-0,-0,0.15213,6.65501e+06
-0.0325928,-0.00469971,1.01971,0.15213,0.15213,0.30426,6.65501e+06
-0.0325928,-0.00469971,1.01971,0.15213,0.15213,0.30426,6.65501e+06
 -0.03302,-0.000793457,1.01837,0.30426,0.45639,0.15213,6.65501e+06
-0.0333252,-0.00158691,1.01471,-0.15213,0.15213,-0,6.65501e+06
-0.0333252,-0.00158691,1.01471,-0.15213,0.15213,-0,6.65501e+06
 -0.03302,-0.000610352,1.0202,0.15213,0.15213,0.45639,6.65501e+06
-0.0366821,-0.000610352,1.01892,-0.15213,0.15213,0.30426,6.65501e+06
-0.0366821,-0.000610352,1.01892,-0.15213,0.15213,0.30426,6.65501e+06
-0.0330811,0.0022583,1.02203,0.15213,0.15213,0.30426,6.65501e+06
-0.0319214,0.000915527,1.01514,0.15213,0.15213,0.45639,6.65501e+06
-0.0319214,0.000915527,1.01514,0.15213,0.15213,0.45639,6.65501e+06
-0.0335693,-0.00183105,1.02545,-0,-0,0.15213,6.65501e+06
-0.031311,0.00158691,1.02246,-0.30426,-0,-0,6.65501e+06
-0.0314331,-0.00201416,1.01733,-0,-0,0.30426,6.65501e+06
-0.0314331,-0.00201416,1.01733,-0,-0,0.30426,6.65501e+06
-0.0390625,-0.000366211,1.01849,-0.30426,-0,0.30426,6.65501e+06
-0.0390625,-0.000366211,1.01849,-0.30426,-0,0.30426,6.65501e+06
-0.0365601,0.00512695,1.0177,0.15213,0.15213,0.15213,6.65501e+06
-0.0380859,-0.0020752,1.02301,-0.15213,0.30426,0.30426,6.65501e+06
-0.0380859,-0.0020752,1.02301,-0.15213,0.30426,0.30426,6.65501e+06
-0.0372925,-0.00183105,1.01831,0.15213,0.15213,0.30426,6.65501e+06
-0.0285645,-0.00109863,1.01758,-0,-0,0.30426,6.65501e+06
-0.0285645,-0.00109863,1.01758,-0,-0,0.30426,6.65501e+06
-0.0284424,0.00140381,1.02167,-0.15213,-0.15213,-0,6.65501e+06
-0.0288696,-0.00286865,1.02112,-0.30426,-0,0.15213,6.65501e+06
-0.0288696,-0.00286865,1.02112,-0.30426,-0,0.15213,6.65501e+06
-0.034729,-0.00189209,1.01819,-0.15213,-0.30426,0.30426,6.65501e+06
-0.0390015,-0.00115967,1.01208,-0,-0.15213,0.15213,6.65501e+06
-0.0390015,-0.00115967,1.01208,-0,-0.15213,0.15213,6.65501e+06
-0.0389404,0.0020752,1.01886,0.30426,0.30426,-0,6.65501e+06
-0.0368042,0.00140381,1.02448,-0.30426,0.15213,0.15213,6.65501e+06
-0.0368042,0.00140381,1.02448,-0.30426,0.15213,0.15213,6.65501e+06
-0.0349121,0.00158691,1.0238,0.15213,0.608521,0.30426,6.65501e+06
-0.0320435,-0.000732422,1.02026,0.30426,0.45639,0.30426,6.65501e+06
-0.0320435,-0.000732422,1.02026,0.30426,0.45639,0.30426,6.65501e+06
-0.0322876,-0.00195312,1.01459,-0,-0,-0,6.65501e+06
-0.0322876,-0.00134277,1.02496,-0,0.15213,0.30426,6.65501e+06
-0.0322876,-0.00134277,1.02496,-0,0.15213,0.30426,6.65501e+06
-0.0345459,-0.00140381,1.01813,-0,0.30426,-0,6.65501e+06
-0.0335693,-0.000549316,1.01862,0.15213,0.30426,0.15213,6.65501e+06
-0.0335693,-0.000549316,1.01862,0.15213,0.30426,0.15213,6.65501e+06
-0.0358276,-0.0010376,1.01483,-0.15213,-0,0.30426,6.65501e+06
-0.0324707,-0.00244141,1.02222,-0,-0,0.30426,6.65501e+06
-0.0320435,0.00280762,1.01959,0.15213,0.30426,0.15213,6.65501e+06
-0.0320435,0.00280762,1.01959,0.15213,0.30426,0.15213,6.65501e+06
-0.0307617,-0.000244141,1.0163,-0.15213,0.15213,0.30426,6.65501e+06
-0.0307617,-0.000244141,1.0163,-0.15213,0.15213,0.30426,6.65501e+06
-0.0352783,-0.000854492,1.01898,-0.30426,-0,0.30426,6.65501e+06
-0.0366821,0.000244141,1.02222,-0.15213,0.30426,0.30426,6.65501e+06
-0.0366821,0.000244141,1.02222,-0.15213,0.30426,0.30426,6.65501e+06
-0.0365601,0.00274658,1.01935,0.15213,0.15213,-0,6.65501e+06
-0.0366821,-0.00195312,1.01849,-0.15213,-0,0.15213,6.65501e+06
-0.0366821,-0.00195312,1.01849,-0.15213,-0,0.15213,6.65501e+06
-0.0331421,0.00140381,1.02026,0.15213,0.30426,-0,6.65501e+06
-0.0275879,0.00177002,1.0199,-0,-0.30426,0.15213,6.65501e+06
-0.0275879,0.00177002,1.0199,-0,-0.30426,0.15213,6.65501e+06
-0.0350952,0.00012207,1.0224,0.15213,0.15213,0.15213,6.65501e+06
-0.0335693,-0.00140381,1.01898,0.15213,0.15213,0.15213,6.65501e+06
-0.0335693,-0.00140381,1.01898,0.15213,0.15213,0.15213,6.65501e+06
-0.0368042,-0.000793457,1.02026,0.15213,0.15213,-0,6.65501e+06
-0.038147,0.0020752,1.01544,-0.30426,0.15213,0.30426,6.65501e+06
-0.038147,0.0020752,1.01544,-0.30426,0.15213,0.30426,6.65501e+06
-0.0340576,0.00268555,1.02246,-0,0.30426,0.30426,6.65501e+06
-0.0308228,0.000610352,1.02234,0.15213,0.30426,0.30426,6.65501e+06
-0.0308228,0.000610352,1.02234,0.15213,0.30426,0.30426,6.65501e+06
-0.0321655,-0.0012207,1.01886,-0,-0,0.30426,6.65501e+06
-0.0311279,0.000976562,1.01923,-0,0.15213,0.30426,6.65501e+06
-0.0311279,0.000976562,1.01923,-0,0.15213,0.30426,6.65501e+06
-0.0309448,0.000488281,1.01965,0.15213,0.30426,0.15213,6.65501e+06
-0.0350952,0.000305176,1.02087,0.15213,0.15213,0.15213,6.65501e+06
-0.0350952,0.000305176,1.02087,0.15213,0.15213,0.15213,6.65501e+06
-0.0341187,0.00152588,1.02026,-0,-0,-0,6.65501e+06
-0.0380249,-0.000305176,1.02521,0.30426,-0,0.30426,6.65501e+06
-0.0380249,-0.000305176,1.02521,0.30426,-0,0.30426,6.65501e+06
-0.0366821,-0.00152588,1.01691,0.15213,0.15213,0.15213,6.65501e+06
-0.0327759,-0.00177002,1.01697,0.15213,0.15213,0.30426,6.65501e+06
-0.0327759,-0.00177002,1.01697,0.15213,0.15213,0.30426,6.65501e+06
-0.0326538,0.000305176,1.01843,0.15213,0.30426,0.30426,6.65501e+06
-0.0322266,-0.00183105,1.02136,0.15213,-0.15213,0.15213,6.65501e+06
-0.0322266,-0.00183105,1.02136,0.15213,-0.15213,0.15213,6.65501e+06
-0.0303955,-0.00140381,1.02045,0.15213,0.30426,0.15213,6.65501e+06
-0.0325928,0.00250244,1.01917,-0,-0,0.15213,6.65501e+06
-0.0325928,0.00250244,1.01917,-0,-0,0.15213,6.65501e+06
-0.0328979,-0.00158691,1.02057,0.15213,0.45639,0.30426,6.65501e+06
-0.0344238,-0.000610352,1.02087,-0,-0.15213,0.15213,6.65501e+06
-0.0344238,-0.000610352,1.02087,-0,-0.15213,0.15213,6.65501e+06
-0.0350342,0.00134277,1.01813,-0,-0,0.15213,6.65501e+06
-0.0305176,0.00183105,1.01831,-0,-0,0.45639,6.65501e+06
-0.0305176,0.00183105,1.01831,-0,-0,0.45639,6.65501e+06
-0.0357666,-0.00115967,1.01929,0.15213,0.30426,0.45639,6.65501e+06
-0.0316162,-6.10352e-05,1.01788,-0,-0,0.30426,6.65501e+06
-0.0316162,-6.10352e-05,1.01788,-0,-0,0.30426,6.65501e+06
-0.0334473,-0.00164795,1.02057,-0,-0,0.30426,6.65501e+06
-0.034668,0.000488281,1.0105,-0.30426,0.15213,0.608521,6.65501e+06
-0.034668,0.000488281,1.0105,-0.30426,0.15213,0.608521,6.65501e+06
-0.0360107,0.000732422,1.01575,0.15213,0.15213,0.45639,6.65501e+06
-0.0307007,-0.000366211,1.02313,0.30426,0.30426,0.30426,6.65501e+06
-0.0307007,-0.000366211,1.02313,0.30426,0.30426,0.30426,6.65501e+06
-0.0344238,0.00158691,1.02045,-0,0.15213,-0,6.65501e+06
-0.034729,-0.00164795,1.01959,0.15213,0.15213,0.15213,6.65501e+06
-0.034729,-0.00164795,1.01959,0.15213,0.15213,0.15213,6.65501e+06
-0.0311279,-0.00134277,1.01898,-0.15213,-0,0.15213,6.65501e+06
-0.0367432,-0.00109863,1.01831,-0.15213,-0,0.30426,6.65501e+06
-0.0367432,-0.00109863,1.01831,-0.15213,-0,0.30426,6.65501e+06
-0.0351562,-0.00152588,1.0224,0.30426,0.30426,0.45639,6.65501e+06
-0.0319824,0.000976562,1.01953,0.15213,0.15213,0.45639,6.65501e+06
-0.0319824,0.000976562,1.01953,0.15213,0.15213,0.45639,6.65501e+06
-0.034729,0.00158691,1.01965,-0,-0.15213,0.30426,6.65501e+06
-0.0349731,-0.000488281,1.02081,0.30426,0.15213,-0,6.65501e+06
-0.0349731,-0.000488281,1.02081,0.30426,0.15213,-0,6.65501e+06
-0.0325317,0.00170898,1.02191,-0,-0,0.30426,6.65501e+06
-0.0317383,0.0012207,1.01941,0.15213,0.45639,-0.15213,6.65501e+06
-0.0317383,0.0012207,1.01941,0.15213,0.45639,-0.15213,6.65501e+06
-0.0313721,-6.10352e-05,1.01917,-0.15213,-0,-0,6.65501e+06
-0.0335693,-0.00274658,1.01831,-0,-0.15213,0.15213,6.65501e+06
-0.0335693,-0.00274658,1.01831,-0,-0.15213,0.15213,6.65501e+06
-0.0327759,-0.000305176,1.01678,0.15213,0.15213,0.15213,6.65501e+06
-0.0354614,0,1.01868,0.15213,0.15213,0.15213,6.65501e+06
-0.0354614,0,1.01868,0.15213,0.15213,0.15213,6.65501e+06
-0.0345459,-0.000366211,1.02094,0.15213,0.30426,0.15213,6.65501e+06
-0.0324097,0.000854492,1.01886,-0,-0,0.15213,6.65501e+06
-0.0332031,-0.00317383,1.02228,0.15213,0.15213,0.30426,6.65501e+06
-0.0332031,-0.00317383,1.02228,0.15213,0.15213,0.30426,6.65501e+06
-0.0335083,-0.0022583,1.01874,-0,-0.15213,0.45639,6.65501e+06
-0.0335083,-0.0022583,1.01874,-0,-0.15213,0.45639,6.65501e+06
-0.0336304,-0.000610352,1.01898,-0.15213,-0.15213,0.30426,6.65501e+06
-0.0339355,6.10352e-05,1.01941,-0,0.30426,0.45639,6.65501e+06
-0.0339355,6.10352e-05,1.01941,-0,0.30426,0.45639,6.65501e+06
-0.0351562,-0.00158691,1.02307,-0,0.15213,-0,6.65501e+06
-0.0332031,-0.00128174,1.02008,-0,-0.15213,0.30426,6.65501e+06
-0.0332031,-0.00128174,1.02008,-0,-0.15213,0.30426,6.65501e+06
-0.0350952,-0.0012207,1.02386,-0,-0.30426,0.15213,6.65501e+06
-0.032959,0.0012207,1.01129,0.15213,0.15213,0.15213,6.65501e+06
-0.032959,0.0012207,1.01129,0.15213,0.15213,0.15213,6.65501e+06
-0.0352783,-0.00115967,1.02173,0.15213,0.15213,0.30426,6.65501e+06
-0.034729,-0.0022583,1.02319,0.15213,0.30426,0.30426,6.65501e+06
-0.034729,-0.0022583,1.02319,0.15213,0.30426,0.30426,6.65501e+06
-0.0314331,-0.000305176,1.02228,-0,0.15213,-0,6.65501e+06
-0.0322266,0.0022583,1.02148,0.15213,0.15213,-0,6.65501e+06
-0.0322266,0.0022583,1.02148,0.15213,0.15213,-0,6.65501e+06
-0.0319824,6.10352e-05,1.01782,-0,-0,0.30426,6.65501e+06
-0.0345459,0.000976562,1.02032,0.15213,0.30426,0.45639,6.65501e+06
-0.0345459,0.000976562,1.02032,0.15213,0.30426,0.45639,6.65501e+06
-0.0361938,0.00109863,1.01709,-0,-0,0.30426,6.65501e+06
-0.0336914,0.00115967,1.02911,-0.15213,0.30426,0.15213,6.65501e+06
-0.0336914,0.00115967,1.02911,-0.15213,0.30426,0.15213,6.65501e+06
-0.0344849,0.00311279,1.02252,-0,-0.15213,0.45639,6.65501e+06
-0.038208,-0.0043335,1.0177,-0,-0,0.30426,6.65501e+06
-0.038208,-0.0043335,1.0177,-0,-0,0.30426,6.65501e+06
-0.0349121,0.000610352,1.01312,-0,-0,0.30426,6.65501e+06
-0.0337524,-0.00195312,1.01947,0.15213,0.30426,0.45639,6.65501e+06
-0.0337524,-0.00195312,1.01947,0.15213,0.30426,0.45639,6.65501e+06
-0.034668,0.000183105,1.01862,0.15213,0.15213,0.30426,6.65501e+06
-0.0328979,-0.000183105,1.02051,0.30426,0.30426,0.15213,6.65501e+06
-0.0328979,-0.000183105,1.02051,0.30426,0.30426,0.15213,6.65501e+06
-0.0349121,-0.000305176,1.01697,0.30426,0.45639,-0,6.65501e+06
-0.0345459,-0.00354004,1.02094,-0,-0,0.30426,6.65501e+06
-0.0345459,-0.00354004,1.02094,-0,-0,0.30426,6.65501e+06
-0.0339966,-0.00109863,1.02057,-0,-0,-0.15213,6.65501e+06
-0.0343018,0.00128174,1.01642,-0,-0,0.30426,6.65501e+06
-0.0343018,0.00128174,1.01642,-0,-0,0.30426,6.65501e+06
-0.0332031,-0.00189209,1.01752,-0,0.760651,-0,6.65501e+06
-0.0316162,0.000610352,1.02539,-0,0.15213,0.15213,6.65501e+06
-0.0316162,0.000610352,1.02539,-0,0.15213,0.15213,6.65501e+06
-0.0325928,-0.00219727,1.0202,0.15213,0.15213,-0,6.65501e+06
-0.0341797,0.000244141,1.02271,-0,-0,0.30426,6.65501e+06
-0.0341797,0.000244141,1.02271,-0,-0,0.30426,6.65501e+06
-0.0349731,-0.00299072,1.01697,0.15213,0.15213,0.15213,6.65501e+06
-0.0320435,-0.00164795,1.02069,-0.15213,-0.15213,-0,6.65501e+06
-0.0320435,-0.00164795,1.02069,-0.15213,-0.15213,-0,6.65501e+06
-0.0321655,0.000427246,1.01697,-0.15213,-0.15213,-0,6.65501e+06
-0.0314331,-0.00311279,1.01654,-0.15213,-0.30426,-0.15213,6.65501e+06
-0.0314331,-0.00311279,1.01654,-0.15213,-0.30426,-0.15213,6.65501e+06
-0.0352783,-0.000915527,1.01721,-0,-0,-0,6.65501e+06
-0.0343628,0.000488281,1.02258,-0,0.15213,0.15213,6.65501e+06
-0.0343628,0.000488281,1.02258,-0,0.15213,0.15213,6.65501e+06
-0.0332642,0.000244141,1.01807,-0,-0.30426,0.15213,6.65501e+06
-0.032959,-0.00158691,1.01715,0.15213,0.15213,-0,6.65501e+06
-0.032959,-0.00158691,1.01715,0.15213,0.15213,-0,6.65501e+06
-0.0324707,0.00213623,1.01819,-0.15213,-0.15213,0.30426,6.65501e+06
-0.0355225,-0.00219727,1.01874,0.15213,0.608521,0.15213,6.65501e+06
-0.0355225,-0.00219727,1.01874,0.15213,0.608521,0.15213,6.65501e+06
-0.0323486,0.00012207,1.02087,-0,-0,-0,6.65501e+06
-0.0344238,0.000183105,1.02173,0.15213,0.608521,-0,6.65501e+06
-0.0344238,0.000183105,1.02173,0.15213,0.608521,-0,6.65501e+06
-0.0357666,0.000488281,1.02124,0.15213,0.15213,0.15213,6.65501e+06
-0.0339966,0.000244141,1.02161,-0.15213,-0,0.15213,6.65501e+06
-0.0339966,0.000244141,1.02161,-0.15213,-0,0.15213,6.65501e+06
-0.0388184,-0.00128174,1.01898,-0.45639,-0.45639,0.15213,6.65501e+06
-0.0326538,-0.000366211,1.0177,-0.15213,-0,0.30426,6.65501e+06
-0.0326538,-0.000366211,1.0177,-0.15213,-0,0.30426,6.65501e+06
-0.0363159,-0.00201416,1.02051,-0.30426,-0.15213,0.15213,6.65501e+06
-0.0301514,0.000488281,1.01892,-0,-0.15213,-0,6.65501e+06
-0.0301514,0.000488281,1.01892,-0,-0.15213,-0,6.65501e+06
-0.0327759,0.00146484,1.02423,-0,-0,-0,6.65501e+06
-0.0352173,0.00128174,1.02197,0.15213,0.30426,0.30426,6.65501e+06
-0.0352173,0.00128174,1.02197,0.15213,0.30426,0.30426,6.65501e+06
-0.0354614,0.000549316,1.01672,-0,-0.15213,-0,6.65501e+06
-0.0357666,0.00158691,1.02234,0.15213,0.30426,0.15213,6.65501e+06
-0.0357666,0.00158691,1.02234,0.15213,0.30426,0.15213,6.65501e+06
-0.0351562,-0.00231934,1.0235,0.15213,0.30426,-0,6.65501e+06
-0.034729,-0.00170898,1.01477,0.15213,0.608521,-0.30426,6.65501e+06
-0.034729,-0.00170898,1.01477,0.15213,0.608521,-0.30426,6.65501e+06
-0.0317383,-0.00354004,1.01868,-0,0.15213,0.15213,6.65501e+06
-0.0332642,-0.000976562,1.01587,0.30426,0.30426,-0,6.65501e+06
-0.0332642,-0.000976562,1.01587,0.30426,0.30426,-0,6.65501e+06
-0.0345459,-0.00341797,1.01831,-0,0.30426,-0.30426,6.65501e+06
-0.0338135,-0.00354004,1.01801,-0.15213,-0,0.45639,6.65501e+06
-0.0338135,-0.00354004,1.01801,-0.15213,-0,0.45639,6.65501e+06
-0.0354614,0.00189209,1.02069,-0,-0,0.15213,6.65501e+06
-0.0333862,0.000793457,1.01825,0.15213,0.15213,-0.15213,6.65501e+06
-0.0333862,0.000793457,1.01825,0.15213,0.15213,-0.15213,6.65501e+06
-0.0338745,-0.000183105,1.02045,-0,0.15213,-0,6.65501e+06
-0.0339966,-0.000976562,1.01636,-0,-0,0.15213,6.65501e+06
-0.0339966,-0.000976562,1.01636,-0,-0,0.15213,6.65501e+06
-0.0336914,0.00195312,1.01825,0.15213,0.15213,0.15213,6.65501e+06
-0.0325928,-0.00012207,1.0224,0.15213,0.30426,0.15213,6.65501e+06
-0.0325928,-0.00012207,1.0224,0.15213,0.30426,0.15213,6.65501e+06
-0.0325317,0.00262451,1.01764,0.15213,0.30426,0.30426,6.65501e+06
-0.0308228,0.0010376,1.01764,-0,-0.15213,-0,6.65501e+06
-0.0308228,0.0010376,1.01764,-0,-0.15213,-0,6.65501e+06
-0.0341797,-0.00238037,1.01868,-0,-0.15213,-0,6.65501e+06
-0.0349121,0.00213623,1.02649,-0.15213,-0,0.30426,6.65501e+06
-0.0349121,0.00213623,1.02649,-0.15213,-0,0.30426,6.65501e+06
-0.0333252,-0.00201416,1.01923,-0,0.15213,-0.15213,6.65501e+06
-0.031189,-0.00109863,1.021,-0,-0,-0,6.65501e+06
-0.031189,-0.00109863,1.021,-0,-0,-0,6.65501e+06
-0.0355835,0.00256348,1.0177,0.30426,0.15213,-0,6.65501e+06
-0.0331421,0.000915527,1.02173,0.15213,0.30426,-0,6.65501e+06
-0.0331421,0.000915527,1.02173,0.15213,0.30426,-0,6.65501e+06
-0.0341187,-0.00189209,1.01483,-0,-0,-0.15213,6.65501e+06
-0.034729,-0.000305176,1.02313,0.15213,0.30426,0.30426,6.65501e+06
-0.034729,-0.000305176,1.02313,0.15213,0.30426,0.30426,6.65501e+06
-0.0368652,0.00341797,1.01477,0.15213,0.30426,0.30426,6.65501e+06
-0.0338135,-0.000244141,1.01569,0.15213,0.30426,-0.15213,6.65501e+06
-0.0338135,-0.000244141,1.01569,0.15213,0.30426,-0.15213,6.65501e+06
-0.0333252,-0.00256348,1.01984,-0,-0,-0,6.65501e+06
-0.0315552,-0.00109863,1.01721,-0,-0,-0,6.65501e+06
-0.0315552,-0.00109863,1.01721,-0,-0,-0,6.65501e+06
-0.0323486,-0.0012207,1.02222,-0.15213,-0,-0,6.65501e+06
-0.0324097,-0.00115967,1.01892,-0,-0.15213,0.15213,6.65501e+06
-0.0324097,-0.00115967,1.01892,-0,-0.15213,0.15213,6.65501e+06
-0.0344849,0.00146484,1.02203,0.15213,0.30426,0.15213,6.65501e+06
-0.0328979,-0.00213623,1.0235,-0.15213,0.15213,-0.15213,6.65501e+06
-0.0328979,-0.00213623,1.0235,-0.15213,0.15213,-0.15213,6.65501e+06
-0.0328369,0.00012207,1.01978,0.15213,0.15213,-0,6.65501e+06
-0.0321655,-0.00128174,1.0202,-0,0.30426,-0,6.65501e+06
-0.0317383,-0.00317383,1.0202,0.15213,0.45639,-0,6.65501e+06
-0.0317383,-0.00317383,1.0202,0.15213,0.45639,-0,6.65501e+06
-0.0321655,-0.003479,1.01904,-0.15213,-0.15213,-0,6.65501e+06
-0.0321655,-0.003479,1.01904,-0.15213,-0.15213,-0,6.65501e+06
-0.0336304,0.00177002,1.01343,0.15213,0.30426,0.15213,6.65501e+06
-0.0343018,0.00170898,1.02405,-0,-0.15213,-0,6.65501e+06
-0.0343018,0.00170898,1.02405,-0,-0.15213,-0,6.65501e+06
-0.0333862,-0.000610352,1.0152,0.45639,0.15213,0.30426,6.65501e+06
-0.0361938,-0.0022583,1.02008,0.15213,0.15213,-0,6.65501e+06
-0.0361938,-0.0022583,1.02008,0.15213,0.15213,-0,6.65501e+06
-0.0344849,0.000305176,1.02344,-0.15213,-0,0.15213,6.65501e+06
-0.0328979,-0.0020752,1.02295,0.30426,0.15213,-0.15213,6.65501e+06
-0.0328979,-0.0020752,1.02295,0.30426,0.15213,-0.15213,6.65501e+06
-0.0299072,0.00335693,1.01831,-0,-0,0.30426,6.65501e+06
-0.0338135,-0.00134277,1.01642,-0,-0,-0.15213,6.65501e+06
-0.0338135,-0.00134277,1.01642,-0,-0,-0.15213,6.65501e+06
-0.0342407,-0.000793457,1.01929,0.30426,0.30426,0.15213,6.65501e+06
-0.0319214,-0.00128174,1.01752,0.15213,0.30426,-0.30426,6.65501e+06
-0.0319214,-0.00128174,1.01752,0.15213,0.30426,-0.30426,6.65501e+06
-0.036499,0.000305176,1.02197,0.15213,0.15213,-0.15213,6.65501e+06
-0.0326538,0.00128174,1.01917,0.15213,0.15213,-0,6.65501e+06
-0.0326538,0.00128174,1.01917,0.15213,0.15213,-0,6.65501e+06
-0.0321655,0.00213623,1.01538,0.15213,0.15213,0.15213,6.65501e+06
-0.0342407,-0.00195312,1.02112,0.15213,0.15213,-0,6.65501e+06
-0.0342407,-0.00195312,1.02112,0.15213,0.15213,-0,6.65501e+06
-0.0319824,0.00292969,1.02325,0.15213,0.30426,-0,6.65501e+06
-0.0339355,-0.00195312,1.0177,0.15213,0.30426,0.15213,6.65501e+06
-0.0339355,-0.00195312,1.0177,0.15213,0.30426,0.15213,6.65501e+06
-0.0303955,0.00012207,1.02197,-0,-0,0.15213,6.65501e+06
 -0.03302,0.00158691,1.0235,-0,-0.15213,-0,6.65501e+06
 -0.03302,0.00158691,1.0235,-0,-0.15213,-0,6.65501e+06
-0.0327759,-0.000854492,1.02209,0.15213,0.15213,-0,6.65501e+06
-0.0307617,0.000793457,1.01904,0.15213,0.15213,0.30426,6.65501e+06
-0.0307617,0.000793457,1.01904,0.15213,0.15213,0.30426,6.65501e+06
-0.0322876,-0.00189209,1.01764,-0,0.15213,0.15213,6.65501e+06
-0.0352783,0.00292969,1.0174,-0,-0,-0,6.65501e+06
-0.0352783,0.00292969,1.0174,-0,-0,-0,6.65501e+06
-0.0335083,0.000671387,1.01886,-0.30426,-0,0.15213,6.65501e+06
-0.0366211,0.00115967,1.02063,-0,-0,0.15213,6.65501e+06
-0.0366211,0.00115967,1.02063,-0,-0,0.15213,6.65501e+06
-0.0353394,0.000488281,1.01605,-0,0.15213,0.15213,6.65501e+06
-0.0319824,0.00158691,1.01935,-0.15213,-0,-0,6.65501e+06
-0.0319824,0.00158691,1.01935,-0.15213,-0,-0,6.65501e+06
-0.0336304,0.00109863,1.01715,-0,-0.15213,0.15213,6.65501e+06
-0.0331421,-0.00152588,1.01569,-0.15213,0.15213,0.15213,6.65501e+06
-0.0322266,0.00292969,1.02032,-0,-0,-0,6.65501e+06
-0.0322266,0.00292969,1.02032,-0,-0,-0,6.65501e+06
-0.0339355,-0.000793457,1.01294,-0.15213,-0.15213,0.15213,6.65501e+06
-0.0339355,-0.000793457,1.01294,-0.15213,-0.15213,0.15213,6.65501e+06
-0.0332031,0.00128174,1.02228,0.15213,0.45639,0.15213,6.65501e+06
-0.0318604,0.00213623,1.0188,0.15213,0.30426,-0,6.65501e+06
-0.0318604,0.00213623,1.0188,0.15213,0.30426,-0,6.65501e+06
-0.0325928,0.000732422,1.02063,0.15213,0.15213,-0,6.65501e+06
-0.0320435,0.000183105,1.01984,0.15213,0.45639,-0.15213,6.65501e+06
-0.0320435,0.000183105,1.01984,0.15213,0.45639,-0.15213,6.65501e+06
-0.0317383,0.0012207,1.0177,0.15213,0.30426,-0.15213,6.65501e+06
-0.0302734,-0.00195312,1.01892,-0.15213,0.45639,0.30426,6.65501e+06
-0.0302734,-0.00195312,1.01892,-0.15213,0.45639,0.30426,6.65501e+06
-0.0335083,-0.000915527,1.01855,-0.15213,-0,-0,6.65501e+06
-0.0354614,0.00170898,1.02161,0.15213,0.30426,-0.15213,6.65501e+06
-0.0320435,-0.000488281,1.01917,-0,0.15213,-0,6.65501e+06
-0.0320435,-0.000488281,1.01917,-0,0.15213,-0,6.65501e+06
-0.0359497,-0.000976562,1.01764,-0,0.15213,-0.15213,6.65501e+06
-0.0359497,-0.000976562,1.01764,-0,0.15213,-0.15213,6.65501e+06
-0.0341797,-0.000244141,1.0166,0.15213,0.15213,-0,6.65501e+06
-0.0339355,-6.10352e-05,1.01855,-0,-0,0.15213,6.65501e+06
-0.0339355,-6.10352e-05,1.01855,-0,-0,0.15213,6.65501e+06
-0.0341187,-0.000427246,1.01599,0.15213,0.15213,0.45639,6.65501e+06
 -0.03479,-0.00012207,1.02216,-0.15213,-0,-0.15213,6.65501e+06
 -0.03479,-0.00012207,1.02216,-0.15213,-0,-0.15213,6.65501e+06
-0.0355225,-0.00256348,1.01154,-0,-0,-0,6.65501e+06
-0.0334473,-0.000976562,1.01959,0.30426,0.15213,0.45639,6.65501e+06
-0.0334473,-0.000976562,1.01959,0.30426,0.15213,0.45639,6.65501e+06
-0.0330811,-0.00250244,1.02258,0.15213,0.15213,-0,6.65501e+06
-0.0311279,-0.00421143,1.02032,-0,-0,-0.15213,6.65501e+06
-0.0311279,-0.00421143,1.02032,-0,-0,-0.15213,6.65501e+06
-0.0344849,-0.00274658,1.01477,-0,0.30426,0.15213,6.65501e+06
-0.0338135,-0.000549316,1.01654,-0.30426,0.15213,0.30426,6.65501e+06
-0.0350952,6.10352e-05,1.0213,0.15213,0.15213,-0,6.65501e+06
-0.0350952,6.10352e-05,1.0213,0.15213,0.15213,-0,6.65501e+06
-0.0309448,-0.00201416,1.01562,-0.15213,-0.15213,0.15213,6.65501e+06
-0.0309448,-0.00201416,1.01562,-0.15213,-0.15213,0.15213,6.65501e+06
-0.0326538,-0.000793457,1.01807,0.15213,0.15213,-0,6.65501e+06
-0.0339355,-0.000854492,1.01709,0.30426,0.15213,-0,6.65501e+06
-0.0339355,-0.000854492,1.01709,0.30426,0.15213,-0,6.65501e+06
-0.0333862,-0.000671387,1.01703,-0.15213,-0.30426,-0.30426,6.65501e+06
-0.0316772,-0.00177002,1.01971,-0,-0.15213,-0.15213,6.65501e+06
-0.0316772,-0.00177002,1.01971,-0,-0.15213,-0.15213,6.65501e+06
-0.0327148,0,1.02148,-0,0.15213,-0,6.65501e+06
-0.0353394,-0.00250244,1.02069,-0.15213,0.15213,0.30426,6.65501e+06
-0.0353394,-0.00250244,1.02069,-0.15213,0.15213,0.30426,6.65501e+06
-0.0350952,-0.00299072,1.0246,-0.15213,-0,-0.15213,6.65501e+06
-0.0327759,-0.00158691,1.01855,-0,-0,-0,6.65501e+06
-0.0327759,-0.00158691,1.01855,-0,-0,-0,6.65501e+06
-0.0332642,0.000488281,1.01837,0.15213,0.30426,0.15213,6.65501e+06
-0.0318604,-0.00128174,1.0202,-0,-0,0.15213,6.65501e+06
-0.0318604,-0.00128174,1.0202,-0,-0,0.15213,6.65501e+06
-0.0365601,-0.000183105,1.02234,-0,0.15213,-0,6.65501e+06
-0.0325317,-0.00158691,1.01904,-0,0.30426,-0,6.65501e+06
-0.0325317,-0.00158691,1.01904,-0,0.30426,-0,6.65501e+06
-0.0339355,-0.000366211,1.01886,-0,0.15213,-0,6.65501e+06
-0.0354614,-0.00158691,1.02539,-0,-0,-0,6.65501e+06
-0.0354614,-0.00158691,1.02539,-0,-0,-0,6.65501e+06
-0.032959,0.000488281,1.01984,-0.15213,0.15213,-0,6.65501e+06
-0.0319214,-0.000427246,1.01837,0.15213,0.15213,0.15213,6.65501e+06
-0.0319214,-0.000427246,1.01837,0.15213,0.15213,0.15213,6.65501e+06
-0.0354004,0.00128174,1.01593,0.15213,0.15213,-0,6.65501e+06
-0.0316772,0.00140381,1.01672,-0,-0,0.15213,6.65501e+06
-0.0338745,0.000854492,1.01941,0.15213,0.15213,-0.15213,6.65501e+06
-0.0338745,0.000854492,1.01941,0.15213,0.15213,-0.15213,6.65501e+06
-0.0362549,6.10352e-05,1.01813,0.30426,0.15213,-0,6.65501e+06
-0.0362549,6.10352e-05,1.01813,0.30426,0.15213,-0,6.65501e+06
-0.0336304,0.000793457,1.01636,0.30426,0.45639,-0,6.65501e+06
-0.0311279,-0.00183105,1.02026,-0.15213,-0,-0,6.65501e+06
-0.0311279,-0.00183105,1.02026,-0.15213,-0,-0,6.65501e+06
-0.0322266,0.00158691,1.02179,0.15213,0.15213,-0,6.65501e+06
-0.0316772,-0.000732422,1.01715,-0,0.15213,-0,6.65501e+06
-0.0316772,-0.000732422,1.01715,-0,0.15213,-0,6.65501e+06
-0.0332642,0.000366211,1.02197,0.15213,0.30426,-0.15213,6.65501e+06
-0.0334473,0.000671387,1.02454,0.15213,0.30426,-0.30426,6.65501e+06
-0.0334473,0.000671387,1.02454,0.15213,0.30426,-0.30426,6.65501e+06
-0.0341187,0.00140381,1.03851,0.15213,0.30426,-0,6.65501e+06
-0.0315552,0.00201416,1.02197,-0,-0.15213,0.30426,6.65501e+06
-0.0315552,0.00201416,1.02197,-0,-0.15213,0.30426,6.65501e+06
-0.0319824,6.10352e-05,1.0224,-0,-0,-0,6.65501e+06
-0.0309448,0.00109863,1.01794,-0,-0.15213,0.15213,6.65501e+06
-0.0322876,0.00311279,1.01862,0.15213,0.30426,0.15213,6.65501e+06
-0.0322876,0.00311279,1.01862,0.15213,0.30426,0.15213,6.65501e+06
-0.036438,0.000366211,1.02039,-0,-0,-0.15213,6.65501e+06
-0.036438,0.000366211,1.02039,-0,-0,-0.15213,6.65501e+06
-0.0342407,-0.000488281,1.01935,0.15213,0.30426,0.15213,6.65501e+06
-0.0322266,-0.000610352,1.01971,-0,-0.15213,0.15213,6.65501e+06
-0.0322266,-0.000610352,1.01971,-0,-0.15213,0.15213,6.65501e+06
-0.0319214,-0.00317383,1.02039,0.15213,0.15213,0.15213,6.65501e+06
-0.0333862,0.000854492,1.01904,-0,0.15213,0.30426,6.65501e+06
-0.0333862,0.000854492,1.01904,-0,0.15213,0.30426,6.65501e+06
-0.0325317,-0.000915527,1.02148,-0,-0,-0,6.65501e+06
-0.0340576,-0.00213623,1.01379,-0.15213,-0,-0.30426,6.65501e+06
-0.0340576,-0.00213623,1.01379,-0.15213,-0,-0.30426,6.65501e+06
-0.0331421,-0.0202637,1.01233,-0.30426,-0.15213,-0.15213,6.65501e+06
-0.0316772,0.0110474,1.0072,0.30426,-0.30426,-0.45639,6.65501e+06
-0.0316772,0.0110474,1.0072,0.30426,-0.30426,-0.45639,6.65501e+06
-0.0310669,0.0114136,1.01538,0.15213,0.45639,0.15213,6.65501e+06
-0.0380859,0.0057373,1.03387,0.15213,0.30426,0.30426,6.65501e+06
-0.0380859,0.0057373,1.03387,0.15213,0.30426,0.30426,6.65501e+06
-0.0374756,-0.00604248,1.01379,0.15213,0.15213,-0.30426,6.65501e+06
-0.0305786,-0.00366211,1.02368,0.15213,0.15213,-0.45639,6.65501e+06
-0.0305786,-0.00366211,1.02368,0.15213,0.15213,-0.45639,6.65501e+06
 -0.03125,-0.00164795,1.02081,0.15213,0.30426,-0.30426,6.65501e+06
-0.0357056,-0.00585938,1.01733,0.15213,0.15213,-0.15213,6.65501e+06
-0.0357056,-0.00585938,1.01733,0.15213,0.15213,-0.15213,6.65501e+06
-0.0390015,-0.00195312,1.02246,-0.15213,-0,0.45639,6.65501e+06
-0.0372925,-0.0055542,1.01678,0.15213,0.15213,0.30426,6.65501e+06
-0.0372925,-0.0055542,1.01678,0.15213,0.15213,0.30426,6.65501e+06
-0.0328369,0.000488281,1.01953,-0.30426,-0,0.15213,6.65501e+06
-0.0264893,0.00762939,1.02039,0.15213,0.15213,-0.15213,6.65501e+06
-0.0266724,0.00939941,1.01392,0.15213,0.15213,-0,6.65501e+06
-0.0266724,0.00939941,1.01392,0.15213,0.15213,-0,6.65501e+06
-0.0320435,0.00653076,1.01788,-0.15213,-0,0.608521,6.65501e+06
-0.0320435,0.00653076,1.01788,-0.15213,-0,0.608521,6.65501e+06
-0.0383911,-0.00488281,1.01599,0.15213,0.15213,0.30426,6.65501e+06
-0.0391235,-0.00726318,1.01898,-0.15213,0.30426,-0.15213,6.65501e+06
-0.0391235,-0.00726318,1.01898,-0.15213,0.30426,-0.15213,6.65501e+06
-0.0350952,-0.00170898,1.02283,0.15213,0.15213,-0,6.65501e+06
-0.0356445,-0.00115967,1.02258,0.15213,0.15213,0.30426,6.65501e+06
-0.0356445,-0.00115967,1.02258,0.15213,0.15213,0.30426,6.65501e+06
-0.0319214,-0.00311279,1.0213,-0,0.30426,0.15213,6.65501e+06
-0.031189,-0.00531006,1.02179,0.15213,0.30426,0.30426,6.65501e+06
-0.031189,-0.00531006,1.02179,0.15213,0.30426,0.30426,6.65501e+06
-0.0319824,0.00115967,1.01642,0.15213,0.15213,-0,6.65501e+06
-0.0343628,0.00366211,1.02228,-0.30426,0.15213,-0.30426,6.65501e+06
-0.0343628,0.00366211,1.02228,-0.30426,0.15213,-0.30426,6.65501e+06
-0.0342407,0.00799561,1.0191,-0.15213,-0,0.15213,6.65501e+06
-0.0360718,0.00341797,1.0274,0.15213,0.30426,0.15213,6.65501e+06
-0.0360718,0.00341797,1.0274,0.15213,0.30426,0.15213,6.65501e+06
-0.0358276,-0.00372314,1.01605,0.15213,0.15213,0.15213,6.65501e+06
-0.0341797,-0.00280762,1.0202,-0,0.15213,-0.15213,6.65501e+06
-0.0341797,-0.00280762,1.0202,-0,0.15213,-0.15213,6.65501e+06
-0.0307007,-0.00299072,1.02386,-0,-0,-0,6.65501e+06
-0.0328369,-0.0010376,1.02716,0.15213,0.30426,0.15213,6.65501e+06
-0.0328369,-0.0010376,1.02716,0.15213,0.30426,0.15213,6.65501e+06
-0.0336304,0.000854492,1.02136,0.15213,0.15213,-0,6.65501e+06
-0.0370483,-0.00427246,1.02338,0.45639,0.30426,0.30426,6.65501e+06
-0.0370483,-0.00427246,1.02338,0.45639,0.30426,0.30426,6.65501e+06
-0.0377808,-0.0012207,1.01746,0.15213,0.45639,-0,6.65501e+06
-0.0320435,0.000915527,1.01868,0.15213,0.15213,-0,6.65501e+06
-0.0316162,0.0012207,1.01727,-0,-0,-0.15213,6.65501e+06
-0.0316162,0.0012207,1.01727,-0,-0,-0.15213,6.65501e+06
-0.0313721,0.00109863,1.01636,-0.15213,-0.15213,-0,6.65501e+06
-0.0313721,0.00109863,1.01636,-0.15213,-0.15213,-0,6.65501e+06
-0.0321655,-0.000671387,1.02228,-0.15213,-0.30426,0.15213,6.65501e+06
-0.0348511,-0.000549316,1.01654,0.15213,0.30426,0.45639,6.65501e+06
-0.0348511,-0.000549316,1.01654,0.15213,0.30426,0.45639,6.65501e+06
-0.0349121,-0.0020752,1.02106,0.30426,0.15213,0.15213,6.65501e+06
-0.0341797,0.00213623,1.01556,0.15213,0.30426,-0.15213,6.65501e+06
-0.0341797,0.00213623,1.01556,0.15213,0.30426,-0.15213,6.65501e+06
-0.0322876,0.00244141,1.01917,-0,0.15213,0.15213,6.65501e+06
-0.034668,0.000366211,1.01813,-0,0.15213,0.15213,6.65501e+06
-0.034668,0.000366211,1.01813,-0,0.15213,0.15213,6.65501e+06
-0.0322876,-0.000366211,1.01617,0.15213,0.15213,0.30426,6.65501e+06
-0.0303955,0.00195312,1.01996,-0.15213,0.30426,-0,6.65501e+06
-0.0303955,0.00195312,1.01996,-0.15213,0.30426,-0,6.65501e+06
-0.0303345,0.00115967,1.01971,-0.15213,0.45639,-0,6.65501e+06
-0.0343018,-0.000976562,1.02222,0.15213,0.15213,0.15213,6.65501e+06
-0.034729,-0.000854492,1.02112,0.15213,0.15213,0.15213,6.65501e+06
-0.034729,-0.000854492,1.02112,0.15213,0.15213,0.15213,6.65501e+06
-0.0391846,-0.00360107,1.01898,0.15213,0.15213,0.15213,6.65501e+06
-0.0391846,-0.00360107,1.01898,0.15213,0.15213,0.15213,6.65501e+06
-0.0332031,-0.00286865,1.01996,-0,-0,0.30426,6.65501e+06
-0.0336914,-0.000732422,1.02014,0.15213,0.45639,-0,6.65501e+06
-0.0336914,-0.000732422,1.02014,0.15213,0.45639,-0,6.65501e+06
-0.0294189,-0.000854492,1.02057,-0,0.15213,-0,6.65501e+06
-0.0359497,0.00146484,1.01898,-0,0.15213,-0,6.65501e+06
-0.0359497,0.00146484,1.01898,-0,0.15213,-0,6.65501e+06
-0.034668,-0.000976562,1.01837,0.30426,0.30426,0.15213,6.65501e+06
-0.0355835,0.000549316,1.02057,-0,0.30426,-0,6.65501e+06
-0.0355835,0.000549316,1.02057,-0,0.30426,-0,6.65501e+06
-0.0319214,0.000183105,1.01837,-0.30426,0.15213,-0,6.65501e+06
-0.0305786,0.00213623,1.02032,-0.15213,-0,0.30426,6.65501e+06
-0.0305786,0.00213623,1.02032,-0.15213,-0,0.30426,6.65501e+06
-0.0309448,-0.000183105,1.021,0.15213,0.30426,0.15213,6.65501e+06
-0.0309448,-0.00469971,1.02032,-0,0.15213,0.15213,6.65501e+06
-0.0309448,-0.00469971,1.02032,-0,0.15213,0.15213,6.65501e+06
-0.0349121,-0.00262451,1.01685,0.15213,0.608521,-0,6.65501e+06
-0.0325928,-0.00341797,1.02069,0.15213,0.30426,-0.15213,6.65501e+06
-0.0325928,-0.00341797,1.02069,0.15213,0.30426,-0.15213,6.65501e+06
-0.0330811,0.00390625,1.01648,-0.15213,-0,-0,6.65501e+06
-0.0309448,-0.000244141,1.01428,0.15213,0.45639,0.30426,6.65501e+06
-0.0309448,-0.000244141,1.01428,0.15213,0.45639,0.30426,6.65501e+06
-0.0296021,-0.000366211,1.03046,-0.15213,0.30426,-0.15213,6.65501e+06
-0.0342407,0.0010376,1.01361,0.15213,-0.15213,-0,6.65501e+06
-0.0342407,0.0010376,1.01361,0.15213,-0.15213,-0,6.65501e+06
-0.0325928,0.00427246,1.0094,-0.45639,-0,-0.15213,6.65501e+06
-0.0358887,0.00128174,1.02753,-0.45639,-0,0.30426,6.65501e+06
-0.0358276,-0.00201416,1.00958,0.15213,0.608521,-0,6.65501e+06
-0.0358276,-0.00201416,1.00958,0.15213,0.608521,-0,6.65501e+06
-0.0332642,-0.00830078,1.00378,-0.30426,-0,-0.30426,6.65501e+06
-0.0332642,-0.00830078,1.00378,-0.30426,-0,-0.30426,6.65501e+06
-0.0384521,0.00317383,1.01392,-0.30426,0.15213,-0,6.65501e+06
-0.0286255,0,0.996521,-0,-0,-0.15213,6.65501e+06
-0.0286255,0,0.996521,-0,-0,-0.15213,6.65501e+06
-0.0339966,0.00372314,1.02692,-0.45639,0.45639,-0,6.65501e+06
-0.0322876,0.00262451,1.02087,0.15213,0.45639,-0,6.65501e+06
-0.0322876,0.00262451,1.02087,0.15213,0.45639,-0,6.65501e+06
-0.0327148,0,1.0163,-0.15213,0.608521,0.30426,6.65501e+06
-0.0328369,0,1.02045,-0.15213,-0.15213,-0,6.65501e+06
-0.0328369,0,1.02045,-0.15213,-0.15213,-0,6.65501e+06
-0.0308838,0.00384521,1.02472,0.15213,0.15213,-0.30426,6.65501e+06
-0.0310669,-0.00195312,1.02478,-0,0.15213,0.15213,6.65501e+06
-0.0310669,-0.00195312,1.02478,-0,0.15213,0.15213,6.65501e+06
-0.0351562,-0.00250244,1.02295,-0.15213,-0,-0,6.65501e+06
-0.0368652,-0.00408936,1.01941,0.15213,0.15213,0.15213,6.65501e+06
-0.0368652,-0.00408936,1.01941,0.15213,0.15213,0.15213,6.65501e+06
-0.0360107,-0.0022583,1.02496,0.15213,0.45639,-0,6.65501e+06
-0.032959,0.00189209,1.01709,0.15213,0.30426,-0.30426,6.65501e+06
-0.032959,0.00189209,1.01709,0.15213,0.30426,-0.30426,6.65501e+06
-0.0343628,0.00445557,1.01471,0.15213,0.15213,0.30426,6.65501e+06
-0.0299683,0.00244141,1.02032,0.15213,0.15213,0.30426,6.65501e+06
-0.0299683,0.00244141,1.02032,0.15213,0.15213,0.30426,6.65501e+06
 -0.02948,0.00256348,1.01599,-0,-0,0.45639,6.65501e+06
-0.0324707,0.00378418,1.02136,-0,-0,0.15213,6.65501e+06
-0.0324707,0.00378418,1.02136,-0,-0,0.15213,6.65501e+06
-0.0332642,0.00500488,1.01959,0.30426,0.45639,0.15213,6.65501e+06
-0.0350342,-0.000427246,1.01691,0.15213,0.15213,0.15213,6.65501e+06
-0.0350342,-0.000427246,1.01691,0.15213,0.15213,0.15213,6.65501e+06
-0.0369263,-0.00378418,1.02234,-0,-0,0.15213,6.65501e+06
-0.0332031,-0.00323486,1.02203,0.15213,0.608521,-0,6.65501e+06
-0.0332031,-0.00323486,1.02203,0.15213,0.608521,-0,6.65501e+06
-0.0300293,-0.00219727,1.02075,0.30426,0.15213,-0,6.65501e+06
-0.0325928,0.00183105,1.0152,-0,0.15213,-0,6.65501e+06
-0.0325928,0.00183105,1.0152,-0,0.15213,-0,6.65501e+06
-0.0292969,0.00366211,1.0191,-0,-0.30426,0.45639,6.65501e+06
-0.0307007,0.00292969,1.02185,-0,-0.15213,-0,6.65501e+06
-0.0307007,0.00292969,1.02185,-0,-0.15213,-0,6.65501e+06
-0.0320435,0.00146484,1.01501,-0,-0,0.15213,6.65501e+06
-0.0343628,6.10352e-05,1.01807,0.15213,0.15213,-0.15213,6.65501e+06
-0.0343628,6.10352e-05,1.01807,0.15213,0.15213,-0.15213,6.65501e+06
-0.0361938,-0.000183105,1.01971,0.45639,0.15213,0.15213,6.65501e+06
-0.0397949,-0.00128174,1.02161,0.15213,0.30426,0.15213,6.65501e+06
-0.0369263,-0.00653076,1.01703,-0,-0,0.30426,6.65501e+06
-0.0369263,-0.00653076,1.01703,-0,-0,0.30426,6.65501e+06
 -0.03302,-0.000427246,1.02368,0.15213,0.15213,0.30426,6.65501e+06
 -0.03302,-0.000427246,1.02368,0.15213,0.15213,0.30426,6.65501e+06
-0.0307007,-0.00012207,1.02216,0.15213,0.30426,0.15213,6.65501e+06
-0.0259399,0.00268555,1.01343,0.15213,-0,-0.30426,6.65501e+06
-0.0259399,0.00268555,1.01343,0.15213,-0,-0.30426,6.65501e+06
-0.0286255,0.00744629,1.02405,-0,0.15213,0.15213,6.65501e+06
-0.0314331,0.00372314,1.0213,0.15213,0.15213,-0,6.65501e+06
-0.0314331,0.00372314,1.0213,0.15213,0.15213,-0,6.65501e+06
-0.036438,0.0010376,1.02014,-0,0.15213,-0,6.65501e+06
-0.0375366,-0.000244141,1.01849,-0,0.15213,-0,6.65501e+06
-0.0375366,-0.000244141,1.01849,-0,0.15213,-0,6.65501e+06
-0.0352783,-0.000732422,1.01697,0.15213,0.15213,0.15213,6.65501e+06
-0.0320435,-0.00280762,1.02197,-0.30426,-0,0.15213,6.65501e+06
-0.0302124,-0.00219727,1.02258,-0,0.45639,-0,6.65501e+06
-0.0302124,-0.00219727,1.02258,-0,0.45639,-0,6.65501e+06
-0.0341797,-0.000549316,1.01752,0.15213,0.15213,-0,6.65501e+06
-0.0341797,-0.000549316,1.01752,0.15213,0.15213,-0,6.65501e+06
-0.0361328,-0.00408936,1.0097,-0,-0,-0.15213,6.65501e+06
-0.0319214,-0.00146484,1.02179,-0.15213,0.15213,0.30426,6.65501e+06
-0.0319214,-0.00146484,1.02179,-0.15213,0.15213,0.30426,6.65501e+06
-0.0309448,0.0012207,1.02161,0.15213,0.15213,-0.15213,6.65501e+06
-0.0289307,0.000976562,1.01349,-0,0.15213,-0.15213,6.65501e+06
-0.0289307,0.000976562,1.01349,-0,0.15213,-0.15213,6.65501e+06
-0.031311,-0.00390625,1.01923,0.15213,0.45639,0.15213,6.65501e+06
-0.0351562,0.00152588,1.02222,-0.15213,-0,-0,6.65501e+06
-0.0351562,0.00152588,1.02222,-0.15213,-0,-0,6.65501e+06
-0.0339355,0.00286865,1.02148,-0,0.15213,-0,6.65501e+06
-0.0351562,0.00177002,1.01556,0.15213,0.30426,-0.45639,6.65501e+06
-0.0351562,0.00177002,1.01556,0.15213,0.30426,-0.45639,6.65501e+06
-0.0345459,0.000915527,1.01764,0.15213,0.15213,-0.30426,6.65501e+06
-0.0358887,0.000305176,1.01819,0.15213,0.15213,0.45639,6.65501e+06
-0.0358887,0.000305176,1.01819,0.15213,0.15213,0.45639,6.65501e+06
-0.0372925,-0.00286865,1.01672,-0,-0.15213,-0,6.65501e+06
-0.0294189,-0.00158691,1.02295,0.15213,0.15213,-0.15213,6.65501e+06
-0.0294189,-0.00158691,1.02295,0.15213,0.15213,-0.15213,6.65501e+06
-0.0286255,0.000244141,1.02399,-0,-0,-0,6.65501e+06
-0.0308228,0.00274658,1.01624,0.15213,0.15213,0.15213,6.65501e+06
-0.0308228,0.00274658,1.01624,0.15213,0.15213,0.15213,6.65501e+06
-0.0377197,0.00152588,1.01862,-0,-0.30426,0.15213,6.65501e+06
-0.0369873,-0.000549316,1.01361,-0.15213,-0,0.30426,6.65501e+06
-0.0369873,-0.000549316,1.01361,-0.15213,-0,0.30426,6.65501e+06
-0.0343628,0.00146484,1.01819,-0,-0,-0.15213,6.65501e+06
-0.0319824,0.00476074,1.02496,0.30426,0.15213,0.15213,6.65501e+06
-0.0319824,0.00476074,1.02496,0.30426,0.15213,0.15213,6.65501e+06
-0.0336914,0.00231934,1.02075,-0,-0,0.15213,6.65501e+06
 -0.03302,0.000183105,1.02014,0.45639,0.15213,0.15213,6.65501e+06
-0.0307617,-0.003479,1.01697,0.15213,0.30426,-0,6.65501e+06
-0.0307617,-0.003479,1.01697,0.15213,0.30426,-0,6.65501e+06
-0.0326538,-0.00195312,1.02783,-0,0.15213,0.30426,6.65501e+06
-0.0357056,-0.00488281,1.02148,0.15213,0.15213,-0,6.65501e+06
-0.0357056,-0.00488281,1.02148,0.15213,0.15213,-0,6.65501e+06
-0.0355225,-0.00354004,1.01477,0.15213,0.30426,0.15213,6.65501e+06
-0.0355225,-0.00354004,1.01477,0.15213,0.30426,0.15213,6.65501e+06
-0.0325317,-0.0022583,1.02246,-0,-0,-0,6.65501e+06
-0.0336304,-0.00280762,1.01898,-0,-0.15213,-0,6.65501e+06
-0.0336304,-0.00280762,1.01898,-0,-0.15213,-0,6.65501e+06
-0.0360718,-0.00012207,1.01752,0.30426,0.30426,-0,6.65501e+06
-0.0303955,0.00286865,1.01965,-0,-0,-0,6.65501e+06
-0.0303955,0.00286865,1.01965,-0,-0,-0,6.65501e+06
-0.0339355,0.00219727,1.02466,0.15213,0.15213,0.15213,6.65501e+06
-0.0355835,0.00305176,1.021,0.15213,0.15213,-0.15213,6.65501e+06
-0.0355835,0.00305176,1.021,0.15213,0.15213,-0.15213,6.65501e+06
-0.0307007,-0.00158691,1.02094,0.15213,-0,0.15213,6.65501e+06
-0.0339355,0.00158691,1.02258,-0.15213,-0,0.15213,6.65501e+06
-0.0318604,-0.00183105,1.02301,0.15213,0.15213,-0,6.65501e+06
-0.0318604,-0.00183105,1.02301,0.15213,0.15213,-0,6.65501e+06
-0.0368652,-0.00262451,1.02209,0.15213,0.15213,0.15213,6.65501e+06
-0.0368652,-0.00262451,1.02209,0.15213,0.15213,0.15213,6.65501e+06
-0.0318604,-0.00354004,1.02118,0.15213,0.45639,-0,6.65501e+06
-0.0351562,-0.00213623,1.01703,0.15213,0.15213,0.30426,6.65501e+06
-0.0351562,-0.00213623,1.01703,0.15213,0.15213,0.30426,6.65501e+06
-0.0378418,-0.00109863,1.02283,0.30426,0.30426,0.30426,6.65501e+06
-0.0328369,0.000427246,1.01862,-0,-0.15213,-0.15213,6.65501e+06
-0.0328369,0.000427246,1.01862,-0,-0.15213,-0.15213,6.65501e+06
-0.0366821,0.00128174,1.02209,-0,-0,0.15213,6.65501e+06
-0.0307007,0.00146484,1.01691,0.15213,0.15213,-0,6.65501e+06
-0.0307007,0.00146484,1.01691,0.15213,0.15213,-0,6.65501e+06
-0.0307007,0.0020752,1.02228,0.15213,0.15213,-0.15213,6.65501e+06
-0.0302734,-0.00213623,1.01929,-0.30426,0.15213,-0.30426,6.65501e+06
-0.0302734,-0.00213623,1.01929,-0.30426,0.15213,-0.30426,6.65501e+06
-0.031311,-0.00299072,1.01929,-0.30426,-0,-0,6.65501e+06
-0.0324707,-0.00317383,1.02325,0.15213,0.15213,-0,6.65501e+06
-0.0324707,-0.00317383,1.02325,0.15213,0.15213,-0,6.65501e+06
-0.0358887,-0.0022583,1.01477,-0,0.15213,-0,6.65501e+06
-0.0344238,-0.000915527,1.01947,-0.15213,-0.45639,0.15213,6.65501e+06
-0.0344238,-0.000915527,1.01947,-0.15213,-0.45639,0.15213,6.65501e+06
-0.0335083,0.00286865,1.01923,-0,-0,0.30426,6.65501e+06
-0.0339355,0.00213623,1.02051,0.15213,0.30426,-0.15213,6.65501e+06
-0.0339355,0.00213623,1.02051,0.15213,0.30426,-0.15213,6.65501e+06
-0.0339966,0.00427246,1.02142,0.30426,0.15213,0.15213,6.65501e+06
-0.0341797,0.00115967,1.01074,-0.15213,0.15213,-0.15213,6.65501e+06
-0.0341797,0.00115967,1.01074,-0.15213,0.15213,-0.15213,6.65501e+06
-0.034729,0.00152588,1.02368,0.15213,0.45639,0.15213,6.65501e+06
 -0.03125,-0.003479,1.02075,-0,-0,0.15213,6.65501e+06
-0.0339966,-0.000488281,1.02203,0.15213,0.30426,0.15213,6.65501e+06
-0.0339966,-0.000488281,1.02203,0.15213,0.30426,0.15213,6.65501e+06
-0.0341187,-0.00231934,1.0141,-0.15213,-0.15213,0.30426,6.65501e+06
-0.0341187,-0.00231934,1.0141,-0.15213,-0.15213,0.30426,6.65501e+06
-0.0339355,-0.00286865,1.01831,0.15213,0.15213,-0.15213,6.65501e+06
-0.0355225,-0.0012207,1.01984,0.30426,0.45639,0.15213,6.65501e+06
-0.0355225,-0.0012207,1.01984,0.30426,0.45639,0.15213,6.65501e+06
-0.034668,0.000793457,1.01947,0.15213,0.30426,0.15213,6.65501e+06
-0.0328979,0.000305176,1.02002,-0.15213,0.45639,-0.15213,6.65501e+06
-0.0328979,0.000305176,1.02002,-0.15213,0.45639,-0.15213,6.65501e+06
-0.0325317,0.00421143,1.01837,0.15213,0.30426,-0,6.65501e+06
-0.0336914,0,1.01721,-0.15213,-0.15213,0.15213,6.65501e+06
-0.0336914,0,1.01721,-0.15213,-0.15213,0.15213,6.65501e+06
-0.031311,0.00280762,1.01611,0.15213,0.15213,0.15213,6.65501e+06
-0.0340576,0.00134277,1.01697,-0,-0,-0,6.65501e+06
-0.0319214,0.0022583,1.01752,0.15213,0.15213,-0.15213,6.65501e+06
-0.0319214,0.0022583,1.01752,0.15213,0.15213,-0.15213,6.65501e+06
-0.0357056,-0.00335693,1.02203,0.15213,0.30426,-0.15213,6.65501e+06
-0.0357056,-0.00335693,1.02203,0.15213,0.30426,-0.15213,6.65501e+06
-0.0352783,-0.00109863,1.01514,0.15213,0.15213,-0.15213,6.65501e+06
-0.0354614,-0.000732422,1.01819,-0,-0,0.30426,6.65501e+06
-0.0354614,-0.000732422,1.01819,-0,-0,0.30426,6.65501e+06
-0.0361938,-0.000488281,1.01672,-0.30426,-0.15213,0.15213,6.65501e+06
-0.0316162,0.00213623,1.02094,0.15213,0.30426,0.15213,6.65501e+06
-0.0316162,0.00213623,1.02094,0.15213,0.30426,0.15213,6.65501e+06
-0.031189,0.00323486,1.02319,-0,-0,0.15213,6.65501e+06
-0.0342407,0.00299072,1.01947,0.15213,0.30426,0.15213,6.65501e+06
-0.0342407,0.00299072,1.01947,0.15213,0.30426,0.15213,6.65501e+06
-0.0325317,0.00341797,1.02069,0.15213,0.608521,-0,6.65501e+06
-0.0348511,-0.000305176,1.01709,0.30426,0.30426,-0.15213,6.65501e+06
-0.0348511,-0.000305176,1.01709,0.30426,0.30426,-0.15213,6.65501e+06
-0.0357666,-0.0010376,1.02319,-0.15213,-0,-0.15213,6.65501e+06
-0.0342407,-0.00378418,1.02057,0.15213,0.45639,-0,6.65501e+06
-0.0360107,-0.00311279,1.02338,-0.15213,-0,-0,6.65501e+06
-0.0360107,-0.00311279,1.02338,-0.15213,-0,-0,6.65501e+06
-0.0342407,-0.00396729,1.01611,0.15213,0.30426,-0,6.65501e+06
-0.0342407,-0.00396729,1.01611,0.15213,0.30426,-0,6.65501e+06
-0.0352783,-0.00219727,1.02039,0.15213,0.15213,0.15213,6.65501e+06
-0.0345459,-0.000244141,1.02325,0.15213,0.30426,0.15213,6.65501e+06
-0.0345459,-0.000244141,1.02325,0.15213,0.30426,0.15213,6.65501e+06
-0.0344849,0.003479,1.02167,-0,-0,0.15213,6.65501e+06
-0.0332031,0.00164795,1.0199,-0.15213,-0,-0.15213,6.65501e+06
-0.0332031,0.00164795,1.0199,-0.15213,-0,-0.15213,6.65501e+06
-0.0321655,0.00262451,1.01733,-0,-0,0.30426,6.65501e+06
-0.0342407,0.000549316,1.01825,0.15213,0.30426,0.15213,6.65501e+06
-0.0335693,0.000854492,1.01855,-0,0.30426,-0,6.65501e+06
-0.0335693,0.000854492,1.01855,-0,0.30426,-0,6.65501e+06
-0.0330811,-0.00189209,1.02161,0.15213,0.45639,-0.15213,6.65501e+06
-0.0330811,-0.00189209,1.02161,0.15213,0.45639,-0.15213,6.65501e+06
-0.0352783,-0.00299072,1.02454,-0,-0,-0,6.65501e+06
-0.0338135,-0.00152588,1.02014,-0,-0,0.45639,6.65501e+06
-0.0338135,-0.00152588,1.02014,-0,-0,0.45639,6.65501e+06
-0.0341797,-0.00164795,1.02374,0.15213,0.30426,-0,6.65501e+06
-0.0326538,0.00109863,1.0202,-0,-0,0.15213,6.65501e+06
-0.0326538,0.00109863,1.0202,-0,-0,0.15213,6.65501e+06
-0.0352783,0.00366211,1.01215,0.15213,0.30426,-0.15213,6.65501e+06
-0.034729,0.00305176,1.01703,0.15213,0.15213,-0,6.65501e+06
-0.034729,0.00305176,1.01703,0.15213,0.15213,-0,6.65501e+06
-0.0332642,0.00274658,1.02246,-0,0.45639,-0,6.65501e+06
-0.0361328,0.0010376,1.02045,0.30426,0.15213,0.15213,6.65501e+06
-0.0367432,-0.00134277,1.01575,-0,-0.15213,0.15213,6.65501e+06
-0.0367432,-0.00134277,1.01575,-0,-0.15213,0.15213,6.65501e+06
-0.0369263,-0.000610352,1.02075,0.15213,0.30426,-0,6.65501e+06
-0.036499,-0.00109863,1.01825,0.15213,0.15213,-0,6.65501e+06
-0.036499,-0.00109863,1.01825,0.15213,0.15213,-0,6.65501e+06
-0.0355835,-0.00134277,1.021,0.15213,0.15213,-0.15213,6.65501e+06
-0.0355835,-0.00134277,1.021,0.15213,0.15213,-0.15213,6.65501e+06
-0.0349121,-0.00177002,1.01965,-0,-0.15213,0.15213,6.65501e+06
-0.0330811,0.000976562,1.02289,-0,-0,-0,6.65501e+06
-0.0330811,0.000976562,1.02289,-0,-0,-0,6.65501e+06
-0.0333862,0.00012207,1.01825,-0,-0,0.15213,6.65501e+06
-0.034729,0.00128174,1.01788,0.15213,0.30426,0.15213,6.65501e+06
-0.034729,0.00128174,1.01788,0.15213,0.30426,0.15213,6.65501e+06
-0.0342407,0.00280762,1.01984,-0.15213,-0,-0,6.65501e+06
-0.0384521,0.00366211,1.01886,0.15213,0.30426,0.30426,6.65501e+06
-0.0355225,-0.000427246,1.01819,-0,0.15213,-0,6.65501e+06
-0.0355225,-0.000427246,1.01819,-0,0.15213,-0,6.65501e+06
-0.0349731,0.000915527,1.01544,0.15213,0.15213,-0,6.65501e+06
-0.0349731,0.000915527,1.01544,0.15213,0.15213,-0,6.65501e+06
-0.0307007,-0.00012207,1.02161,0.15213,0.30426,-0,6.65501e+06
-0.0324707,-0.00183105,1.02295,-0.15213,-0,0.30426,6.65501e+06
-0.0324707,-0.00183105,1.02295,-0.15213,-0,0.30426,6.65501e+06
-0.0328369,-0.00195312,1.01794,-0.15213,-0,-0,6.65501e+06
-0.0323486,0.00146484,1.01764,-0,-0,0.15213,6.65501e+06
-0.0323486,0.00146484,1.01764,-0,-0,0.15213,6.65501e+06
-0.0334473,0.0020752,1.0174,0.15213,0.30426,-0,6.65501e+06
-0.0366211,0.000244141,1.01843,-0,-0.15213,-0.15213,6.65501e+06
-0.0366211,0.000244141,1.01843,-0,-0.15213,-0.15213,6.65501e+06
-0.0343018,-0.000854492,1.02417,0.15213,0.15213,0.15213,6.65501e+06
-0.0338135,0.000488281,1.01941,0.15213,0.608521,0.15213,6.65501e+06
 -0.03125,0.000732422,1.01825,-0,-0.30426,-0,6.65501e+06
 -0.03125,0.000732422,1.01825,-0,-0.30426,-0,6.65501e+06
-0.0335083,-0.000732422,1.0188,0.15213,0.15213,-0,6.65501e+06
-0.0345459,-0.00128174,1.01776,0.15213,0.30426,-0.30426,6.65501e+06
-0.0345459,-0.00128174,1.01776,0.15213,0.30426,-0.30426,6.65501e+06
-0.0331421,-0.00366211,1.02026,-0,-0.15213,0.15213,6.65501e+06
-0.0331421,-0.00366211,1.02026,-0,-0.15213,0.15213,6.65501e+06
-0.0338135,0.000976562,1.01788,0.15213,0.15213,-0,6.65501e+06
-0.0325928,0.0010376,1.02429,-0,-0.30426,-0,6.65501e+06
-0.0325928,0.0010376,1.02429,-0,-0.30426,-0,6.65501e+06
-0.0336914,0.00213623,1.01776,0.15213,0.15213,-0,6.65501e+06
-0.032959,0.00134277,1.01703,-0.15213,-0,-0,6.65501e+06
-0.032959,0.00134277,1.01703,-0.15213,-0,-0,6.65501e+06
-0.0349121,0.00524902,1.01801,0.15213,0.30426,-0,6.65501e+06
 -0.03302,0.000366211,1.02026,-0.15213,0.45639,0.15213,6.65501e+06
-0.0333252,-0.000305176,1.02271,-0.30426,-0,0.15213,6.65501e+06
-0.0333252,-0.000305176,1.02271,-0.30426,-0,0.15213,6.65501e+06
-0.034729,0.000183105,1.01971,0.30426,0.30426,0.15213,6.65501e+06
-0.0349731,-0.00128174,1.02148,0.15213,0.15213,0.30426,6.65501e+06
-0.0349731,-0.00128174,1.02148,0.15213,0.15213,0.30426,6.65501e+06
-0.0316772,-0.000366211,1.01843,0.15213,0.45639,0.15213,6.65501e+06
-0.0316772,-0.000366211,1.01843,0.15213,0.45639,0.15213,6.65501e+06
-0.0351562,-0.000305176,1.02386,-0.15213,0.15213,0.30426,6.65501e+06
-0.0340576,-0.00134277,1.01538,-0,0.30426,-0,6.65501e+06
-0.0340576,-0.00134277,1.01538,-0,0.30426,-0,6.65501e+06
-0.0346069,0.000549316,1.01782,0.15213,0.15213,-0,6.65501e+06
-0.036499,-0.000305176,1.01764,-0,-0.15213,0.15213,6.65501e+06
-0.036499,-0.000305176,1.01764,-0,-0.15213,0.15213,6.65501e+06
-0.0361328,0.00134277,1.02551,0.15213,0.30426,-0,6.65501e+06
-0.034729,0.000305176,1.021,0.15213,0.15213,-0,6.65501e+06
-0.034729,0.000305176,1.021,0.15213,0.15213,-0,6.65501e+06
-0.0315552,-0.000976562,1.01825,-0.15213,0.15213,0.45639,6.65501e+06
-0.0338745,-0.000366211,1.01642,-0,-0.15213,-0,6.65501e+06
-0.032959,-0.000305176,1.021,-0,-0.15213,-0,6.65501e+06
-0.032959,-0.000305176,1.021,-0,-0.15213,-0,6.65501e+06
-0.0335083,0.00012207,1.01489,0.15213,0.15213,0.30426,6.65501e+06
-0.0335083,0.00012207,1.01489,0.15213,0.15213,0.30426,6.65501e+06
-0.0374146,-0.000427246,1.02246,-0,-0,-0,6.65501e+06
-0.0348511,0.00012207,1.02063,-0,-0,-0.15213,6.65501e+06
-0.0348511,0.00012207,1.02063,-0,-0,-0.15213,6.65501e+06
-0.0330811,-0.000244141,1.01733,-0,-0.15213,-0,6.65501e+06
-0.0322266,-0.00170898,1.00616,-0,-0.30426,-0,6.65501e+06
-0.0322266,-0.00170898,1.00616,-0,-0.30426,-0,6.65501e+06
-0.0317383,0.000610352,1.02368,0.15213,0.15213,-0.15213,6.65501e+06
-0.0309448,-0.00201416,1.02808,-0,0.15213,-0,6.65501e+06
-0.0309448,-0.00201416,1.02808,-0,0.15213,-0,6.65501e+06
-0.0307617,-0.00219727,1.01959,0.15213,0.15213,-0,6.65501e+06
-0.0355225,-0.00177002,1.01666,-0.15213,-0,-0,6.65501e+06
-0.0356445,0.000366211,1.01587,0.15213,-0.15213,0.15213,6.65501e+06
-0.0356445,0.000366211,1.01587,0.15213,-0.15213,0.15213,6.65501e+06
-0.036499,0.000183105,1.01868,0.15213,0.15213,0.15213,6.65501e+06
-0.0330811,0.0012207,1.0285,0.15213,0.45639,0.15213,6.65501e+06
-0.0330811,0.0012207,1.0285,0.15213,0.45639,0.15213,6.65501e+06
-0.0316772,0.00268555,1.02148,-0,-0.15213,-0,6.65501e+06
-0.0316772,0.00268555,1.02148,-0,-0.15213,-0,6.65501e+06
-0.0323486,0.000976562,1.01575,-0,-0,0.30426,6.65501e+06
-0.0333862,0.000366211,1.01721,0.15213,0.30426,0.30426,6.65501e+06
-0.0333862,0.000366211,1.01721,0.15213,0.30426,0.30426,6.65501e+06
-0.0310059,0.000305176,1.0188,0.15213,0.15213,0.15213,6.65501e+06
-0.0366821,-0.00384521,1.02313,0.30426,0.15213,0.30426,6.65501e+06
-0.0366821,-0.00384521,1.02313,0.30426,0.15213,0.30426,6.65501e+06
-0.0326538,-0.00195312,1.02014,0.15213,0.30426,-0.30426,6.65501e+06
-0.0348511,-0.00219727,1.02118,0.15213,0.30426,0.15213,6.65501e+06
-0.0318604,-0.00164795,1.02246,-0,-0.15213,0.15213,6.65501e+06
-0.0318604,-0.00164795,1.02246,-0,-0.15213,0.15213,6.65501e+06
-0.0352783,-0.00311279,1.0166,0.15213,0.608521,-0,6.65501e+06
-0.0352783,-0.00311279,1.0166,0.15213,0.608521,-0,6.65501e+06
-0.0353394,0.000854492,1.02094,0.15213,0.30426,-0.15213,6.65501e+06
-0.0303955,0.00201416,1.02411,-0,-0,-0.15213,6.65501e+06
-0.0303955,0.00201416,1.02411,-0,-0,-0.15213,6.65501e+06
-0.0354004,0.00231934,1.02118,0.15213,0.15213,0.15213,6.65501e+06
-0.031311,0.00128174,1.01501,0.15213,0.15213,0.15213,6.65501e+06
-0.031311,0.00128174,1.01501,0.15213,0.15213,0.15213,6.65501e+06
-0.0339966,-0.00250244,1.01489,0.15213,0.15213,0.15213,6.65501e+06
-0.0316772,-0.00219727,1.02344,0.15213,0.608521,-0,6.65501e+06
-0.0316772,-0.00219727,1.02344,0.15213,0.608521,-0,6.65501e+06
 -0.02948,-0.00268555,1.02179,0.30426,0.15213,-0,6.65501e+06
-0.0323486,0.000244141,1.01782,-0,-0.15213,-0.15213,6.65501e+06
-0.0323486,0.000244141,1.01782,-0,-0.15213,-0.15213,6.65501e+06
-0.0316162,-0.000366211,1.02106,0.15213,0.30426,-0.15213,6.65501e+06
-0.0334473,-0.00183105,1.02124,0.30426,0.30426,0.30426,6.65501e+06
-0.0352173,0.0010376,1.02081,0.30426,0.30426,0.15213,6.65501e+06
-0.0352173,0.0010376,1.02081,0.30426,0.30426,0.15213,6.65501e+06
-0.0300293,0.000244141,1.01624,-0,-0,0.15213,6.65501e+06
-0.0300293,0.000244141,1.01624,-0,-0,0.15213,6.65501e+06
-0.0344849,0.00427246,1.01801,0.15213,0.15213,0.30426,6.65501e+06
-0.0340576,0.00262451,1.0163,-0,-0.15213,0.15213,6.65501e+06
-0.0340576,0.00262451,1.0163,-0,-0.15213,0.15213,6.65501e+06
-0.0335083,-0.000732422,1.01678,-0.15213,-0.15213,0.15213,6.65501e+06
-0.0328369,-0.00317383,1.01794,-0,-0.15213,-0,6.65501e+06
-0.0328369,-0.00317383,1.01794,-0,-0.15213,-0,6.65501e+06
-0.0315552,-0.00292969,1.01715,0.15213,0.30426,-0,6.65501e+06
-0.0339355,-0.00164795,1.0191,-0,-0.30426,-0,6.65501e+06
-0.0339355,-0.00164795,1.0191,-0,-0.30426,-0,6.65501e+06
-0.0325928,-0.0022583,1.02728,0.15213,0.30426,-0,6.65501e+06
-0.0351562,0.00244141,1.0155,0.15213,0.15213,-0,6.65501e+06
-0.0366821,0.000976562,1.01886,-0,-0.45639,-0.15213,6.65501e+06
-0.0366821,0.000976562,1.01886,-0,-0.45639,-0.15213,6.65501e+06
-0.0348511,-0.000488281,1.02435,0.30426,0.45639,0.15213,6.65501e+06
-0.0348511,-0.000488281,1.02435,0.30426,0.45639,0.15213,6.65501e+06
-0.0309448,0.00384521,1.01593,-0.15213,-0.15213,-0,6.65501e+06
-0.0339966,-0.000549316,1.02252,0.15213,0.15213,0.15213,6.65501e+06
-0.0339966,-0.000549316,1.02252,0.15213,0.15213,0.15213,6.65501e+06
-0.0357056,0.000244141,1.01758,0.15213,0.15213,0.30426,6.65501e+06
-0.0328369,0.0022583,1.02264,0.30426,0.30426,-0,6.65502e+06
-0.0328369,0.0022583,1.02264,0.30426,0.30426,-0,6.65502e+06
-0.0338745,-0.00109863,1.01978,-0,0.15213,0.15213,6.65502e+06
-0.0334473,0.000488281,1.01587,-0,0.30426,0.15213,6.65502e+06
-0.0334473,0.000488281,1.01587,-0,0.30426,0.15213,6.65502e+06
-0.0377808,0.000854492,1.01923,0.15213,0.30426,0.45639,6.65502e+06
-0.0362549,0.000610352,1.021,-0.15213,-0,-0,6.65502e+06
-0.034668,0.000244141,1.01849,0.15213,0.30426,0.15213,6.65502e+06
-0.034668,0.000244141,1.01849,0.15213,0.30426,0.15213,6.65502e+06
-0.0309448,0.0012207,1.01666,0.30426,0.30426,0.15213,6.65502e+06
-0.0309448,0.0012207,1.01666,0.30426,0.30426,0.15213,6.65502e+06
-0.0335083,0.00286865,1.01611,-0,-0,0.15213,6.65502e+06
-0.0350952,0.00195312,1.02026,-0.30426,-0.15213,-0.15213,6.65502e+06
-0.0350952,0.00195312,1.02026,-0.30426,-0.15213,-0.15213,6.65502e+06
-0.0333862,6.10352e-05,1.0238,0.15213,0.30426,0.15213,6.65502e+06
-0.0333252,6.10352e-05,1.02637,-0.15213,-0,-0,6.65502e+06
-0.0333252,6.10352e-05,1.02637,-0.15213,-0,-0,6.65502e+06
-0.0344849,0.000366211,1.01794,0.15213,0.15213,0.30426,6.65502e+06
-0.0339966,-0.000305176,1.02362,0.30426,0.15213,-0,6.65502e+06
-0.0339966,-0.000305176,1.02362,0.30426,0.15213,-0,6.65502e+06
-0.0339355,-0.00390625,1.02277,-0,-0.30426,0.15213,6.65502e+06
-0.0309448,-0.00250244,1.02301,0.15213,0.15213,-0,6.65502e+06
-0.036377,0.00140381,1.01917,0.30426,0.30426,0.15213,6.65502e+06
-0.036377,0.00140381,1.01917,0.30426,0.30426,0.15213,6.65502e+06
-0.0321655,0.00201416,1.01923,0.15213,0.15213,0.30426,6.65502e+06
-0.0321655,0.00201416,1.01923,0.15213,0.15213,0.30426,6.65502e+06
-0.0333252,0.00280762,1.02161,-0.30426,0.15213,0.30426,6.65502e+06
-0.0337524,0.00170898,1.01758,0.15213,0.15213,0.15213,6.65502e+06
-0.0337524,0.00170898,1.01758,0.15213,0.15213,0.15213,6.65502e+06
-0.0338135,-0.000305176,1.01697,-0,-0,-0.15213,6.65502e+06
-0.0335083,-0.00299072,1.02008,-0.15213,-0,0.15213,6.65502e+06
-0.0335083,-0.00299072,1.02008,-0.15213,-0,0.15213,6.65502e+06
-0.0354004,-0.00183105,1.01715,-0,0.15213,-0,6.65502e+06
-0.0344238,-0.000976562,1.02032,0.15213,0.15213,-0,6.65502e+06
-0.0344238,-0.000976562,1.02032,0.15213,0.15213,-0,6.65502e+06
-0.0321045,-0.000366211,1.01959,0.30426,0.30426,-0,6.65502e+06
 -0.03479,-0.00286865,1.02173,-0,-0.15213,-0,6.65502e+06
-0.0327759,0.000915527,1.0174,-0,-0,0.15213,6.65502e+06
-0.0327759,0.000915527,1.0174,-0,-0,0.15213,6.65502e+06
-0.0350952,0.000305176,1.01721,-0,-0.15213,0.15213,6.65502e+06
-0.0350952,0.000305176,1.01721,-0,-0.15213,0.15213,6.65502e+06
-0.031189,0.000488281,1.01917,0.15213,0.15213,0.15213,6.65502e+06
-0.0311279,0.00177002,1.02478,0.15213,0.30426,0.15213,6.65502e+06
-0.0311279,0.00177002,1.02478,0.15213,0.30426,0.15213,6.65502e+06
-0.0327148,-0.0012207,1.02106,0.15213,0.45639,0.15213,6.65502e+06
-0.0350342,-0.00427246,1.01581,0.15213,0.45639,-0.45639,6.65502e+06
-0.0350342,-0.00427246,1.01581,0.15213,0.45639,-0.45639,6.65502e+06
-0.0356445,-0.00305176,1.02087,0.30426,0.608521,-0,6.65502e+06
-0.0335693,0.00012207,1.01636,-0,-0.15213,0.15213,6.65502e+06
-0.0335693,0.00012207,1.01636,-0,-0.15213,0.15213,6.65502e+06
-0.0314941,-0.00219727,1.02106,0.15213,0.30426,-0,6.65502e+06
 -0.03302,-0.00146484,1.0238,-0,-0,-0,6.65502e+06
-0.0333252,0.000732422,1.01715,-0,-0.15213,0.15213,6.65502e+06
-0.0333252,0.000732422,1.01715,-0,-0.15213,0.15213,6.65502e+06
-0.0345459,0.00152588,1.01849,-0,-0.15213,0.15213,6.65502e+06
 -0.03302,0.000488281,1.0238,0.15213,0.30426,0.15213,6.65502e+06
 -0.03302,0.000488281,1.0238,0.15213,0.30426,0.15213,6.65502e+06
-0.0356445,0,1.01929,-0,-0,-0,6.65502e+06
-0.0356445,0,1.01929,-0,-0,-0,6.65502e+06
-0.0341187,-0.000671387,1.01709,-0,-0,0.15213,6.65502e+06
-0.0358887,0.000305176,1.02277,-0,-0.608521,0.15213,6.65502e+06
-0.0358887,0.000305176,1.02277,-0,-0.608521,0.15213,6.65502e+06
-0.0344238,-0.000671387,1.02039,-0.15213,-0,-0,6.65502e+06
-0.0357056,-0.000915527,1.01892,0.15213,0.15213,0.30426,6.65502e+06
-0.0357056,-0.000915527,1.01892,0.15213,0.15213,0.30426,6.65502e+06
-0.0339966,-0.00164795,1.01721,-0,-0,0.45639,6.65502e+06
-0.0357056,0.000549316,1.02179,0.15213,0.30426,0.30426,6.65502e+06
-0.0357056,0.000549316,1.02179,0.15213,0.30426,0.30426,6.65502e+06
-0.0337524,0.000976562,1.02148,-0.15213,-0,-0,6.65502e+06
-0.0339355,-0.00164795,1.01868,-0,-0.15213,0.15213,6.65502e+06
-0.0339355,-0.00164795,1.01868,-0,-0.15213,0.15213,6.65502e+06
-0.032959,-0.00109863,1.02087,0.15213,0.15213,-0,6.65502e+06
-0.0326538,-0.00146484,1.02179,-0,0.30426,0.15213,6.65502e+06
-0.0324097,-0.0022583,1.02362,0.15213,0.15213,0.30426,6.65502e+06
-0.0324097,-0.0022583,1.02362,0.15213,0.15213,0.30426,6.65502e+06
-0.0318604,-0.00183105,1.02271,-0.15213,0.15213,-0,6.65502e+06
-0.0318604,-0.00183105,1.02271,-0.15213,0.15213,-0,6.65502e+06
-0.0355835,-0.000549316,1.02136,-0,-0,0.15213,6.65502e+06
-0.0321045,0.00201416,1.01959,-0.30426,-0,-0,6.65502e+06
-0.0321045,0.00201416,1.01959,-0.30426,-0,-0,6.65502e+06
-0.0328369,0.0010376,1.01758,0.15213,-0,0.15213,6.65502e+06
-0.0319214,-0.000732422,1.01599,0.15213,0.45639,0.15213,6.65502e+06
-0.0319214,-0.000732422,1.01599,0.15213,0.45639,0.15213,6.65502e+06
-0.0332031,-0.000671387,1.02032,0.15213,0.30426,-0,6.65502e+06
-0.0335693,0.00152588,1.0224,-0,0.15213,-0,6.65502e+06
-0.0316772,0.0020752,1.01923,0.15213,0.15213,-0,6.65502e+06
-0.0316772,0.0020752,1.01923,0.15213,0.15213,-0,6.65502e+06
-0.0325928,-0.000732422,1.01935,0.15213,0.15213,-0,6.65502e+06
-0.0325928,-0.000732422,1.01935,0.15213,0.15213,-0,6.65502e+06
-0.0328369,0.000854492,1.01459,-0.15213,-0,0.30426,6.65502e+06
-0.0335693,-0.00170898,1.02234,-0,-0,-0.15213,6.65502e+06
-0.0335693,-0.00170898,1.02234,-0,-0,-0.15213,6.65502e+06
-0.0346069,-0.00012207,1.01862,-0,-0,0.15213,6.65502e+06
-0.0328369,0.000549316,1.01495,-0,-0,0.30426,6.65502e+06
-0.0328369,0.000549316,1.01495,-0,-0,0.30426,6.65502e+06
-0.0302124,0.000976562,1.02155,0.15213,0.45639,-0.15213,6.65502e+06
-0.0326538,0.00219727,1.02533,0.30426,0.30426,-0,6.65502e+06
-0.0326538,0.00219727,1.02533,0.30426,0.30426,-0,6.65502e+06
-0.0328369,-0.00109863,1.01849,-0,-0,-0,6.65502e+06
-0.0354614,0.00201416,1.01917,0.15213,0.30426,0.15213,6.65502e+06
-0.0333862,-0.00115967,1.0199,0.15213,0.15213,0.15213,6.65502e+06
-0.0333862,-0.00115967,1.0199,0.15213,0.15213,0.15213,6.65502e+06
-0.0338745,-0.000732422,1.01971,0.15213,0.15213,0.45639,6.65502e+06
-0.0356445,-0.000244141,1.01971,0.15213,0.30426,-0,6.65502e+06
-0.0356445,-0.000244141,1.01971,0.15213,0.30426,-0,6.65502e+06
-0.0324707,0.00158691,1.01813,0.15213,0.30426,0.15213,6.65502e+06
-0.0324707,0.00158691,1.01813,0.15213,0.30426,0.15213,6.65502e+06
-0.032959,-0.00170898,1.01752,-0.15213,-0,0.30426,6.65502e+06
-0.0318604,0.00140381,1.02429,0.15213,0.45639,-0,6.65502e+06
-0.0318604,0.00140381,1.02429,0.15213,0.45639,-0,6.65502e+06
-0.0334473,-0.00274658,1.02167,0.15213,0.30426,0.15213,6.65502e+06
-0.0306396,0.00164795,1.01538,0.15213,0.15213,-0.15213,6.65502e+06
-0.0306396,0.00164795,1.01538,0.15213,0.15213,-0.15213,6.65502e+06
-0.0313721,-0.00164795,1.01727,0.30426,0.30426,0.15213,6.65502e+06
-0.0328369,0.00134277,1.0249,0.30426,0.15213,-0,6.65502e+06
-0.0341187,0.00238037,1.02252,0.15213,0.15213,0.15213,6.65502e+06
-0.0341187,0.00238037,1.02252,0.15213,0.15213,0.15213,6.65502e+06
-0.0335083,0.00134277,1.01709,-0,0.15213,-0,6.65502e+06
-0.0352173,0.000366211,1.01843,-0,0.15213,0.15213,6.65502e+06
-0.0352173,0.000366211,1.01843,-0,0.15213,0.15213,6.65502e+06
-0.0330811,-0.000427246,1.02271,0.30426,0.30426,0.15213,6.65502e+06
-0.0330811,-0.000427246,1.02271,0.30426,0.30426,0.15213,6.65502e+06
 -0.03479,-0.00311279,1.01953,-0,0.30426,-0.15213,6.65502e+06
-0.0354004,0.000793457,1.0246,-0,-0,0.15213,6.65502e+06
-0.0354004,0.000793457,1.0246,-0,-0,0.15213,6.65502e+06
-0.0322266,0.0022583,1.01752,0.15213,0.15213,0.15213,6.65502e+06
-0.0344849,-0.000915527,1.01636,0.30426,0.15213,0.45639,6.65502e+06
-0.0344849,-0.000915527,1.01636,0.30426,0.15213,0.45639,6.65502e+06
-0.0334473,0.000183105,1.02655,-0,0.30426,-0,6.65502e+06
-0.0314331,-0.00128174,1.02008,0.15213,0.15213,0.15213,6.65502e+06
-0.0333252,-0.00183105,1.02063,-0.15213,-0.15213,-0,6.65502e+06
-0.0333252,-0.00183105,1.02063,-0.15213,-0.15213,-0,6.65502e+06
-0.0325317,0.000793457,1.02014,-0.30426,-0.15213,0.15213,6.65502e+06
-0.0339355,0.00170898,1.02039,-0.15213,0.15213,0.15213,6.65502e+06
-0.0339355,0.00170898,1.02039,-0.15213,0.15213,0.15213,6.65502e+06
-0.0340576,0.000305176,1.02319,-0.30426,-0,0.15213,6.65502e+06
-0.0340576,0.000305176,1.02319,-0.30426,-0,0.15213,6.65502e+06
-0.0305176,0.0010376,1.02106,0.15213,0.15213,0.30426,6.65502e+06
-0.0365601,-0.00012207,1.02429,0.15213,-0.15213,-0.15213,6.65502e+06
-0.0365601,-0.00012207,1.02429,0.15213,-0.15213,-0.15213,6.65502e+06
-0.0355225,-0.00244141,1.02515,-0.15213,-0,-0.15213,6.65502e+06
-0.0315552,-0.00140381,1.02008,0.30426,0.30426,-0,6.65502e+06
-0.0315552,-0.00140381,1.02008,0.30426,0.30426,-0,6.65502e+06
-0.0360718,-0.000671387,1.02344,0.45639,0.30426,0.30426,6.65502e+06
-0.0331421,0.000610352,1.01489,0.15213,0.30426,-0.15213,6.65502e+06
-0.0331421,0.000610352,1.01489,0.15213,0.30426,-0.15213,6.65502e+06
-0.0341187,-0.00152588,1.02264,-0,-0,0.15213,6.65502e+06
-0.0359497,-0.00292969,1.01837,-0,-0,-0.15213,6.65502e+06
-0.0359497,-0.00292969,1.01837,-0,-0,-0.15213,6.65502e+06
-0.0345459,0.000183105,1.01776,0.15213,0.30426,-0,6.65502e+06
-0.034668,0.000183105,1.01892,-0,-0,-0,6.65502e+06
-0.0341797,0,1.01569,-0,-0.15213,0.15213,6.65502e+06
-0.0341797,0,1.01569,-0,-0.15213,0.15213,6.65502e+06
-0.0338135,0.00195312,1.01923,-0,-0.30426,0.15213,6.65502e+06
-0.0338135,0.00195312,1.01923,-0,-0.30426,0.15213,6.65502e+06
-0.0328369,0.00012207,1.01562,0.15213,0.45639,0.45639,6.65502e+06
-0.0338745,0.0012207,1.02112,0.15213,0.15213,-0,6.65502e+06
-0.0338745,0.0012207,1.02112,0.15213,0.15213,-0,6.65502e+06
-0.0341797,0.000915527,1.01776,-0,-0,-0.608521,6.65502e+06
-0.0354614,0.00183105,1.01294,-0,-0.15213,-0,6.65502e+06
-0.0354614,0.00183105,1.01294,-0,-0.15213,-0,6.65502e+06
-0.0328979,0.000854492,1.01788,0.30426,0.30426,0.30426,6.65502e+06
-0.0336304,-0.00109863,1.01752,-0,0.45639,-0.15213,6.65502e+06
-0.0330811,0.00238037,1.01984,-0,0.15213,-0,6.65502e+06
-0.0330811,0.00238037,1.01984,-0,0.15213,-0,6.65502e+06
-0.0333252,-0.00286865,1.01709,0.15213,0.30426,-0,6.65502e+06
-0.0333252,-0.00286865,1.01709,0.15213,0.30426,-0,6.65502e+06
-0.0320435,-0.00152588,1.01782,-0,0.15213,0.15213,6.65502e+06
-0.0340576,0.00012207,1.01788,0.15213,0.30426,0.15213,6.65502e+06
-0.0340576,0.00012207,1.01788,0.15213,0.30426,0.15213,6.65502e+06
-0.0334473,-0.000610352,1.0213,-0,-0,0.15213,6.65502e+06
-0.0326538,0.00250244,1.01868,-0,0.45639,-0,6.65502e+06
-0.0326538,0.00250244,1.01868,-0,0.45639,-0,6.65502e+06
-0.0336914,-0.00152588,1.02161,-0,-0,-0.30426,6.65502e+06
-0.0344849,-0.000976562,1.02081,-0.15213,-0,-0,6.65502e+06
-0.0344849,-0.000976562,1.02081,-0.15213,-0,-0,6.65502e+06
-0.0339966,-0.000183105,1.02173,0.30426,0.30426,-0.15213,6.65502e+06
-0.0340576,-0.00146484,1.02136,0.30426,0.15213,-0,6.65502e+06
-0.0333862,0.00140381,1.02197,0.15213,0.15213,0.15213,6.65502e+06
-0.0333862,0.00140381,1.02197,0.15213,0.15213,0.15213,6.65502e+06
-0.0316772,-0.000976562,1.01868,-0,-0,-0,6.65502e+06
-0.0355225,-0.000427246,1.02075,-0.15213,-0.15213,0.15213,6.65502e+06
-0.0355225,-0.000427246,1.02075,-0.15213,-0.15213,0.15213,6.65502e+06
-0.0332031,-0.000305176,1.01489,0.15213,0.45639,0.15213,6.65502e+06
-0.0332031,-0.000305176,1.01489,0.15213,0.45639,0.15213,6.65502e+06
-0.0354614,-0.000732422,1.01953,0.30426,0.15213,0.30426,6.65502e+06
-0.0314331,0,1.02191,0.15213,0.30426,0.15213,6.65502e+06
-0.0314331,0,1.02191,0.15213,0.30426,0.15213,6.65502e+06
-0.0338745,0.00109863,1.02118,-0.15213,0.30426,0.15213,6.65502e+06
-0.0319824,0.00140381,1.02435,0.15213,0.15213,0.15213,6.65502e+06
-0.0319824,0.00140381,1.02435,0.15213,0.15213,0.15213,6.65502e+06
-0.0341797,-0.000793457,1.01758,-0,-0.15213,0.45639,6.65502e+06
-0.0338745,-0.000549316,1.01794,-0,0.15213,0.15213,6.65502e+06
-0.0338745,-0.000549316,1.01794,-0,0.15213,0.15213,6.65502e+06
-0.0342407,-0.000915527,1.02222,0.15213,0.15213,-0,6.65502e+06
-0.0343628,-0.000793457,1.02051,-0.30426,-0.15213,0.15213,6.65502e+06
-0.0345459,0.000976562,1.01678,0.15213,0.30426,-0,6.65502e+06
-0.0345459,0.000976562,1.01678,0.15213,0.30426,-0,6.65502e+06
-0.0370483,0.0012207,1.02246,-0,-0,-0,6.65502e+06
-0.0324097,0.00274658,1.0177,0.15213,0.30426,0.15213,6.65502e+06
-0.0324097,0.00274658,1.0177,0.15213,0.30426,0.15213,6.65502e+06
-0.0309448,0.000854492,1.0191,0.30426,0.15213,0.15213,6.65502e+06
-0.0309448,0.000854492,1.0191,0.30426,0.15213,0.15213,6.65502e+06
-0.0336304,0.00158691,1.01642,-0.30426,-0.15213,-0.15213,6.65502e+06
-0.034668,0.00012207,1.02167,0.15213,0.15213,0.15213,6.65502e+06
-0.034668,0.00012207,1.02167,0.15213,0.15213,0.15213,6.65502e+06
-0.0334473,-0.00311279,1.01715,0.15213,0.15213,-0,6.65502e+06
-0.0331421,-0.000793457,1.02057,-0,-0.15213,-0,6.65502e+06
-0.0331421,-0.000793457,1.02057,-0,-0.15213,-0,6.65502e+06
-0.0342407,0.00128174,1.02185,0.15213,0.15213,-0,6.65502e+06
-0.0325317,-0.000671387,1.01892,0.15213,-0,-0.15213,6.65502e+06
-0.0325317,-0.000671387,1.01892,0.15213,-0,-0.15213,6.65502e+06
-0.0331421,-0.00158691,1.01733,0.15213,0.30426,-0,6.65502e+06
-0.0343018,0.00177002,1.02014,-0,-0,0.30426,6.65502e+06
-0.0343018,0.00177002,1.02014,-0,-0,0.30426,6.65502e+06
-0.0310059,-0.000732422,1.01923,-0,0.15213,-0,6.65502e+06
-0.0337524,-0.000854492,1.0199,0.15213,0.15213,0.15213,6.65502e+06
-0.0337524,-0.000854492,1.0199,0.15213,0.15213,0.15213,6.65502e+06
-0.0351562,0.00219727,1.02264,-0,0.15213,-0.15213,6.65502e+06
-0.0336304,-0.00140381,1.02087,0.15213,0.30426,-0,6.65502e+06
-0.0336304,-0.00140381,1.02087,0.15213,0.30426,-0,6.65502e+06
-0.0352783,0.00158691,1.01831,-0,-0,0.15213,6.65502e+06
-0.032959,0.000488281,1.0188,-0,-0,-0.15213,6.65502e+06
-0.032959,0.000488281,1.0188,-0,-0,-0.15213,6.65502e+06
-0.0314331,0.0032959,1.02179,0.15213,0.15213,0.15213,6.65502e+06
-0.0342407,0.000976562,1.02112,0.15213,0.30426,0.30426,6.65502e+06
-0.0333862,-0.0012207,1.01843,0.15213,0.15213,0.30426,6.65502e+06
-0.0333862,-0.0012207,1.01843,0.15213,0.15213,0.30426,6.65502e+06
-0.0341187,0.00115967,1.01648,-0,-0,0.15213,6.65502e+06
-0.0341187,0.00115967,1.01648,-0,-0,0.15213,6.65502e+06
-0.0322876,0.000183105,1.02332,0.15213,0.15213,-0.15213,6.65502e+06
-0.0357056,-0.00177002,1.02081,-0,-0,0.15213,6.65502e+06
-0.0357056,-0.00177002,1.02081,-0,-0,0.15213,6.65502e+06
-0.0358887,0.00323486,1.01636,-0.15213,0.15213,0.15213,6.65502e+06
-0.0342407,-0.000671387,1.02216,-0.15213,-0.15213,0.15213,6.65502e+06
-0.0342407,-0.000671387,1.02216,-0.15213,-0.15213,0.15213,6.65502e+06
-0.036377,-0.000854492,1.021,-0,-0,-0.15213,6.65502e+06
-0.0345459,0.00219727,1.01825,0.15213,0.608521,-0.15213,6.65502e+06
-0.0345459,0.00219727,1.01825,0.15213,0.608521,-0.15213,6.65502e+06
-0.0321655,0.000915527,1.021,0.15213,0.30426,-0.15213,6.65502e+06
-0.0346069,-0.00354004,1.02191,0.15213,0.30426,0.15213,6.65502e+06
-0.0341187,0.000366211,1.01935,-0.15213,-0,-0.30426,6.65502e+06
-0.0341187,0.000366211,1.01935,-0.15213,-0,-0.30426,6.65502e+06
-0.0350342,-0.00201416,1.0174,-0,-0.15213,-0.15213,6.65502e+06
 -0.03302,-0.00158691,1.01477,0.15213,0.15213,0.15213,6.65502e+06
 -0.03302,-0.00158691,1.01477,0.15213,0.15213,0.15213,6.65502e+06
-0.0326538,0.0010376,1.01849,-0,0.30426,0.15213,6.65502e+06
-0.0326538,0.0010376,1.01849,-0,0.30426,0.15213,6.65502e+06
-0.0336304,0.000244141,1.01978,0.15213,0.30426,0.30426,6.65502e+06
-0.0361328,-0.0012207,1.02588,0.15213,0.15213,0.30426,6.65502e+06
-0.0361328,-0.0012207,1.02588,0.15213,0.15213,0.30426,6.65502e+06
-0.0354614,-0.0012207,1.02374,-0,0.45639,-0.45639,6.65502e+06
-0.0310059,-0.00244141,1.02045,-0.15213,-0,-0,6.65502e+06
-0.0310059,-0.00244141,1.02045,-0.15213,-0,-0,6.65502e+06
-0.0339355,0.000488281,1.0152,-0.15213,-0.15213,-0,6.65502e+06
-0.0319824,-0.00012207,1.01953,-0,-0,-0,6.65502e+06
-0.0319824,-0.00012207,1.01953,-0,-0,-0,6.65502e+06
-0.0325317,-0.00152588,1.02155,-0,0.45639,-0,6.65502e+06
-0.0325928,0.000854492,1.01721,0.30426,0.45639,-0,6.65502e+06
-0.0361328,0.000427246,1.02045,0.15213,0.30426,0.15213,6.65502e+06
-0.0361328,0.000427246,1.02045,0.15213,0.30426,0.15213,6.65502e+06
-0.0335693,0.00128174,1.02057,-0.30426,-0,-0,6.65502e+06
-0.0335693,0.00128174,1.02057,-0.30426,-0,-0,6.65502e+06
-0.0351562,0.000732422,1.01965,-0,-0,-0,6.65502e+06
-0.0328369,-0.00109863,1.01953,0.15213,0.15213,0.15213,6.65502e+06
-0.0328369,-0.00109863,1.01953,0.15213,0.15213,0.15213,6.65502e+06
-0.0317383,0.00012207,1.01843,0.15213,0.15213,0.30426,6.65502e+06
-0.0339355,0.000366211,1.01764,0.15213,-0,-0.30426,6.65502e+06
-0.0339355,0.000366211,1.01764,0.15213,-0,-0.30426,6.65502e+06
-0.0352173,-0.00292969,1.0163,-0,-0,-0.15213,6.65502e+06
-0.0335693,0.000732422,1.01831,-0,0.30426,0.15213,6.65502e+06
-0.0335693,0.000732422,1.01831,-0,0.30426,0.15213,6.65502e+06
-0.0341797,-0.00109863,1.02057,-0,-0.15213,0.15213,6.65502e+06
-0.0308228,-0.00012207,1.01709,-0.30426,-0,-0,6.65502e+06
-0.0322876,0.00219727,1.01874,-0,0.15213,0.15213,6.65502e+06
-0.0322876,0.00219727,1.01874,-0,0.15213,0.15213,6.65502e+06
-0.0323486,-0.00195312,1.01373,-0,-0.15213,-0,6.65502e+06
-0.0323486,-0.00195312,1.01373,-0,-0.15213,-0,6.65502e+06
-0.0343628,-0.00012207,1.02039,0.15213,0.15213,0.15213,6.65502e+06
-0.0345459,-0.000244141,1.02234,0.15213,0.30426,-0,6.65502e+06
-0.0345459,-0.000244141,1.02234,0.15213,0.30426,-0,6.65502e+06
-0.0339355,0.00213623,1.0191,0.15213,0.30426,-0,6.65502e+06
-0.0341187,-0.000366211,1.01935,-0.15213,-0,0.30426,6.65502e+06
-0.0341187,-0.000366211,1.01935,-0.15213,-0,0.30426,6.65502e+06
-0.0315552,-0.000305176,1.02209,-0,-0,-0,6.65502e+06
-0.0326538,0.000244141,1.02301,0.15213,0.15213,0.30426,6.65502e+06
-0.0326538,0.000244141,1.02301,0.15213,0.15213,0.30426,6.65502e+06
-0.0319214,0.000488281,1.02252,-0.15213,-0.15213,-0,6.65502e+06
-0.0358887,0.0020752,1.02264,-0,-0,-0,6.65502e+06
-0.0320435,0.000427246,1.01581,-0.15213,-0.15213,0.45639,6.65502e+06
-0.0320435,0.000427246,1.01581,-0.15213,-0.15213,0.45639,6.65502e+06
-0.0337524,0.00146484,1.02142,-0.15213,-0,-0,6.65502e+06
-0.0337524,0.00146484,1.02142,-0.15213,-0,-0,6.65502e+06
-0.0335083,-0.00109863,1.02057,0.15213,0.30426,-0,6.65502e+06
