accelx,accely,accelz,gyrox,gyroy,gyroz,time
        0,0,0,0,0,0,6.6467e+06
-0.00622559,-0.397888,0.929749,0.45639,0.45639,-0,6.6467e+06
-0.0102539,-0.399658,0.934265,0.30426,-0.15213,0.15213,6.6467e+06
-0.0090332,-0.394836,0.93103,0.15213,0.15213,0.30426,6.6467e+06
-0.0090332,-0.394836,0.93103,0.15213,0.15213,0.30426,6.6467e+06
-0.00787354,-0.390625,0.926331,-0.15213,0.15213,0.15213,6.6467e+06
-0.00872803,-0.393311,0.936279,0.15213,0.30426,-0.30426,6.6467e+06
-0.00872803,-0.393311,0.936279,0.15213,0.30426,-0.30426,6.6467e+06
-0.0108643,-0.400085,0.93988,0.15213,0.15213,-0,6.6467e+06
-0.00738525,-0.395996,0.93573,-0,-0.15213,0.15213,6.6467e+06
-0.00738525,-0.395996,0.93573,-0,-0.15213,0.15213,6.6467e+06
-0.00915527,-0.392456,0.930176,0.15213,0.30426,0.15213,6.6467e+06
-0.012085,-0.392334,0.935364,0.15213,0.15213,-0,6.6467e+06
-0.012085,-0.392334,0.935364,0.15213,0.15213,-0,6.6467e+06
-0.00585938,-0.394714,0.938538,0.30426,0.608521,-0,6.6467e+06
-0.00805664,-0.403015,0.933289,0.15213,0.45639,-0,6.6467e+06
-0.00805664,-0.403015,0.933289,0.15213,0.45639,-0,6.6467e+06
-0.0107422,-0.400757,0.936951,-0,-0.45639,-0.15213,6.6467e+06
-0.0117798,-0.397217,0.939697,0.15213,-0.45639,0.15213,6.6467e+06
-0.0117798,-0.397217,0.939697,0.15213,-0.45639,0.15213,6.6467e+06
-0.00866699,-0.389648,0.928589,0.45639,0.45639,0.15213,6.6467e+06
-0.00793457,-0.396912,0.932678,0.45639,1.06491,-0.15213,6.6467e+06
-0.00793457,-0.396912,0.932678,0.45639,1.06491,-0.15213,6.6467e+06
-0.0124512,-0.403198,0.941162,0.15213,0.45639,-0,6.6467e+06
-0.010498,-0.401428,0.936584,-0,0.15213,0.15213,6.6467e+06
-0.010498,-0.401428,0.936584,-0,0.15213,0.15213,6.6467e+06
-0.00994873,-0.387756,0.927673,0.15213,0.45639,0.45639,6.6467e+06
-0.00964355,-0.393677,0.934448,0.15213,0.30426,-0.15213,6.6467e+06
-0.00964355,-0.393677,0.934448,0.15213,0.30426,-0.15213,6.6467e+06
-0.0114136,-0.404419,0.942566,-0,-0.45639,-0,6.6467e+06
-0.00805664,-0.40332,0.930542,0.608521,0.30426,-0,6.6467e+06
-0.00805664,-0.40332,0.930542,0.608521,0.30426,-0,6.6467e+06
-0.00756836,-0.402466,0.933594,0.760651,0.912781,0.15213,6.6467e+06
-0.00897217,-0.396057,0.934631,0.30426,0.608521,0.30426,6.6467e+06
-0.00897217,-0.396057,0.934631,0.30426,0.608521,0.30426,6.6467e+06
-0.00134277,-0.384705,0.9422,-0,-0.608521,0.15213,6.6467e+06
-0.00756836,-0.392822,0.930542,-0.15213,0.30426,-0,6.6467e+06
-0.00756836,-0.392822,0.930542,-0.15213,0.30426,-0,6.6467e+06
-0.00341797,-0.396545,0.928406,0.15213,0.760651,-0,6.6467e+06
-0.00787354,-0.39325,0.92804,-0.30426,-0,-0.15213,6.6467e+06
-0.00787354,-0.39325,0.92804,-0.30426,-0,-0.15213,6.6467e+06
-0.0045166,-0.390198,0.942017,-0,-0.15213,0.45639,6.6467e+06
-0.00756836,-0.399109,0.935181,0.15213,0.30426,0.15213,6.6467e+06
-0.00756836,-0.399109,0.935181,0.15213,0.30426,0.15213,6.6467e+06
-0.0109253,-0.394714,0.93396,0.30426,0.30426,-0,6.6467e+06
-0.00750732,-0.396973,0.932922,0.30426,0.608521,0.30426,6.6467e+06
-0.00750732,-0.396973,0.932922,0.30426,0.608521,0.30426,6.6467e+06
-0.00738525,-0.398865,0.929932,0.15213,0.45639,0.15213,6.6467e+06
-0.00842285,-0.393799,0.934509,-0,0.30426,0.15213,6.6467e+06
-0.00842285,-0.393799,0.934509,-0,0.30426,0.15213,6.6467e+06
-0.0100098,-0.391724,0.932373,-0,-0.30426,0.15213,6.6467e+06
-0.00653076,-0.394226,0.925598,0.608521,0.45639,-0.15213,6.6467e+06
-0.00653076,-0.394226,0.925598,0.608521,0.45639,-0.15213,6.6467e+06
-0.0113525,-0.401794,0.949829,-0,-0.15213,0.15213,6.6467e+06
-0.00836182,-0.393494,0.925781,0.30426,0.45639,0.15213,6.6467e+06
-0.00836182,-0.393494,0.925781,0.30426,0.45639,0.15213,6.6467e+06
-0.00439453,-0.38623,0.931763,0.45639,0.760651,-0.15213,6.6467e+06
-0.00842285,-0.389832,0.943604,-0,0.15213,0.15213,6.6467e+06
-0.00842285,-0.389832,0.943604,-0,0.15213,0.15213,6.6467e+06
-0.00360107,-0.398621,0.924133,0.608521,0.912781,-0,6.6467e+06
-0.0108643,-0.398865,0.936279,0.15213,0.30426,-0,6.6467e+06
-0.0108643,-0.398865,0.936279,0.15213,0.30426,-0,6.6467e+06
-0.00408936,-0.399475,0.935608,-0.760651,-0.30426,0.15213,6.6467e+06
-0.0187378,-0.390808,0.937195,-0.45639,-0.912781,0.30426,6.6467e+06
-0.0187378,-0.390808,0.937195,-0.45639,-0.912781,0.30426,6.6467e+06
-0.00671387,-0.405151,0.935852,0.15213,-0.45639,0.45639,6.6467e+06
-0.00671387,-0.405151,0.935852,0.15213,-0.45639,0.45639,6.6467e+06
-0.00585938,-0.393188,0.921753,0.45639,1.21704,0.15213,6.6467e+06
-0.0147095,-0.395325,0.93219,0.45639,0.45639,0.15213,6.6467e+06
-0.00628662,-0.404236,0.93689,0.45639,-0,0.15213,6.6467e+06
-0.00628662,-0.404236,0.93689,0.45639,-0,0.15213,6.6467e+06
-0.00994873,-0.390076,0.935303,0.45639,0.45639,0.15213,6.6467e+06
-0.00140381,-0.390686,0.93512,-0.15213,0.15213,-0,6.6467e+06
-0.00140381,-0.390686,0.93512,-0.15213,0.15213,-0,6.6467e+06
-0.0186157,-0.403748,0.945068,-0.608521,-0.45639,-0,6.6467e+06
-0.00439453,-0.400513,0.927124,0.15213,0.760651,-0.15213,6.6467e+06
-0.00439453,-0.400513,0.927124,0.15213,0.760651,-0.15213,6.6467e+06
0.0022583,-0.390686,0.929504,0.15213,0.912781,-0.45639,6.6467e+06
-0.00933838,-0.388367,0.933899,0.15213,0.30426,-0,6.6467e+06
-0.00933838,-0.388367,0.933899,0.15213,0.30426,-0,6.6467e+06
-0.0111084,-0.403381,0.940002,0.30426,-0.15213,-0,6.6467e+06
-0.00476074,-0.402588,0.938354,0.45639,0.608521,-0.15213,6.6467e+06
-0.00476074,-0.402588,0.938354,0.45639,0.608521,-0.15213,6.6467e+06
-0.00524902,-0.390442,0.925537,0.30426,0.45639,0.15213,6.6467e+06
-0.00732422,-0.399414,0.945862,0.45639,-0.45639,0.15213,6.6467e+06
-0.00732422,-0.399414,0.945862,0.45639,-0.45639,0.15213,6.6467e+06
-0.00842285,-0.406372,0.951233,-0.608521,-0.15213,0.30426,6.6467e+06
-0.00604248,-0.390259,0.929443,-0.760651,0.45639,-0.15213,6.6467e+06
-0.00604248,-0.390259,0.929443,-0.760651,0.45639,-0.15213,6.6467e+06
-0.00836182,-0.382263,0.915344,-0.30426,-0.30426,-0.15213,6.6467e+06
-0.00720215,-0.400269,0.934082,1.21704,0.30426,-0,6.6467e+06
-0.00720215,-0.400269,0.934082,1.21704,0.30426,-0,6.6467e+06
-0.0124512,-0.409912,0.954712,0.608521,0.30426,-0.15213,6.6467e+06
-0.00982666,-0.397339,0.942017,-0.30426,0.15213,0.30426,6.6467e+06
-0.00982666,-0.397339,0.942017,-0.30426,0.15213,0.30426,6.6467e+06
-0.00762939,-0.387451,0.917847,-0.30426,-0,0.30426,6.6467e+06
-0.00952148,-0.398804,0.935486,0.15213,-0.30426,-0,6.6467e+06
-0.00952148,-0.398804,0.935486,0.15213,-0.30426,-0,6.6467e+06
-0.00671387,-0.402832,0.951233,-0,-0.15213,0.15213,6.6467e+06
-0.00811768,-0.396118,0.922241,-0,0.15213,0.15213,6.6467e+06
-0.00811768,-0.396118,0.922241,-0,0.15213,0.15213,6.6467e+06
-0.0125122,-0.398193,0.929016,-0.608521,-0.15213,-0.15213,6.6467e+06
-0.00720215,-0.391052,0.943604,-0.15213,-0,0.15213,6.6467e+06
-0.00720215,-0.391052,0.943604,-0.15213,-0,0.15213,6.6467e+06
-0.00604248,-0.388123,0.931763,0.608521,0.912781,0.15213,6.6467e+06
-0.0045166,-0.395508,0.933594,0.45639,-0,-0,6.6467e+06
-0.0045166,-0.395508,0.933594,0.45639,-0,-0,6.6467e+06
-0.0132446,-0.398682,0.946777,0.30426,0.15213,0.608521,6.6467e+06
-0.00897217,-0.397766,0.938843,0.30426,0.912781,-0.30426,6.6467e+06
-0.00897217,-0.397766,0.938843,0.30426,0.912781,-0.30426,6.6467e+06
-0.00415039,-0.38269,0.925659,-0.30426,-0,-0,6.6467e+06
-0.0118408,-0.392822,0.928833,0.30426,-0,0.30426,6.6467e+06
-0.0118408,-0.392822,0.928833,0.30426,-0,0.30426,6.6467e+06
-0.0110474,-0.41571,0.95697,-0.30426,-0.45639,-0.15213,6.6467e+06
-0.00585938,-0.392944,0.934509,-0.15213,0.608521,-0.30426,6.6467e+06
-0.00585938,-0.392944,0.934509,-0.15213,0.608521,-0.30426,6.6467e+06
-0.00872803,-0.374512,0.906982,0.15213,0.45639,0.15213,6.6467e+06
-0.00341797,-0.393555,0.934692,0.912781,-0,-0,6.6467e+06
-0.00341797,-0.393555,0.934692,0.912781,-0,-0,6.6467e+06
-0.0108032,-0.405396,0.951599,1.06491,0.15213,0.45639,6.6467e+06
-0.00537109,-0.398132,0.944031,0.15213,0.30426,0.30426,6.6467e+06
-0.00537109,-0.398132,0.944031,0.15213,0.30426,0.30426,6.6467e+06
-0.00860596,-0.385742,0.921753,-0,0.45639,-0,6.6467e+06
-0.00720215,-0.395813,0.938843,-0,-0.30426,-0,6.6467e+06
-0.00720215,-0.395813,0.938843,-0,-0.30426,-0,6.6467e+06
-0.00726318,-0.401611,0.950134,-0.608521,-0,-0,6.6467e+06
-0.0133057,-0.387573,0.922302,-0.45639,0.30426,0.15213,6.6467e+06
-0.0133057,-0.387573,0.922302,-0.45639,0.30426,0.15213,6.6467e+06
-0.00604248,-0.390259,0.917542,0.45639,0.30426,-0,6.6467e+06
-0.0115967,-0.404541,0.941101,0.608521,-0,-0,6.6467e+06
-0.0115967,-0.404541,0.941101,0.608521,-0,-0,6.6467e+06
-0.00195312,-0.395996,0.936218,0.15213,0.30426,0.15213,6.6467e+06
-0.00909424,-0.388123,0.928223,-0,0.45639,0.15213,6.6467e+06
-0.00909424,-0.388123,0.928223,-0,0.45639,0.15213,6.6467e+06
-0.00769043,-0.393311,0.928406,0.608521,0.30426,0.15213,6.6467e+06
-0.00750732,-0.407654,0.943115,0.15213,-0.15213,0.30426,6.6467e+06
-0.00750732,-0.407654,0.943115,0.15213,-0.15213,0.30426,6.6467e+06
-0.0345459,-0.416443,0.904541,-0,0.30426,-0,6.6467e+06
0.00878906,-0.403564,0.990417,-0.45639,-0.760651,-0.15213,6.6467e+06
0.00878906,-0.403564,0.990417,-0.45639,-0.760651,-0.15213,6.6467e+06
-0.0422974,-0.519348,0.845398,1.5213,2.58621,-0.608521,6.6467e+06
-0.173401,-0.630737,1.07153,-0,-7.60651,-2.28195,6.6467e+06
-0.173401,-0.630737,1.07153,-0,-7.60651,-2.28195,6.6467e+06
0.0010376,-0.379272,0.846741,1.67343,2.43408,0.15213,6.6467e+06
0.00970459,-0.504761,0.86438,6.23734,8.0629,-2.43408,6.6467e+06
0.00970459,-0.504761,0.86438,6.23734,8.0629,-2.43408,6.6467e+06
-0.076355,-0.58905,0.931641,2.28195,2.89047,-1.21704,6.6467e+06
0.0253296,-0.30481,0.93634,-2.89047,-3.95538,3.19473,6.6467e+06
0.0253296,-0.30481,0.93634,-2.89047,-3.95538,3.19473,6.6467e+06
0.0427856,-0.264526,1.00305,-2.89047,-3.19473,-0.30426,6.6467e+06
-0.0269165,-0.479736,0.993713,-0.912781,-3.65112,-0.15213,6.6467e+06
-0.0269165,-0.479736,0.993713,-0.912781,-3.65112,-0.15213,6.6467e+06
-0.00219727,-0.413086,0.952942,-2.28195,0.15213,-0.608521,6.6467e+06
-0.0128784,-0.282715,0.861145,-1.82556,-0,2.43408,6.6467e+06
-0.0128784,-0.282715,0.861145,-1.82556,-0,2.43408,6.6467e+06
0.0245361,-0.314636,0.937683,1.06491,-2.12982,-0.45639,6.6467e+06
-0.0203247,-0.415771,0.950684,3.80325,-0.608521,0.30426,6.6467e+06
-0.0203247,-0.415771,0.950684,3.80325,-0.608521,0.30426,6.6467e+06
0.0148315,-0.459229,1.05444,-0.912781,-1.82556,-0.608521,6.6467e+06
-0.00769043,-0.369934,0.919312,-4.5639,1.36917,0.760651,6.6467e+06
-0.00769043,-0.369934,0.919312,-4.5639,1.36917,0.760651,6.6467e+06
-0.00115967,-0.328979,0.842468,-1.97769,-0.912781,0.760651,6.6467e+06
-0.010437,-0.401611,0.932556,2.58621,-0.45639,-0.15213,6.6467e+06
-0.010437,-0.401611,0.932556,2.58621,-0.45639,-0.15213,6.6467e+06
-0.015564,-0.410217,0.979248,0.912781,-1.5213,1.06491,6.6467e+06
0.00592041,-0.404114,0.960693,0.15213,0.760651,-0.30426,6.6467e+06
0.00592041,-0.404114,0.960693,0.15213,0.760651,-0.30426,6.6467e+06
-0.0230103,-0.393188,0.89917,-0,-0.15213,0.912781,6.6467e+06
-0.00628662,-0.390015,0.899414,1.82556,0.45639,-0.15213,6.6467e+06
-0.00628662,-0.390015,0.899414,1.82556,0.45639,-0.15213,6.6467e+06
-0.019104,-0.416077,0.983154,1.36917,-0.912781,0.15213,6.6467e+06
-0.0145264,-0.429077,0.961121,-0.760651,0.30426,-0.912781,6.6467e+06
-0.0145264,-0.429077,0.961121,-0.760651,0.30426,-0.912781,6.6467e+06
-0.0155029,-0.408081,0.910645,-1.06491,0.30426,-0.45639,6.6467e+06
-0.0119629,-0.403503,0.941895,-0.912781,-0.760651,-0,6.6467e+06
-0.0119629,-0.403503,0.941895,-0.912781,-0.760651,-0,6.6467e+06
-0.0147705,-0.399109,0.930054,0.15213,0.30426,-0.15213,6.6467e+06
-0.0162964,-0.401611,0.919922,0.760651,-0.30426,0.15213,6.6467e+06
-0.0162964,-0.401611,0.919922,0.760651,-0.30426,0.15213,6.6467e+06
-0.00262451,-0.405823,0.93811,0.912781,0.45639,-0.30426,6.6467e+06
-0.0236206,-0.405518,0.941162,0.912781,0.15213,0.15213,6.6467e+06
-0.0236206,-0.405518,0.941162,0.912781,0.15213,0.15213,6.6467e+06
-0.00616455,-0.41272,0.947205,0.912781,0.30426,-0.30426,6.6467e+06
-0.0106812,-0.394348,0.95166,-0.45639,0.30426,0.15213,6.6467e+06
-0.0106812,-0.394348,0.95166,-0.45639,0.30426,0.15213,6.6467e+06
-0.00512695,-0.382446,0.926331,-1.06491,0.15213,-0,6.6467e+06
-0.00970459,-0.392029,0.925476,-0.608521,-0.15213,0.15213,6.6467e+06
-0.00970459,-0.392029,0.925476,-0.608521,-0.15213,0.15213,6.6467e+06
-0.00646973,-0.391907,0.928467,0.45639,0.30426,-0,6.6467e+06
-0.00341797,-0.392151,0.932495,0.760651,0.30426,-0,6.6467e+06
-0.00341797,-0.392151,0.932495,0.760651,0.30426,-0,6.6467e+06
-0.0045166,-0.394775,0.943787,0.15213,-0.15213,0.608521,6.6467e+06
-0.00299072,-0.38562,0.927063,0.15213,0.45639,-0,6.6467e+06
-0.00299072,-0.38562,0.927063,0.15213,0.45639,-0,6.6467e+06
-0.0130615,-0.378052,0.924683,0.45639,-0.15213,0.45639,6.6467e+06
-0.00152588,-0.401917,0.936035,0.608521,0.15213,-0,6.6467e+06
-0.00152588,-0.401917,0.936035,0.608521,0.15213,-0,6.6467e+06
-0.0133057,-0.403503,0.950378,-0,-0,-0,6.6467e+06
-0.00598145,-0.392517,0.941772,-1.21704,-0,-0.15213,6.6467e+06
-0.00598145,-0.392517,0.941772,-1.21704,-0,-0.15213,6.6467e+06
-0.0057373,-0.382874,0.915894,-0.45639,0.45639,0.15213,6.6467e+06
-0.0112915,-0.390686,0.917664,-0,-0.30426,0.15213,6.6467e+06
-0.0112915,-0.390686,0.917664,-0,-0.30426,0.15213,6.6467e+06
-0.00762939,-0.40155,0.938965,1.06491,0.45639,-0.15213,6.6467e+06
-0.0131226,-0.398621,0.93512,0.760651,-0.15213,0.15213,6.6467e+06
-0.0131226,-0.398621,0.93512,0.760651,-0.15213,0.15213,6.6467e+06
-0.00164795,-0.396667,0.93335,0.760651,0.15213,0.15213,6.6467e+06
-0.00897217,-0.399963,0.944641,-0.15213,-0,0.30426,6.6467e+06
-0.00897217,-0.399963,0.944641,-0.15213,-0,0.30426,6.6467e+06
-0.00939941,-0.398926,0.931885,-0.608521,-0,-0,6.6467e+06
-0.0130005,-0.396484,0.918823,-0.15213,-0,-0.15213,6.6467e+06
-0.0130005,-0.396484,0.918823,-0.15213,-0,-0.15213,6.6467e+06
-0.00927734,-0.398499,0.933411,0.45639,-0,0.30426,6.6467e+06
-0.0106201,-0.403198,0.947327,0.15213,0.15213,0.15213,6.6467e+06
-0.0106201,-0.403198,0.947327,0.15213,0.15213,0.15213,6.6467e+06
-0.00714111,-0.39447,0.941528,-0.45639,-0,0.15213,6.6467e+06
-0.00134277,-0.38092,0.910156,0.15213,0.760651,-0,6.6467e+06
-0.00134277,-0.38092,0.910156,0.15213,0.760651,-0,6.6467e+06
0.00622559,-0.398438,0.894653,1.5213,1.5213,-0.15213,6.6467e+06
-0.0418701,-0.420715,1.02069,-0.760651,-3.19473,-0.30426,6.6467e+06
-0.0418701,-0.420715,1.02069,-0.760651,-3.19473,-0.30426,6.6467e+06
-0.00756836,-0.406555,0.939697,-0.45639,-2.28195,1.06491,6.6467e+06
0.00360107,-0.40741,0.938538,0.30426,0.760651,-0.760651,6.6467e+06
0.00360107,-0.40741,0.938538,0.30426,0.760651,-0.760651,6.6467e+06
-0.0158691,-0.404297,0.927734,-0.45639,0.912781,0.608521,6.6467e+06
-0.00689697,-0.366882,0.910461,-0.45639,-0.760651,0.45639,6.6467e+06
-0.00689697,-0.366882,0.910461,-0.45639,-0.760651,0.45639,6.6467e+06
-0.00970459,-0.392517,0.947388,0.30426,-0,0.15213,6.6467e+06
-0.00891113,-0.410828,0.958496,-0.15213,-1.06491,0.45639,6.6467e+06
-0.00891113,-0.410828,0.958496,-0.15213,-1.06491,0.45639,6.6467e+06
-0.00585938,-0.378113,0.92334,0.15213,0.912781,-0.45639,6.6467e+06
0.000976562,-0.380005,0.927612,-0,-0.30426,0.45639,6.6467e+06
0.000976562,-0.380005,0.927612,-0,-0.30426,0.45639,6.6467e+06
-0.000610352,-0.384949,0.937988,0.608521,0.608521,-0.30426,6.6467e+06
-0.020752,-0.398071,0.945129,-0,-0.912781,0.760651,6.6467e+06
-0.020752,-0.398071,0.945129,-0,-0.912781,0.760651,6.6467e+06
0.00653076,-0.404297,0.95575,-1.21704,-0,-0.45639,6.6467e+06
-0.0187988,-0.375549,0.920715,-1.06491,-0.15213,0.45639,6.6467e+06
-0.0187988,-0.375549,0.920715,-1.06491,-0.15213,0.45639,6.6467e+06
0.00213623,-0.38678,0.931641,-0.45639,-0.30426,-0,6.6467e+06
-0.0114746,-0.394714,0.928528,0.45639,0.608521,-0,6.6467e+06
-0.0114746,-0.394714,0.928528,0.45639,0.608521,-0,6.6467e+06
-0.0123291,-0.387695,0.933655,0.45639,-0.15213,0.45639,6.6467e+06
0.000610352,-0.395447,0.939697,0.608521,0.45639,-0.30426,6.6467e+06
0.000610352,-0.395447,0.939697,0.608521,0.45639,-0.30426,6.6467e+06
-0.0178223,-0.390137,0.942322,0.15213,-0.15213,0.608521,6.6467e+06
0.000244141,-0.398865,0.945251,-0,0.15213,-0.608521,6.6467e+06
0.000244141,-0.398865,0.945251,-0,0.15213,-0.608521,6.6467e+06
-0.0137939,-0.397217,0.942261,-0.608521,-0.30426,0.45639,6.6467e+06
-0.000671387,-0.393555,0.927307,-0.30426,0.30426,-0.15213,6.6467e+06
-0.000671387,-0.393555,0.927307,-0.30426,0.30426,-0.15213,6.6467e+06
-0.0149536,-0.393311,0.933472,-0,-0.30426,0.30426,6.6467e+06
-0.00323486,-0.396057,0.947205,-0,-0,0.15213,6.6467e+06
-0.00323486,-0.396057,0.947205,-0,-0,0.15213,6.6467e+06
-0.0120239,-0.394958,0.931885,0.30426,0.15213,-0,6.6467e+06
-0.00866699,-0.398499,0.937927,0.15213,-0.15213,0.15213,6.6467e+06
-0.00866699,-0.398499,0.937927,0.15213,-0.15213,0.15213,6.6467e+06
-0.00720215,-0.397644,0.928467,0.608521,0.30426,-0.15213,6.6467e+06
-0.00952148,-0.400024,0.942749,0.30426,0.15213,0.30426,6.6467e+06
-0.00952148,-0.400024,0.942749,0.30426,0.15213,0.30426,6.6467e+06
-0.00134277,-0.395264,0.9422,-0,0.608521,-0.45639,6.6467e+06
-0.0152588,-0.396301,0.941223,-1.06491,-0.30426,-0,6.6467e+06
-0.0152588,-0.396301,0.941223,-1.06491,-0.30426,-0,6.6467e+06
-0.00335693,-0.392639,0.925537,-0.30426,-0,-0.15213,6.6467e+06
-0.015686,-0.390503,0.926208,0.30426,0.30426,0.30426,6.6467e+06
-0.015686,-0.390503,0.926208,0.30426,0.30426,0.30426,6.6467e+06
-0.00213623,-0.389893,0.932129,0.912781,0.608521,0.45639,6.6467e+06
-0.00933838,-0.398193,0.946533,0.912781,0.30426,-0,6.6467e+06
-0.00933838,-0.398193,0.946533,0.912781,0.30426,-0,6.6467e+06
-0.0115967,-0.406433,0.947632,-0,-0.30426,0.15213,6.6467e+06
-0.00921631,-0.401184,0.93335,-0.15213,0.15213,-0.15213,6.6467e+06
-0.00921631,-0.401184,0.93335,-0.15213,0.15213,-0.15213,6.6467e+06
-0.00927734,-0.390076,0.927795,-0.15213,0.15213,0.15213,6.6467e+06
-0.00457764,-0.389465,0.91864,0.15213,0.15213,0.30426,6.6467e+06
-0.00457764,-0.389465,0.91864,0.15213,0.15213,0.30426,6.6467e+06
-0.0106201,-0.39325,0.939453,0.15213,-0,0.15213,6.6467e+06
-0.00384521,-0.393555,0.935974,0.15213,0.608521,-0.30426,6.6467e+06
-0.00384521,-0.393555,0.935974,0.15213,0.608521,-0.30426,6.6467e+06
-0.0117798,-0.395447,0.936584,0.45639,0.15213,0.15213,6.6467e+06
-0.00396729,-0.394714,0.92865,0.608521,0.15213,0.30426,6.6467e+06
-0.00396729,-0.394714,0.92865,0.608521,0.15213,0.30426,6.6467e+06
-0.00946045,-0.390625,0.934509,0.15213,0.45639,0.30426,6.6467e+06
-0.0110474,-0.393127,0.941345,-0,-0.30426,0.15213,6.6467e+06
-0.0110474,-0.393127,0.941345,-0,-0.30426,0.15213,6.6467e+06
-0.00750732,-0.394592,0.939758,-0,0.15213,-0.45639,6.6467e+06
-0.00982666,-0.393433,0.932434,-0.45639,-0,0.15213,6.6467e+06
-0.00982666,-0.393433,0.932434,-0.45639,-0,0.15213,6.6467e+06
-0.00421143,-0.394653,0.924561,0.15213,0.30426,-0,6.6467e+06
-0.0136719,-0.389404,0.92865,0.30426,-0.15213,0.608521,6.6467e+06
-0.0136719,-0.389404,0.92865,0.30426,-0.15213,0.608521,6.6467e+06
-0.00933838,-0.396606,0.937195,0.608521,0.15213,0.30426,6.6467e+06
-0.00805664,-0.402283,0.94812,0.608521,0.45639,-0,6.6467e+06
-0.00805664,-0.402283,0.94812,0.608521,0.45639,-0,6.6467e+06
-0.0065918,-0.400574,0.93219,0.30426,0.760651,-0,6.6467e+06
-0.0112915,-0.394287,0.936157,-0.15213,-0,-0,6.6467e+06
-0.0112915,-0.394287,0.936157,-0.15213,-0,-0,6.6467e+06
-0.00750732,-0.391785,0.934265,-0,-0.15213,0.30426,6.6467e+06
-0.00958252,-0.395752,0.938721,0.15213,0.15213,-0,6.6467e+06
-0.00958252,-0.395752,0.938721,0.15213,0.15213,-0,6.6467e+06
-0.00836182,-0.395813,0.936584,-0,-0,0.30426,6.6467e+06
-0.00610352,-0.400818,0.934692,0.15213,0.608521,-0.15213,6.6467e+06
-0.00610352,-0.400818,0.934692,0.15213,0.608521,-0.15213,6.6467e+06
-0.013855,-0.397644,0.939148,0.30426,0.45639,-0,6.6467e+06
-0.00793457,-0.394409,0.936096,0.760651,0.608521,-0,6.6467e+06
-0.00793457,-0.394409,0.936096,0.760651,0.608521,-0,6.6467e+06
-0.0103149,-0.390564,0.934326,0.15213,0.760651,0.15213,6.6467e+06
-0.00964355,-0.394104,0.935547,-0,-0.15213,0.15213,6.6467e+06
-0.00964355,-0.394104,0.935547,-0,-0.15213,0.15213,6.6467e+06
-0.0102539,-0.402283,0.935242,0.30426,0.45639,-0.15213,6.6467e+06
-0.0101318,-0.400574,0.936218,-0.15213,-0,-0,6.6467e+06
-0.0101318,-0.400574,0.936218,-0.15213,-0,-0,6.6467e+06
-0.0065918,-0.392456,0.933167,0.15213,0.30426,0.30426,6.6467e+06
-0.0065918,-0.390076,0.929382,0.15213,0.30426,-0.30426,6.6467e+06
-0.0065918,-0.390076,0.929382,0.15213,0.30426,-0.30426,6.6467e+06
-0.00964355,-0.398682,0.931213,0.45639,0.45639,-0,6.6467e+06
-0.010376,-0.4021,0.931946,0.15213,0.15213,0.45639,6.6467e+06
-0.010376,-0.4021,0.931946,0.15213,0.15213,0.45639,6.6467e+06
-0.00976562,-0.395752,0.930786,0.45639,0.45639,-0,6.6467e+06
-0.00708008,-0.397217,0.931763,0.608521,0.15213,-0,6.6467e+06
-0.00708008,-0.397217,0.931763,0.608521,0.15213,-0,6.6467e+06
-0.00738525,-0.388611,0.933533,0.15213,0.30426,0.30426,6.6467e+06
-0.00793457,-0.392273,0.934326,-0,-0.15213,-0.15213,6.6467e+06
-0.00793457,-0.392273,0.934326,-0,-0.15213,-0.15213,6.6467e+06
-0.00805664,-0.400574,0.934326,0.15213,0.15213,-0,6.6467e+06
-0.0106812,-0.39801,0.932739,0.45639,0.15213,-0,6.6467e+06
-0.0106812,-0.39801,0.932739,0.45639,0.15213,-0,6.6467e+06
-0.00756836,-0.391052,0.927429,0.45639,0.15213,0.15213,6.6467e+06
-0.00805664,-0.389587,0.931335,0.30426,0.15213,-0,6.6467e+06
-0.00805664,-0.389587,0.931335,0.30426,0.15213,-0,6.6467e+06
-0.0107422,-0.397278,0.937439,-0,-0,-0.15213,6.6467e+06
-0.00836182,-0.397705,0.934265,-0.15213,-0,0.15213,6.6467e+06
-0.00836182,-0.397705,0.934265,-0.15213,-0,0.15213,6.6467e+06
-0.00933838,-0.399475,0.934387,-0,0.15213,0.15213,6.6467e+06
-0.00518799,-0.394043,0.930908,0.15213,0.15213,-0,6.6467e+06
-0.00518799,-0.394043,0.930908,0.15213,0.15213,-0,6.6467e+06
-0.00756836,-0.389954,0.929382,-0,-0,0.30426,6.6467e+06
-0.00543213,-0.394897,0.934143,0.15213,0.15213,0.15213,6.6467e+06
-0.00543213,-0.394897,0.934143,0.15213,0.15213,0.15213,6.6467e+06
-0.00915527,-0.400818,0.933533,0.45639,0.15213,0.15213,6.6467e+06
-0.00750732,-0.398865,0.940613,0.45639,0.30426,-0,6.6467e+06
-0.00750732,-0.398865,0.940613,0.45639,0.30426,-0,6.6467e+06
-0.00756836,-0.394348,0.933228,0.15213,0.30426,-0.15213,6.6467e+06
-0.00811768,-0.393616,0.934021,-0,0.30426,-0,6.6467e+06
-0.00811768,-0.393616,0.934021,-0,0.30426,-0,6.6467e+06
-0.00543213,-0.394165,0.93573,-0,0.15213,-0.15213,6.6467e+06
-0.00744629,-0.397705,0.932007,0.15213,0.30426,0.15213,6.6467e+06
-0.00744629,-0.397705,0.932007,0.15213,0.30426,0.15213,6.6467e+06
-0.0088501,-0.397766,0.929749,0.30426,-0.15213,0.15213,6.6467e+06
-0.00982666,-0.392029,0.932861,0.45639,0.15213,0.15213,6.6467e+06
-0.00982666,-0.392029,0.932861,0.45639,0.15213,0.15213,6.6467e+06
-0.00701904,-0.389709,0.934143,-0,-0,0.15213,6.6467e+06
-0.00726318,-0.398315,0.935608,0.30426,0.30426,-0.30426,6.6467e+06
-0.00726318,-0.398315,0.935608,0.30426,0.30426,-0.30426,6.6467e+06
-0.0117188,-0.401611,0.938477,-0,-0.15213,0.15213,6.6467e+06
-0.0098877,-0.397522,0.937866,-0,-0.15213,0.15213,6.6467e+06
-0.0098877,-0.397522,0.937866,-0,-0.15213,0.15213,6.6467e+06
-0.00933838,-0.389343,0.93042,-0.15213,0.30426,-0,6.6467e+06
-0.0088501,-0.389771,0.932251,0.15213,0.15213,0.30426,6.6467e+06
-0.0088501,-0.389771,0.932251,0.15213,0.15213,0.30426,6.6467e+06
-0.00665283,-0.395386,0.931152,0.15213,0.30426,-0,6.6467e+06
-0.0012207,-0.404846,0.953674,-0,0.15213,-0,6.6467e+06
-0.0012207,-0.404846,0.953674,-0,0.15213,-0,6.6467e+06
-0.0164185,-0.415466,0.927246,0.30426,-0.45639,-0.15213,6.6467e+06
-0.015625,-0.401855,0.930359,0.45639,0.15213,0.30426,6.6467e+06
-0.015625,-0.401855,0.930359,0.45639,0.15213,0.30426,6.6467e+06
-0.00158691,-0.367676,0.933289,0.15213,0.608521,0.45639,6.6467e+06
-0.0118408,-0.38501,0.960144,-0.15213,-0.912781,0.15213,6.6467e+06
-0.0118408,-0.38501,0.960144,-0.15213,-0.912781,0.15213,6.6467e+06
-0.0161133,-0.411682,0.93634,-0.30426,-0.15213,-0,6.6467e+06
-0.00262451,-0.392029,0.930298,-0.30426,-0.608521,-0.15213,6.6467e+06
-0.00262451,-0.392029,0.930298,-0.30426,-0.608521,-0.15213,6.6467e+06
0.00244141,-0.385193,0.944702,-0,-0.912781,0.45639,6.6467e+06
-0.0133057,-0.407166,0.940735,-0,-0.45639,0.15213,6.6467e+06
-0.0133057,-0.407166,0.940735,-0,-0.45639,0.15213,6.6467e+06
-0.0119629,-0.404175,0.941406,-1.06491,-0.15213,-0.30426,6.6467e+06
-0.00836182,-0.382629,0.916321,-0,0.15213,-0,6.6467e+06
-0.00836182,-0.382629,0.916321,-0,0.15213,-0,6.6467e+06
-0.0117798,-0.388,0.921387,1.06491,-0,0.15213,6.6467e+06
-0.00543213,-0.406616,0.960632,1.06491,-0,0.15213,6.6467e+06
-0.00543213,-0.406616,0.960632,1.06491,-0,0.15213,6.6467e+06
-0.0115356,-0.40332,0.962585,-0.608521,-0.45639,0.30426,6.6467e+06
-0.00256348,-0.392151,0.928711,-1.5213,-0,0.30426,6.6467e+06
-0.00256348,-0.392151,0.928711,-1.5213,-0,0.30426,6.6467e+06
-0.0131226,-0.392517,0.917419,-0.30426,-0,-0.30426,6.6467e+06
-0.00982666,-0.399353,0.940308,-0,-0.15213,-0.15213,6.6467e+06
-0.00982666,-0.399353,0.940308,-0,-0.15213,-0.15213,6.6467e+06
-0.00543213,-0.39325,0.944519,0.15213,0.45639,0.30426,6.6467e+06
-0.00982666,-0.389221,0.928589,0.30426,0.30426,0.30426,6.6467e+06
-0.00982666,-0.389221,0.928589,0.30426,0.30426,0.30426,6.6467e+06
-0.00732422,-0.396484,0.931702,0.45639,0.15213,-0.15213,6.6467e+06
-0.0114136,-0.396423,0.940247,0.608521,0.15213,-0.30426,6.6467e+06
-0.0114136,-0.396423,0.940247,0.608521,0.15213,-0.30426,6.6467e+06
-0.00384521,-0.391174,0.932556,0.45639,0.45639,-0,6.6467e+06
-0.0107422,-0.392517,0.93634,0.15213,-0.15213,0.30426,6.6467e+06
-0.0107422,-0.392517,0.93634,0.15213,-0.15213,0.30426,6.6467e+06
-0.00622559,-0.400818,0.951355,-0.608521,-0.30426,0.30426,6.6467e+06
-0.00750732,-0.395447,0.937805,-0.608521,0.30426,-0.30426,6.6467e+06
-0.00750732,-0.395447,0.937805,-0.608521,0.30426,-0.30426,6.6467e+06
-0.0106201,-0.386353,0.908813,-0.45639,0.45639,-0,6.6467e+06
-0.00683594,-0.395752,0.929932,0.45639,-0.30426,0.30426,6.6467e+06
-0.00683594,-0.395752,0.929932,0.45639,-0.30426,0.30426,6.6467e+06
-0.00964355,-0.402466,0.949036,0.912781,0.608521,0.30426,6.6467e+06
-0.00561523,-0.395996,0.935303,0.15213,0.608521,-0,6.6467e+06
-0.00561523,-0.395996,0.935303,0.15213,0.608521,-0,6.6467e+06
-0.00866699,-0.384644,0.921204,0.15213,0.30426,0.15213,6.6467e+06
-0.00830078,-0.400269,0.940063,0.760651,0.45639,0.15213,6.6467e+06
-0.00830078,-0.400269,0.940063,0.760651,0.45639,0.15213,6.6467e+06
-0.00915527,-0.406982,0.953003,-0,-0.45639,-0.30426,6.6467e+06
-0.00964355,-0.391418,0.933594,-0.45639,0.608521,-0.15213,6.6467e+06
-0.00964355,-0.391418,0.933594,-0.45639,0.608521,-0.15213,6.6467e+06
-0.00543213,-0.386047,0.928894,-0.15213,0.15213,-0,6.6467e+06
-0.00683594,-0.396851,0.936218,-0,-0,0.15213,6.6467e+06
-0.00683594,-0.396851,0.936218,-0,-0,0.15213,6.6467e+06
-0.0098877,-0.40332,0.940857,-0,0.608521,-0.15213,6.6467e+06
-0.0103149,-0.395569,0.914856,0.15213,-0,0.30426,6.6467e+06
-0.0103149,-0.395569,0.914856,0.15213,-0,0.30426,6.6467e+06
-0.010376,-0.393677,0.933533,0.760651,-0,0.15213,6.6467e+06
-0.0101318,-0.402893,0.952209,0.30426,-0,-0,6.6467e+06
-0.0101318,-0.402893,0.952209,0.30426,-0,-0,6.6467e+06
-0.00799561,-0.396729,0.944702,-0.608521,-0,-0.15213,6.6467e+06
-0.0134277,-0.385681,0.919434,-0.30426,0.15213,-0.15213,6.6467e+06
-0.0134277,-0.385681,0.919434,-0.30426,0.15213,-0.15213,6.6467e+06
-0.00909424,-0.391846,0.935059,-0,-0,0.45639,6.6467e+06
-0.00921631,-0.401733,0.944214,-0,-0,0.15213,6.6467e+06
-0.00921631,-0.401733,0.944214,-0,-0,0.15213,6.6467e+06
-0.00238037,-0.39856,0.936279,-0,0.15213,-0.15213,6.6467e+06
-0.00567627,-0.387756,0.92511,-0.15213,0.30426,0.15213,6.6467e+06
-0.00567627,-0.387756,0.92511,-0.15213,0.30426,0.15213,6.6467e+06
-0.0122681,-0.397888,0.935059,0.30426,0.15213,0.30426,6.6467e+06
-0.010498,-0.405518,0.940613,0.608521,-0,-0,6.6467e+06
-0.010498,-0.405518,0.940613,0.608521,-0,-0,6.6467e+06
-0.010437,-0.395203,0.935974,0.30426,0.15213,-0,6.6467e+06
-0.00494385,-0.386292,0.929871,-0,-0,-0,6.6467e+06
-0.00494385,-0.386292,0.929871,-0,-0,-0,6.6467e+06
-0.0100098,-0.392212,0.934753,-0,-0.15213,0.15213,6.6467e+06
-0.0105591,-0.39563,0.9328,-0,0.30426,-0.15213,6.6467e+06
-0.0105591,-0.39563,0.9328,-0,0.30426,-0.15213,6.6467e+06
-0.00762939,-0.395203,0.930725,0.15213,0.30426,-0,6.6467e+06
-0.00738525,-0.39856,0.936768,0.45639,-0,0.45639,6.6467e+06
-0.00738525,-0.39856,0.936768,0.45639,-0,0.45639,6.6467e+06
-0.00640869,-0.39502,0.93988,0.15213,0.30426,0.15213,6.6467e+06
-0.0111084,-0.391785,0.936279,-0,0.15213,0.15213,6.6467e+06
-0.0111084,-0.391785,0.936279,-0,0.15213,0.15213,6.6467e+06
-0.00946045,-0.388489,0.919128,0.30426,0.45639,-0.30426,6.6467e+06
-0.00891113,-0.396545,0.932129,0.608521,-0.30426,0.15213,6.6467e+06
-0.00891113,-0.396545,0.932129,0.608521,-0.30426,0.15213,6.6467e+06
-0.00604248,-0.401611,0.946716,0.760651,0.30426,0.15213,6.6467e+06
-0.0065918,-0.393005,0.937622,-0,0.30426,0.15213,6.6467e+06
-0.0065918,-0.393005,0.937622,-0,0.30426,0.15213,6.6467e+06
-0.00793457,-0.390137,0.928894,-0.608521,0.30426,-0.15213,6.6467e+06
-0.00762939,-0.396667,0.928772,-0.45639,-0.30426,-0,6.6467e+06
-0.00762939,-0.396667,0.928772,-0.45639,-0.30426,-0,6.6467e+06
-0.00952148,-0.401428,0.941589,0.15213,0.30426,-0,6.6467e+06
-0.00897217,-0.394165,0.939941,0.15213,0.30426,0.15213,6.6467e+06
-0.00897217,-0.394165,0.939941,0.15213,0.30426,0.15213,6.6467e+06
-0.00933838,-0.387878,0.933472,0.15213,0.30426,-0,6.6467e+06
-0.0117798,-0.392029,0.936829,0.30426,0.15213,0.45639,6.6467e+06
-0.0117798,-0.392029,0.936829,0.30426,0.15213,0.45639,6.6467e+06
-0.00946045,-0.398987,0.937439,-0,-0.30426,-0.15213,6.6467e+06
-0.010498,-0.397522,0.935486,0.15213,0.15213,-0,6.6467e+06
-0.010498,-0.397522,0.935486,0.15213,0.15213,-0,6.6467e+06
-0.00701904,-0.396729,0.937988,0.15213,0.608521,0.30426,6.6467e+06
-0.00836182,-0.389038,0.9328,-0,-0,0.15213,6.6467e+06
-0.00836182,-0.389038,0.9328,-0,-0,0.15213,6.6467e+06
-0.00848389,-0.386169,0.937317,-0.30426,-0.15213,-0.15213,6.6467e+06
-0.00689697,-0.392517,0.924622,0.45639,0.30426,0.15213,6.6467e+06
-0.00689697,-0.392517,0.924622,0.45639,0.30426,0.15213,6.6467e+06
-0.00653076,-0.399109,0.933411,0.45639,-0.15213,0.15213,6.6467e+06
-0.0100098,-0.398804,0.942566,0.608521,0.45639,0.30426,6.6467e+06
-0.0100098,-0.398804,0.942566,0.608521,0.45639,0.30426,6.6467e+06
-0.00866699,-0.395874,0.936707,0.30426,0.608521,-0,6.6467e+06
-0.00878906,-0.394287,0.930542,-0.15213,-0,0.15213,6.6467e+06
-0.00878906,-0.394287,0.930542,-0.15213,-0,0.15213,6.6467e+06
-0.00982666,-0.401001,0.935059,-0.15213,-0.15213,-0.15213,6.6467e+06
-0.010498,-0.396484,0.927063,-0.15213,0.45639,-0.15213,6.6467e+06
-0.010498,-0.396484,0.927063,-0.15213,0.45639,-0.15213,6.6467e+06
-0.00665283,-0.387939,0.932678,0.15213,0.15213,0.15213,6.6467e+06
-0.00671387,-0.389648,0.932861,0.45639,-0.15213,0.30426,6.6467e+06
-0.00671387,-0.389648,0.932861,0.45639,-0.15213,0.30426,6.6467e+06
-0.00646973,-0.399536,0.938171,0.608521,-0,0.15213,6.6467e+06
-0.0100708,-0.398376,0.939941,-0.15213,0.15213,0.15213,6.6467e+06
-0.0100708,-0.398376,0.939941,-0.15213,0.15213,0.15213,6.6467e+06
-0.00982666,-0.397705,0.93042,0.15213,0.15213,-0,6.6467e+06
-0.00714111,-0.395386,0.932739,-0,-0.15213,0.15213,6.6467e+06
-0.00714111,-0.395386,0.932739,-0,-0.15213,0.15213,6.6467e+06
-0.0088501,-0.391663,0.937256,-0,-0,0.15213,6.6467e+06
-0.00585938,-0.392761,0.938171,-0.30426,-0,-0.15213,6.6467e+06
-0.00585938,-0.392761,0.938171,-0.30426,-0,-0.15213,6.6467e+06
-0.00738525,-0.392944,0.920776,-0.15213,-0.15213,-0,6.6467e+06
-0.00897217,-0.395691,0.925354,0.912781,-0,-0,6.6467e+06
-0.00897217,-0.395691,0.925354,0.912781,-0,-0,6.6467e+06
-0.00842285,-0.398743,0.940613,0.912781,0.15213,0.15213,6.6467e+06
-0.00762939,-0.397583,0.941284,0.30426,-0,-0.15213,6.6467e+06
-0.00762939,-0.397583,0.941284,0.30426,-0,-0.15213,6.6467e+06
-0.00640869,-0.396362,0.938171,-0.30426,0.15213,-0,6.6467e+06
-0.00891113,-0.39624,0.930542,-0.608521,0.15213,-0.15213,6.6467e+06
-0.00891113,-0.39624,0.930542,-0.608521,0.15213,-0.15213,6.6467e+06
-0.00860596,-0.396973,0.929443,-0.30426,-0,-0.15213,6.6467e+06
-0.00909424,-0.392517,0.928955,0.15213,0.15213,0.15213,6.6467e+06
-0.00909424,-0.392517,0.928955,0.15213,0.15213,0.15213,6.6467e+06
-0.0113525,-0.390198,0.933899,0.608521,0.30426,0.15213,6.6467e+06
-0.00836182,-0.392456,0.937134,0.45639,0.15213,-0,6.6467e+06
-0.00836182,-0.392456,0.937134,0.45639,0.15213,-0,6.6467e+06
-0.00897217,-0.401001,0.933899,0.30426,0.45639,-0.15213,6.6467e+06
-0.00854492,-0.399719,0.932861,0.45639,0.45639,0.15213,6.6467e+06
-0.00854492,-0.399719,0.932861,0.45639,0.45639,0.15213,6.6467e+06
-0.0078125,-0.396484,0.941589,0.15213,0.30426,-0,6.6467e+06
-0.00726318,-0.393738,0.942444,-0.15213,-0.15213,0.15213,6.6467e+06
-0.00726318,-0.393738,0.942444,-0.15213,-0.15213,0.15213,6.6467e+06
-0.00714111,-0.393005,0.93689,-0.760651,-0,0.15213,6.6467e+06
-0.00823975,-0.396362,0.928955,-0.15213,-0,0.15213,6.6467e+06
-0.00823975,-0.396362,0.928955,-0.15213,-0,0.15213,6.6467e+06
-0.0100708,-0.397522,0.929626,0.30426,0.15213,-0,6.6467e+06
-0.00756836,-0.396973,0.934937,0.760651,0.15213,0.45639,6.6467e+06
-0.00756836,-0.396973,0.934937,0.760651,0.15213,0.45639,6.6467e+06
-0.00714111,-0.39502,0.93219,0.608521,0.30426,-0,6.6467e+06
-0.00689697,-0.392822,0.938416,0.30426,0.15213,0.30426,6.6467e+06
-0.00689697,-0.392822,0.938416,0.30426,0.15213,0.30426,6.6467e+06
-0.0105591,-0.398254,0.940735,0.15213,0.15213,-0.15213,6.6467e+06
-0.00933838,-0.397888,0.937378,0.15213,0.15213,0.15213,6.6467e+06
-0.00933838,-0.397888,0.937378,0.15213,0.15213,0.15213,6.6467e+06
-0.0088501,-0.391296,0.929565,0.15213,0.15213,0.30426,6.6467e+06
-0.0045166,-0.38678,0.930664,0.15213,0.30426,0.15213,6.6467e+06
-0.0045166,-0.38678,0.930664,0.15213,0.30426,0.15213,6.6467e+06
-0.00439453,-0.39209,0.937561,0.15213,0.15213,0.15213,6.6467e+06
-0.0100098,-0.400146,0.938416,0.15213,0.45639,0.15213,6.6467e+06
-0.0100098,-0.400146,0.938416,0.15213,0.45639,0.15213,6.6467e+06
-0.0101929,-0.399475,0.926086,0.15213,0.608521,-0.30426,6.6467e+06
-0.00726318,-0.390198,0.930115,0.760651,0.15213,0.45639,6.6467e+06
-0.00726318,-0.390198,0.930115,0.760651,0.15213,0.45639,6.6467e+06
-0.00653076,-0.390259,0.942505,0.30426,-0,0.15213,6.6467e+06
-0.00958252,-0.393799,0.939819,0.15213,0.15213,-0,6.6467e+06
-0.00958252,-0.393799,0.939819,0.15213,0.15213,-0,6.6467e+06
-0.00592041,-0.396729,0.929871,0.15213,0.45639,-0,6.6467e+06
-0.00610352,-0.395935,0.931091,0.45639,0.30426,0.15213,6.6467e+06
-0.00610352,-0.395935,0.931091,0.45639,0.30426,0.15213,6.6467e+06
-0.00805664,-0.394348,0.93158,0.15213,0.15213,-0,6.6467e+06
-0.00683594,-0.394592,0.935303,0.15213,0.30426,0.30426,6.6467e+06
-0.00683594,-0.394592,0.935303,0.15213,0.30426,0.30426,6.6467e+06
-0.00744629,-0.388916,0.93158,0.15213,0.45639,0.15213,6.6467e+06
-0.0101929,-0.397217,0.929016,0.30426,0.15213,-0,6.6467e+06
-0.0101929,-0.397217,0.929016,0.30426,0.15213,-0,6.6467e+06
-0.0102539,-0.398071,0.93811,0.45639,0.15213,-0.15213,6.6467e+06
-0.010437,-0.394226,0.932922,0.760651,0.15213,-0,6.6467e+06
-0.010437,-0.394226,0.932922,0.760651,0.15213,-0,6.6467e+06
-0.00616455,-0.392029,0.939087,0.45639,0.15213,0.15213,6.6467e+06
-0.0078125,-0.392517,0.938965,0.15213,0.45639,0.15213,6.6467e+06
-0.0078125,-0.392517,0.938965,0.15213,0.45639,0.15213,6.6467e+06
-0.0110474,-0.39801,0.936157,-0.30426,0.15213,-0,6.6467e+06
-0.0108643,-0.403564,0.930847,-0.15213,-0.15213,-0,6.6467e+06
-0.0108643,-0.403564,0.930847,-0.15213,-0.15213,-0,6.6467e+06
-0.00909424,-0.392273,0.931946,-0.15213,-0,0.15213,6.6467e+06
-0.0101929,-0.386169,0.937195,-0.15213,-0,0.15213,6.6467e+06
-0.0101929,-0.386169,0.937195,-0.15213,-0,0.15213,6.6467e+06
-0.00567627,-0.388489,0.929321,0.15213,0.15213,0.30426,6.6467e+06
-0.00982666,-0.399048,0.93219,0.30426,0.30426,0.15213,6.6467e+06
-0.00982666,-0.399048,0.93219,0.30426,0.30426,0.15213,6.6467e+06
-0.00689697,-0.398682,0.939026,0.30426,0.30426,-0,6.6467e+06
-0.00842285,-0.39563,0.936584,0.45639,0.15213,0.15213,6.6467e+06
-0.00842285,-0.39563,0.936584,0.45639,0.15213,0.15213,6.6467e+06
-0.0090332,-0.393188,0.941345,-0.45639,-0,0.15213,6.6467e+06
-0.00836182,-0.391846,0.937256,-0.30426,-0.15213,-0,6.6467e+06
-0.00836182,-0.391846,0.937256,-0.30426,-0.15213,-0,6.6467e+06
-0.00769043,-0.395203,0.93689,-0.30426,-0,0.15213,6.6467e+06
-0.0111694,-0.400391,0.931335,0.15213,0.45639,-0.15213,6.6467e+06
-0.0111694,-0.400391,0.931335,0.15213,0.45639,-0.15213,6.64671e+06
-0.00927734,-0.393066,0.933533,0.15213,0.15213,0.30426,6.64671e+06
-0.00854492,-0.382324,0.931763,0.30426,0.15213,0.45639,6.64671e+06
-0.00854492,-0.382324,0.931763,0.30426,0.15213,0.45639,6.64671e+06
-0.0045166,-0.386719,0.938416,0.45639,0.15213,-0,6.64671e+06
-0.00817871,-0.400696,0.940613,0.45639,-0,-0,6.64671e+06
-0.00817871,-0.400696,0.940613,0.45639,-0,-0,6.64671e+06
-0.00683594,-0.404907,0.939087,0.45639,0.608521,-0.15213,6.64671e+06
-0.00610352,-0.397888,0.934021,-0.30426,-0.15213,-0,6.64671e+06
-0.00610352,-0.397888,0.934021,-0.30426,-0.15213,-0,6.64671e+06
-0.0045166,-0.386597,0.931519,-0.30426,-0.15213,-0,6.64671e+06
-0.00756836,-0.387146,0.931702,-0.45639,-0.30426,0.15213,6.64671e+06
-0.00756836,-0.387146,0.931702,-0.45639,-0.30426,0.15213,6.64671e+06
-0.00909424,-0.397766,0.934265,-0,-0,0.15213,6.64671e+06
-0.00921631,-0.398193,0.932312,0.608521,0.760651,-0,6.64671e+06
-0.00921631,-0.398193,0.932312,0.608521,0.760651,-0,6.64671e+06
-0.00860596,-0.393616,0.930847,0.760651,0.15213,0.15213,6.64671e+06
-0.0043335,-0.394287,0.93988,0.912781,0.30426,0.30426,6.64671e+06
-0.0043335,-0.394287,0.93988,0.912781,0.30426,0.30426,6.64671e+06
-0.00848389,-0.394043,0.944397,0.15213,-0,0.30426,6.64671e+06
-0.0117798,-0.398865,0.940308,-0.30426,-0.30426,0.15213,6.64671e+06
-0.0117798,-0.398865,0.940308,-0.30426,-0.30426,0.15213,6.64671e+06
-0.00970459,-0.397339,0.932373,-0.15213,0.30426,-0,6.64671e+06
-0.00604248,-0.392761,0.931519,0.15213,0.30426,-0,6.64671e+06
-0.00604248,-0.392761,0.931519,0.15213,0.30426,-0,6.64671e+06
-0.00878906,-0.388,0.931519,-0,-0.15213,0.15213,6.64671e+06
-0.00531006,-0.39209,0.934631,0.30426,-0,-0.15213,6.64671e+06
-0.00531006,-0.39209,0.934631,0.30426,-0,-0.15213,6.64671e+06
-0.0100098,-0.399658,0.940308,0.760651,0.15213,0.30426,6.64671e+06
-0.00823975,-0.401367,0.937805,0.15213,0.608521,0.15213,6.64671e+06
-0.00823975,-0.401367,0.937805,0.15213,0.608521,0.15213,6.64671e+06
-0.0103149,-0.396423,0.936768,0.15213,0.15213,-0,6.64671e+06
-0.00878906,-0.390076,0.935791,0.15213,0.15213,0.15213,6.64671e+06
-0.00878906,-0.390076,0.935791,0.15213,0.15213,0.15213,6.64671e+06
-0.00799561,-0.390259,0.938171,-0.15213,-0,0.30426,6.64671e+06
-0.00811768,-0.394104,0.93335,0.30426,0.15213,-0.15213,6.64671e+06
-0.00811768,-0.394104,0.93335,0.30426,0.15213,-0.15213,6.64671e+06
-0.00921631,-0.400696,0.928711,0.15213,0.15213,-0,6.64671e+06
-0.00756836,-0.39679,0.936707,-0.30426,-0,0.15213,6.64671e+06
-0.00756836,-0.39679,0.936707,-0.30426,-0,0.15213,6.64671e+06
-0.00726318,-0.392517,0.935181,0.45639,0.15213,0.45639,6.64671e+06
-0.00811768,-0.391846,0.931274,0.30426,0.760651,-0.15213,6.64671e+06
-0.00811768,-0.391846,0.931274,0.30426,0.760651,-0.15213,6.64671e+06
-0.00964355,-0.395264,0.935364,-0,-0,0.15213,6.64671e+06
-0.0112915,-0.396973,0.934204,0.15213,0.30426,0.30426,6.64671e+06
-0.0112915,-0.396973,0.934204,0.15213,0.30426,0.30426,6.64671e+06
-0.00897217,-0.396545,0.941711,0.30426,0.15213,0.15213,6.64671e+06
-0.00891113,-0.388611,0.933533,0.15213,0.15213,-0,6.64671e+06
-0.00891113,-0.388611,0.933533,0.15213,0.15213,-0,6.64671e+06
-0.00750732,-0.387024,0.929138,-0.15213,0.30426,0.15213,6.64671e+06
-0.00836182,-0.397888,0.934814,-0,-0,-0.15213,6.64671e+06
-0.00836182,-0.397888,0.934814,-0,-0,-0.15213,6.64671e+06
-0.00964355,-0.402527,0.934998,0.15213,0.45639,0.15213,6.64671e+06
-0.00927734,-0.400146,0.932739,-0.15213,0.15213,0.15213,6.64671e+06
-0.00927734,-0.400146,0.932739,-0.15213,0.15213,0.15213,6.64671e+06
-0.00952148,-0.391357,0.933411,0.30426,-0,-0.15213,6.64671e+06
-0.00634766,-0.389343,0.930969,0.15213,0.30426,0.30426,6.64671e+06
-0.00634766,-0.389343,0.930969,0.15213,0.30426,0.30426,6.64671e+06
-0.0105591,-0.398499,0.937073,0.15213,0.30426,-0.15213,6.64671e+06
-0.0101318,-0.399963,0.933411,0.30426,-0,0.15213,6.64671e+06
-0.0101318,-0.399963,0.933411,0.30426,-0,0.15213,6.64671e+06
-0.00787354,-0.395752,0.931763,0.45639,0.608521,-0.15213,6.64671e+06
-0.00756836,-0.392761,0.937256,0.15213,0.15213,0.15213,6.64671e+06
-0.00756836,-0.392761,0.937256,0.15213,0.15213,0.15213,6.64671e+06
-0.00671387,-0.394775,0.94043,-0,-0.30426,0.30426,6.64671e+06
-0.00921631,-0.396362,0.934021,0.15213,0.30426,0.15213,6.64671e+06
-0.00921631,-0.396362,0.934021,0.15213,0.30426,0.15213,6.64671e+06
-0.00775146,-0.403809,0.929871,0.45639,0.760651,-0.30426,6.64671e+06
-0.00939941,-0.398804,0.930786,0.15213,0.15213,0.15213,6.64671e+06
-0.00939941,-0.398804,0.930786,0.15213,0.15213,0.15213,6.64671e+06
-0.00793457,-0.390442,0.933655,0.15213,-0.15213,0.15213,6.64671e+06
-0.00805664,-0.391907,0.930359,0.608521,0.45639,-0.15213,6.64671e+06
-0.00805664,-0.391907,0.930359,0.608521,0.45639,-0.15213,6.64671e+06
-0.00891113,-0.397705,0.936951,0.15213,0.30426,0.30426,6.64671e+06
-0.00769043,-0.400452,0.93457,0.30426,0.45639,-0.15213,6.64671e+06
-0.00769043,-0.400452,0.93457,0.30426,0.45639,-0.15213,6.64671e+06
-0.0107422,-0.395325,0.937622,0.608521,0.45639,-0.15213,6.64671e+06
-0.00799561,-0.394165,0.937988,0.45639,0.30426,0.15213,6.64671e+06
-0.00799561,-0.394165,0.937988,0.45639,0.30426,0.15213,6.64671e+06
-0.00811768,-0.391418,0.940735,-0,-0,0.30426,6.64671e+06
-0.00946045,-0.400574,0.935608,-0,-0,-0,6.64671e+06
-0.00946045,-0.400574,0.935608,-0,-0,-0,6.64671e+06
-0.0105591,-0.402405,0.929504,-0.15213,0.15213,-0,6.64671e+06
-0.00726318,-0.396973,0.932922,0.608521,0.45639,0.15213,6.64671e+06
-0.00726318,-0.396973,0.932922,0.608521,0.45639,0.15213,6.64671e+06
-0.00915527,-0.389893,0.937256,0.608521,0.30426,0.30426,6.64671e+06
-0.00915527,-0.390991,0.933472,0.30426,0.15213,-0,6.64671e+06
-0.00915527,-0.390991,0.933472,0.30426,0.15213,-0,6.64671e+06
-0.0105591,-0.400696,0.941284,0.45639,0.760651,-0,6.64671e+06
-0.00714111,-0.40094,0.936462,0.45639,0.15213,-0.30426,6.64671e+06
-0.00714111,-0.40094,0.936462,0.45639,0.15213,-0.30426,6.64671e+06
-0.00695801,-0.393433,0.93811,0.30426,0.30426,0.30426,6.64671e+06
-0.00585938,-0.392212,0.937866,-0.15213,-0.15213,-0,6.64671e+06
-0.00585938,-0.392212,0.937866,-0.15213,-0.15213,-0,6.64671e+06
-0.00695801,-0.391541,0.934326,-0,-0,0.30426,6.64671e+06
-0.0090332,-0.396606,0.929199,0.15213,0.15213,0.15213,6.64671e+06
-0.0090332,-0.396606,0.929199,0.15213,0.15213,0.15213,6.64671e+06
-0.00939941,-0.399475,0.935913,-0,-0.15213,-0.15213,6.64671e+06
-0.00604248,-0.398315,0.931702,0.608521,0.30426,-0,6.64671e+06
-0.00604248,-0.398315,0.931702,0.608521,0.30426,-0,6.64671e+06
-0.00683594,-0.393494,0.936462,0.760651,0.30426,0.15213,6.64671e+06
-0.0109253,-0.394531,0.940491,0.15213,0.15213,-0.15213,6.64671e+06
-0.0109253,-0.394531,0.940491,0.15213,0.15213,-0.15213,6.64671e+06
-0.0109863,-0.395691,0.932007,0.30426,0.30426,-0,6.64671e+06
-0.00634766,-0.401978,0.935852,-0,-0,-0.15213,6.64671e+06
-0.00634766,-0.401978,0.935852,-0,-0,-0.15213,6.64671e+06
-0.00915527,-0.399841,0.937256,-0.15213,-0.15213,-0,6.64671e+06
-0.00695801,-0.391968,0.933777,-0,0.15213,-0,6.64671e+06
-0.00695801,-0.391968,0.933777,-0,0.15213,-0,6.64671e+06
-0.00842285,-0.389282,0.934814,-0,-0.30426,-0,6.64671e+06
-0.013916,-0.394531,0.928528,0.15213,0.15213,0.15213,6.64671e+06
-0.013916,-0.394531,0.928528,0.15213,0.15213,0.15213,6.64671e+06
-0.00787354,-0.398865,0.937134,0.760651,0.45639,-0.15213,6.64671e+06
-0.0112915,-0.399475,0.937988,0.45639,0.30426,0.30426,6.64671e+06
-0.0112915,-0.399475,0.937988,0.45639,0.30426,0.30426,6.64671e+06
-0.00958252,-0.391418,0.939636,0.15213,0.30426,0.30426,6.64671e+06
-0.00799561,-0.391724,0.942566,0.15213,0.30426,0.30426,6.64671e+06
-0.00799561,-0.391724,0.942566,0.15213,0.30426,0.30426,6.64671e+06
-0.00952148,-0.395752,0.938782,-0,-0.15213,-0,6.64671e+06
-0.00823975,-0.399658,0.936462,-0.30426,-0,0.15213,6.64671e+06
-0.00823975,-0.399658,0.936462,-0.30426,-0,0.15213,6.64671e+06
-0.00927734,-0.397278,0.93573,0.15213,0.15213,0.30426,6.64671e+06
-0.00683594,-0.390991,0.929504,0.15213,0.30426,0.30426,6.64671e+06
-0.00683594,-0.390991,0.929504,0.15213,0.30426,0.30426,6.64671e+06
-0.00769043,-0.386841,0.933716,0.30426,0.15213,0.30426,6.64671e+06
-0.00836182,-0.395264,0.937012,0.30426,0.30426,0.30426,6.64671e+06
-0.00836182,-0.395264,0.937012,0.30426,0.30426,0.30426,6.64671e+06
-0.0108643,-0.404114,0.937988,0.45639,0.45639,0.15213,6.64671e+06
-0.010498,-0.401245,0.938477,-0,-0,0.30426,6.64671e+06
-0.010498,-0.401245,0.938477,-0,-0,0.30426,6.64671e+06
-0.0078125,-0.392334,0.93927,0.15213,0.30426,-0,6.64671e+06
-0.00939941,-0.389832,0.934875,-0.45639,-0,0.30426,6.64671e+06
-0.00939941,-0.389832,0.934875,-0.45639,-0,0.30426,6.64671e+06
-0.0107422,-0.390381,0.931213,-0.15213,-0,-0,6.64671e+06
-0.00915527,-0.400085,0.93457,0.15213,0.760651,-0.15213,6.64671e+06
-0.00915527,-0.400085,0.93457,0.15213,0.760651,-0.15213,6.64671e+06
-0.00512695,-0.400757,0.933655,0.45639,0.15213,0.15213,6.64671e+06
-0.00787354,-0.391479,0.938721,0.45639,0.608521,0.30426,6.64671e+06
-0.00787354,-0.391479,0.938721,0.45639,0.608521,0.30426,6.64671e+06
-0.00726318,-0.389099,0.936707,-0.15213,-0,0.15213,6.64671e+06
-0.0100098,-0.395691,0.934509,-0.15213,-0,-0,6.64671e+06
-0.0100098,-0.395691,0.934509,-0.15213,-0,-0,6.64671e+06
-0.00891113,-0.401917,0.939392,-0,0.15213,0.15213,6.64671e+06
-0.00732422,-0.401001,0.936829,-0.15213,-0,-0,6.64671e+06
-0.00732422,-0.401001,0.936829,-0.15213,-0,-0,6.64671e+06
-0.00408936,-0.390625,0.933228,0.15213,0.15213,0.15213,6.64671e+06
-0.00622559,-0.387329,0.929932,-0.15213,-0.15213,0.30426,6.64671e+06
-0.00622559,-0.387329,0.929932,-0.15213,-0.15213,0.30426,6.64671e+06
-0.00946045,-0.395447,0.930542,0.15213,0.15213,-0,6.64671e+06
-0.0119019,-0.402039,0.932983,0.30426,-0.15213,-0,6.64671e+06
-0.0119019,-0.402039,0.932983,0.30426,-0.15213,-0,6.64671e+06
-0.00946045,-0.401733,0.938721,0.30426,-0.15213,-0,6.64671e+06
-0.00866699,-0.391357,0.940308,-0,0.15213,-0,6.64671e+06
-0.00866699,-0.391357,0.940308,-0,0.15213,-0,6.64671e+06
-0.00866699,-0.389099,0.934875,-0,-0.15213,0.15213,6.64671e+06
-0.00976562,-0.39209,0.934021,-0.15213,-0,-0,6.64671e+06
-0.00976562,-0.39209,0.934021,-0.15213,-0,-0,6.64671e+06
-0.00872803,-0.398804,0.935242,0.15213,0.30426,-0,6.64671e+06
-0.00964355,-0.394775,0.932983,0.15213,0.30426,-0,6.64671e+06
-0.00964355,-0.394775,0.932983,0.15213,0.30426,-0,6.64671e+06
-0.00897217,-0.394775,0.934998,0.30426,0.15213,0.15213,6.64671e+06
-0.00524902,-0.391907,0.931763,-0,-0.15213,0.30426,6.64671e+06
-0.00524902,-0.391907,0.931763,-0,-0.15213,0.30426,6.64671e+06
-0.00756836,-0.397278,0.936951,0.30426,0.15213,-0,6.64671e+06
-0.0088501,-0.404358,0.937317,0.15213,0.15213,-0,6.64671e+06
-0.0088501,-0.404358,0.937317,0.15213,0.15213,-0,6.64671e+06
-0.00750732,-0.40033,0.934326,0.15213,0.30426,0.15213,6.64671e+06
-0.00836182,-0.39032,0.938538,0.15213,0.15213,0.15213,6.64671e+06
-0.00836182,-0.39032,0.938538,0.15213,0.15213,0.15213,6.64671e+06
-0.00634766,-0.387695,0.932556,0.15213,0.15213,0.30426,6.64671e+06
-0.0114136,-0.394897,0.932373,0.15213,0.15213,-0,6.64671e+06
-0.0114136,-0.394897,0.932373,0.15213,0.15213,-0,6.64671e+06
-0.00817871,-0.400391,0.934326,0.30426,0.15213,-0,6.64671e+06
-0.0124512,-0.400879,0.934937,0.45639,0.15213,0.30426,6.64671e+06
-0.0124512,-0.400879,0.934937,0.45639,0.15213,0.30426,6.64671e+06
-0.00726318,-0.394287,0.928589,0.15213,0.15213,0.15213,6.64671e+06
-0.00842285,-0.384949,0.932068,-0,0.15213,0.30426,6.64671e+06
-0.00842285,-0.384949,0.932068,-0,0.15213,0.30426,6.64671e+06
-0.0101929,-0.392456,0.939148,-0,-0.30426,-0,6.64671e+06
-0.00927734,-0.399353,0.936279,0.15213,0.15213,-0.15213,6.64671e+06
-0.00927734,-0.399353,0.936279,0.15213,0.15213,-0.15213,6.64671e+06
-0.00823975,-0.39978,0.935669,0.45639,0.45639,-0.15213,6.64671e+06
-0.00671387,-0.392578,0.931335,0.15213,0.45639,0.15213,6.64671e+06
-0.00671387,-0.392578,0.931335,0.15213,0.45639,0.15213,6.64671e+06
-0.00543213,-0.388306,0.937256,0.15213,0.45639,-0,6.64671e+06
-0.00738525,-0.394775,0.932007,0.15213,0.30426,-0,6.64671e+06
-0.00738525,-0.394775,0.932007,0.15213,0.30426,-0,6.64671e+06
-0.0101318,-0.406372,0.933411,0.30426,0.30426,-0,6.64671e+06
-0.00830078,-0.399963,0.930603,0.15213,0.15213,-0,6.64671e+06
-0.00830078,-0.399963,0.930603,0.15213,0.15213,-0,6.64671e+06
-0.00793457,-0.389771,0.933716,-0.15213,-0,0.30426,6.64671e+06
-0.00732422,-0.387878,0.934631,0.15213,0.30426,0.15213,6.64671e+06
-0.00732422,-0.387878,0.934631,0.15213,0.30426,0.15213,6.64671e+06
-0.0102539,-0.395691,0.935913,0.45639,-0.30426,0.15213,6.64671e+06
-0.00854492,-0.400696,0.932983,0.608521,0.45639,-0,6.64671e+06
-0.00854492,-0.400696,0.932983,0.608521,0.45639,-0,6.64671e+06
-0.00701904,-0.400513,0.93927,-0.15213,-0,-0,6.64671e+06
-0.00958252,-0.394165,0.935547,0.30426,0.30426,-0,6.64671e+06
-0.00958252,-0.394165,0.935547,0.30426,0.30426,-0,6.64671e+06
-0.00744629,-0.388672,0.931763,0.15213,0.30426,0.15213,6.64671e+06
-0.00982666,-0.393372,0.935425,-0.15213,-0,0.15213,6.64671e+06
-0.00982666,-0.393372,0.935425,-0.15213,-0,0.15213,6.64671e+06
-0.0109863,-0.400452,0.932983,-0.15213,-0,-0,6.64671e+06
-0.00775146,-0.397522,0.934875,0.30426,0.15213,-0,6.64671e+06
-0.00775146,-0.397522,0.934875,0.30426,0.15213,-0,6.64671e+06
-0.00915527,-0.391846,0.934204,0.30426,0.30426,0.15213,6.64671e+06
-0.00952148,-0.393921,0.93634,0.30426,0.30426,0.30426,6.64671e+06
-0.00952148,-0.393921,0.93634,0.30426,0.30426,0.30426,6.64671e+06
-0.00811768,-0.39502,0.938293,-0,0.15213,-0.15213,6.64671e+06
-0.0106812,-0.398499,0.935669,-0.15213,0.15213,-0.15213,6.64671e+06
-0.0106812,-0.398499,0.935669,-0.15213,0.15213,-0.15213,6.64671e+06
-0.00939941,-0.402649,0.932068,-0.15213,-0,0.30426,6.64671e+06
-0.00952148,-0.392151,0.937012,-0.15213,-0,0.30426,6.64671e+06
-0.00952148,-0.392151,0.937012,-0.15213,-0,0.30426,6.64671e+06
-0.00964355,-0.385681,0.934204,0.15213,0.45639,0.15213,6.64671e+06
-0.00952148,-0.392639,0.931885,0.30426,-0,0.15213,6.64671e+06
-0.00952148,-0.392639,0.931885,0.30426,-0,0.15213,6.64671e+06
-0.0101929,-0.400696,0.940125,0.45639,0.15213,-0,6.64671e+06
-0.0115356,-0.40271,0.941162,0.30426,0.45639,0.30426,6.64671e+06
-0.0115356,-0.40271,0.941162,0.30426,0.45639,0.30426,6.64671e+06
-0.00939941,-0.391296,0.93634,0.15213,0.45639,-0,6.64671e+06
-0.0101318,-0.386475,0.933777,-0.30426,0.30426,0.15213,6.64671e+06
-0.0101318,-0.386475,0.933777,-0.30426,0.30426,0.15213,6.64671e+06
-0.0137939,-0.393311,0.93219,-0,0.15213,0.15213,6.64671e+06
-0.00646973,-0.401367,0.940125,0.15213,0.15213,-0,6.64671e+06
-0.00646973,-0.401367,0.940125,0.15213,0.15213,-0,6.64671e+06
-0.0124512,-0.399048,0.937012,0.15213,0.15213,-0.15213,6.64671e+06
-0.00921631,-0.390747,0.933411,-0,0.15213,0.30426,6.64671e+06
-0.00921631,-0.390747,0.933411,-0,0.15213,0.30426,6.64671e+06
-0.00738525,-0.389343,0.933472,0.15213,0.45639,0.15213,6.64671e+06
-0.0124512,-0.393921,0.933716,0.30426,0.30426,0.15213,6.64671e+06
-0.0124512,-0.393921,0.933716,0.30426,0.30426,0.15213,6.64671e+06
-0.00872803,-0.400757,0.940918,0.30426,-0.30426,-0.30426,6.64671e+06
-0.0115356,-0.399536,0.937317,0.15213,0.15213,-0,6.64671e+06
-0.0115356,-0.399536,0.937317,0.15213,0.15213,-0,6.64671e+06
-0.00482178,-0.391663,0.932129,-0,0.15213,0.30426,6.64671e+06
-0.0088501,-0.387085,0.938599,-0,-0.15213,0.608521,6.64671e+06
-0.0088501,-0.387085,0.938599,-0,-0.15213,0.608521,6.64671e+06
-0.0100708,-0.395874,0.92865,0.15213,0.30426,-0.15213,6.64671e+06
-0.00976562,-0.398499,0.938354,0.15213,0.15213,-0,6.64671e+06
-0.00976562,-0.398499,0.938354,0.15213,0.15213,-0,6.64671e+06
-0.00793457,-0.399902,0.93396,0.30426,-0,-0,6.64671e+06
-0.00701904,-0.39447,0.939209,-0,0.30426,-0.15213,6.64671e+06
-0.00701904,-0.39447,0.939209,-0,0.30426,-0.15213,6.64671e+06
-0.00933838,-0.390015,0.932617,0.30426,0.15213,0.45639,6.64671e+06
-0.00848389,-0.393555,0.93927,0.15213,0.45639,0.15213,6.64671e+06
-0.00848389,-0.393555,0.93927,0.15213,0.45639,0.15213,6.64671e+06
-0.00799561,-0.400879,0.93927,0.30426,-0.15213,-0,6.64671e+06
-0.00921631,-0.403137,0.942078,0.15213,0.30426,-0,6.64671e+06
-0.00921631,-0.403137,0.942078,0.15213,0.30426,-0,6.64671e+06
-0.00683594,-0.393738,0.92981,0.15213,0.30426,-0.15213,6.64671e+06
-0.00720215,-0.389526,0.935425,-0.15213,-0.15213,0.30426,6.64671e+06
-0.00720215,-0.389526,0.935425,-0.15213,-0.15213,0.30426,6.64671e+06
-0.00842285,-0.394409,0.93396,0.15213,0.15213,-0,6.64671e+06
-0.0122681,-0.401733,0.938538,-0,0.30426,-0.15213,6.64671e+06
-0.0122681,-0.401733,0.938538,-0,0.30426,-0.15213,6.64671e+06
-0.00921631,-0.397522,0.931702,0.15213,0.15213,0.15213,6.64671e+06
-0.00848389,-0.392761,0.935425,0.30426,0.15213,0.15213,6.64671e+06
-0.00848389,-0.392761,0.935425,0.30426,0.15213,0.15213,6.64671e+06
-0.00848389,-0.391846,0.937256,-0,-0.15213,0.15213,6.64671e+06
-0.00927734,-0.39679,0.935486,-0,0.30426,0.15213,6.64671e+06
-0.00927734,-0.39679,0.935486,-0,0.30426,0.15213,6.64671e+06
-0.00927734,-0.399597,0.938293,0.15213,0.15213,-0.15213,6.64671e+06
-0.00805664,-0.401306,0.937805,-0,0.15213,-0.15213,6.64671e+06
-0.00805664,-0.401306,0.937805,-0,0.15213,-0.15213,6.64671e+06
-0.00378418,-0.396118,0.930481,-0,-0.30426,0.15213,6.64671e+06
-0.00762939,-0.390259,0.930542,0.15213,-0,0.45639,6.64671e+06
-0.00762939,-0.390259,0.930542,0.15213,-0,0.45639,6.64671e+06
-0.00653076,-0.393921,0.933533,0.608521,0.15213,-0.15213,6.64671e+06
-0.0114136,-0.4021,0.932434,0.30426,0.608521,-0.15213,6.64671e+06
-0.0114136,-0.4021,0.932434,0.30426,0.608521,-0.15213,6.64671e+06
-0.00836182,-0.402039,0.93573,-0,-0,-0,6.64671e+06
-0.00372314,-0.390747,0.938721,0.15213,0.608521,-0.15213,6.64671e+06
-0.00372314,-0.390747,0.938721,0.15213,0.608521,-0.15213,6.64671e+06
-0.00579834,-0.389893,0.935059,-0,-0,0.15213,6.64671e+06
-0.00854492,-0.391602,0.933655,-0.15213,-0.15213,-0,6.64671e+06
-0.00854492,-0.391602,0.933655,-0.15213,-0.15213,-0,6.64671e+06
-0.0119629,-0.398987,0.93927,0.608521,0.45639,-0.15213,6.64671e+06
-0.00671387,-0.402649,0.93927,0.30426,0.30426,0.15213,6.64671e+06
-0.00671387,-0.402649,0.93927,0.30426,0.30426,0.15213,6.64671e+06
-0.00268555,-0.395752,0.936646,0.30426,0.15213,-0,6.64671e+06
-0.0122681,-0.383972,0.9375,0.15213,0.15213,0.15213,6.64671e+06
-0.0122681,-0.383972,0.9375,0.15213,0.15213,0.15213,6.64671e+06
-0.00115967,-0.389587,0.933838,-0,-0,0.15213,6.64671e+06
-0.0145874,-0.403381,0.933228,0.45639,0.608521,-0.30426,6.64671e+06
-0.0145874,-0.403381,0.933228,0.45639,0.608521,-0.30426,6.64671e+06
-0.00482178,-0.39978,0.943237,0.30426,0.15213,-0,6.64671e+06
-0.0135498,-0.396179,0.935486,0.15213,0.15213,0.30426,6.64671e+06
-0.0135498,-0.396179,0.935486,0.15213,0.15213,0.30426,6.64671e+06
-0.00390625,-0.39093,0.919739,0.15213,0.912781,-0,6.64671e+06
-0.00738525,-0.386353,0.934692,-0,-0.15213,0.15213,6.64671e+06
-0.00738525,-0.386353,0.934692,-0,-0.15213,0.15213,6.64671e+06
-0.00823975,-0.395569,0.935791,-0,-0,-0.15213,6.64671e+06
-0.00964355,-0.408447,0.940308,0.45639,0.30426,-0.30426,6.64671e+06
-0.00964355,-0.408447,0.940308,0.45639,0.30426,-0.30426,6.64671e+06
-0.0113525,-0.398132,0.929138,0.15213,0.30426,0.15213,6.64671e+06
-0.00823975,-0.385803,0.930969,-0,0.30426,0.15213,6.64671e+06
-0.00823975,-0.385803,0.930969,-0,0.30426,0.15213,6.64671e+06
-0.00628662,-0.394226,0.937256,-0,-0,0.15213,6.64671e+06
-0.00927734,-0.399597,0.933533,0.15213,0.30426,-0,6.64671e+06
-0.00927734,-0.399597,0.933533,0.15213,0.30426,-0,6.64671e+06
-0.0110474,-0.399597,0.9375,-0,0.30426,0.15213,6.64671e+06
-0.00769043,-0.395325,0.931396,0.30426,-0.15213,-0.15213,6.64671e+06
-0.00769043,-0.395325,0.931396,0.30426,-0.15213,-0.15213,6.64671e+06
-0.00506592,-0.38855,0.933228,0.30426,0.15213,0.30426,6.64671e+06
-0.00634766,-0.393311,0.940796,0.30426,0.45639,-0.15213,6.64671e+06
-0.00634766,-0.393311,0.940796,0.30426,0.45639,-0.15213,6.64671e+06
-0.00994873,-0.400818,0.932861,0.30426,0.15213,-0,6.64671e+06
-0.00823975,-0.399536,0.936279,-0,-0.15213,-0,6.64671e+06
-0.00823975,-0.399536,0.936279,-0,-0.15213,-0,6.64671e+06
-0.00836182,-0.398315,0.939758,0.15213,0.15213,0.30426,6.64671e+06
-0.00817871,-0.390625,0.935303,-0,-0,0.45639,6.64671e+06
-0.00817871,-0.390625,0.935303,-0,-0,0.45639,6.64671e+06
-0.0055542,-0.390076,0.932373,0.15213,0.15213,0.15213,6.64671e+06
-0.0112305,-0.397827,0.929565,0.30426,0.15213,-0.15213,6.64671e+06
-0.0112305,-0.397827,0.929565,0.30426,0.15213,-0.15213,6.64671e+06
-0.00836182,-0.40094,0.936218,0.608521,0.608521,-0,6.64671e+06
-0.00921631,-0.395752,0.933777,0.45639,0.30426,0.30426,6.64671e+06
-0.00921631,-0.395752,0.933777,0.45639,0.30426,0.30426,6.64671e+06
-0.00561523,-0.391174,0.937134,0.15213,0.15213,0.15213,6.64671e+06
-0.00866699,-0.388367,0.934387,-0,-0,-0,6.64671e+06
-0.00866699,-0.388367,0.934387,-0,-0,-0,6.64671e+06
-0.0111694,-0.400452,0.930969,0.30426,0.15213,-0,6.64671e+06
-0.0109253,-0.403992,0.930603,0.15213,0.30426,-0,6.64671e+06
-0.0109253,-0.403992,0.930603,0.15213,0.30426,-0,6.64671e+06
-0.00915527,-0.392273,0.935669,0.15213,0.30426,0.30426,6.64671e+06
-0.00726318,-0.389038,0.930481,0.45639,0.30426,-0,6.64671e+06
-0.00726318,-0.389038,0.930481,0.45639,0.30426,-0,6.64671e+06
-0.00842285,-0.391846,0.932068,0.15213,0.30426,-0,6.64671e+06
-0.010498,-0.39563,0.933289,-0,-0,0.15213,6.64671e+06
-0.010498,-0.39563,0.933289,-0,-0,0.15213,6.64671e+06
-0.00445557,-0.393433,0.938171,0.15213,0.15213,-0.15213,6.64671e+06
-0.0332031,-0.421814,0.960327,-0,-0.608521,-0.760651,6.64671e+06
-0.0332031,-0.421814,0.960327,-0,-0.608521,-0.760651,6.64671e+06
-0.046814,-0.497498,0.950562,0.45639,0.608521,-1.97769,6.64671e+06
-0.0195312,-0.42804,0.927734,-0,0.608521,-1.06491,6.64671e+06
-0.0195312,-0.42804,0.927734,-0,0.608521,-1.06491,6.64671e+06
0.0142212,-0.361938,0.93988,-0.45639,-0.760651,0.45639,6.64671e+06
-0.00756836,-0.408264,0.934509,-0.15213,-0,-0.45639,6.64671e+06
-0.00756836,-0.408264,0.934509,-0.15213,-0,-0.45639,6.64671e+06
-0.0219116,-0.420532,0.945251,-0,-0,-0.45639,6.64671e+06
0.00872803,-0.359009,0.938843,-0.608521,-0.912781,0.30426,6.64671e+06
0.00872803,-0.359009,0.938843,-0.608521,-0.912781,0.30426,6.64671e+06
-0.0158691,-0.403198,0.937866,0.15213,-0.15213,-0.45639,6.64671e+06
-0.0135498,-0.437439,0.947998,0.15213,-0,-0.45639,6.64671e+06
-0.0135498,-0.437439,0.947998,0.15213,-0,-0.45639,6.64671e+06
-0.0108032,-0.403137,0.919495,0.15213,0.760651,0.15213,6.64671e+06
0.00158691,-0.366821,0.918884,0.30426,0.15213,0.45639,6.64671e+06
0.00158691,-0.366821,0.918884,0.30426,0.15213,0.45639,6.64671e+06
-0.0154419,-0.392334,0.94043,0.912781,-0.15213,0.30426,6.64671e+06
-0.0112915,-0.401001,0.937134,0.45639,0.608521,-0.30426,6.64671e+06
-0.0112915,-0.401001,0.937134,0.45639,0.608521,-0.30426,6.64671e+06
-0.010498,-0.401367,0.936462,0.30426,0.45639,-0,6.64671e+06
-0.00494385,-0.394592,0.941406,-0,-0.30426,-0,6.64671e+06
-0.0032959,-0.3974,0.944519,-0.15213,-0,0.45639,6.64671e+06
-0.0032959,-0.3974,0.944519,-0.15213,-0,0.45639,6.64671e+06
-0.00708008,-0.386963,0.93042,-0.30426,0.30426,0.608521,6.64671e+06
-0.00708008,-0.386963,0.93042,-0.30426,0.30426,0.608521,6.64671e+06
-0.00384521,-0.381958,0.919922,-0.30426,-0.30426,0.15213,6.64671e+06
-0.010376,-0.394592,0.940674,0.15213,0.15213,-0,6.64671e+06
-0.010376,-0.394592,0.940674,0.15213,0.15213,-0,6.64671e+06
-0.00585938,-0.401428,0.933105,0.30426,0.45639,0.15213,6.64671e+06
-0.00299072,-0.381409,0.935486,0.15213,0.45639,0.30426,6.64671e+06
-0.00299072,-0.381409,0.935486,0.15213,0.45639,0.30426,6.64671e+06
-0.00592041,-0.379639,0.935547,0.15213,-0,0.45639,6.64671e+06
-0.0078125,-0.390808,0.944458,0.15213,0.30426,-0.15213,6.64671e+06
-0.0078125,-0.390808,0.944458,0.15213,0.30426,-0.15213,6.64671e+06
-0.00634766,-0.38916,0.935242,-0.30426,-0,-0,6.64671e+06
-0.00402832,-0.387573,0.923645,-0.30426,-0,0.15213,6.64671e+06
-0.00402832,-0.387573,0.923645,-0.30426,-0,0.15213,6.64671e+06
-0.00439453,-0.39093,0.933411,0.15213,0.45639,0.15213,6.64671e+06
-0.00866699,-0.392273,0.934448,0.15213,-0,0.608521,6.64671e+06
-0.00866699,-0.392273,0.934448,0.15213,-0,0.608521,6.64671e+06
-0.00567627,-0.386658,0.938232,-0,0.45639,0.30426,6.64671e+06
-0.00842285,-0.393799,0.931152,0.30426,0.15213,0.15213,6.64671e+06
-0.00842285,-0.393799,0.931152,0.30426,0.15213,0.15213,6.64671e+06
-0.00921631,-0.400879,0.937317,0.30426,0.45639,-0.15213,6.64671e+06
-0.00506592,-0.394592,0.938232,0.30426,0.15213,-0,6.64671e+06
-0.00506592,-0.394592,0.938232,0.30426,0.15213,-0,6.64671e+06
-0.00921631,-0.391357,0.930542,0.15213,0.15213,0.15213,6.64671e+06
-0.0078125,-0.391235,0.934631,-0.45639,-0.30426,0.30426,6.64671e+06
-0.0078125,-0.391235,0.934631,-0.45639,-0.30426,0.30426,6.64671e+06
-0.010376,-0.403625,0.93988,-0,-0.15213,0.30426,6.64671e+06
-0.0112915,-0.408081,0.937439,-0,0.30426,-0.30426,6.64671e+06
-0.0112915,-0.408081,0.937439,-0,0.30426,-0.30426,6.64671e+06
-0.00793457,-0.397095,0.925903,0.30426,0.15213,0.15213,6.64671e+06
-0.00280762,-0.379211,0.925415,0.15213,-0.30426,0.30426,6.64671e+06
-0.00280762,-0.379211,0.925415,0.15213,-0.30426,0.30426,6.64671e+06
-0.00848389,-0.382202,0.935303,-0,-0.15213,0.45639,6.64671e+06
-0.00775146,-0.40033,0.933777,0.30426,0.30426,-0,6.64671e+06
-0.00775146,-0.40033,0.933777,0.30426,0.30426,-0,6.64671e+06
-0.0106201,-0.397339,0.934631,-0,-0.30426,0.15213,6.64671e+06
-0.00384521,-0.38501,0.932922,-0,-0.30426,0.30426,6.64671e+06
-0.00384521,-0.38501,0.932922,-0,-0.30426,0.30426,6.64671e+06
-0.0098877,-0.399414,0.934021,0.30426,0.15213,0.45639,6.64671e+06
-0.00616455,-0.39624,0.927185,0.30426,0.30426,0.45639,6.64671e+06
-0.00616455,-0.39624,0.927185,0.30426,0.30426,0.45639,6.64671e+06
-0.00921631,-0.384338,0.940613,0.30426,0.15213,0.15213,6.64671e+06
-0.00317383,-0.398132,0.938293,0.15213,0.30426,-0.15213,6.64671e+06
-0.00317383,-0.398132,0.938293,0.15213,0.30426,-0.15213,6.64671e+06
-0.00793457,-0.398499,0.935608,0.45639,0.15213,-0,6.64671e+06
-0.00799561,-0.390259,0.940857,0.15213,-0,-0,6.64671e+06
-0.00799561,-0.390259,0.940857,0.15213,-0,-0,6.64671e+06
-0.00854492,-0.398499,0.936462,-0,-0.15213,-0,6.64671e+06
-0.00793457,-0.398071,0.93512,0.15213,0.30426,0.30426,6.64671e+06
-0.00793457,-0.398071,0.93512,0.15213,0.30426,0.30426,6.64671e+06
-0.00616455,-0.392883,0.93573,-0.30426,-0,0.15213,6.64671e+06
-0.00933838,-0.395203,0.936096,-0,-0.15213,0.15213,6.64671e+06
-0.00933838,-0.395203,0.936096,-0,-0.15213,0.15213,6.64671e+06
-0.0111694,-0.396301,0.938477,-0,-0,0.15213,6.64671e+06
-0.00970459,-0.387817,0.922913,0.30426,0.608521,0.45639,6.64671e+06
-0.00970459,-0.387817,0.922913,0.30426,0.608521,0.45639,6.64671e+06
0.0065918,-0.371826,0.935974,0.30426,0.45639,0.15213,6.64671e+06
-0.00628662,-0.386292,0.941772,0.30426,0.45639,0.30426,6.64671e+06
-0.00628662,-0.386292,0.941772,0.30426,0.45639,0.30426,6.64671e+06
-0.00750732,-0.403809,0.934082,-0,-0,-0,6.64671e+06
0.000549316,-0.387329,0.929626,0.15213,0.45639,0.15213,6.64671e+06
0.000549316,-0.387329,0.929626,0.15213,0.45639,0.15213,6.64671e+06
-0.0118408,-0.388733,0.933289,-0.45639,-0.608521,0.30426,6.64671e+06
-0.0022583,-0.406433,0.928284,0.30426,0.760651,-0.30426,6.64671e+06
-0.0022583,-0.406433,0.928284,0.30426,0.760651,-0.30426,6.64671e+06
-0.0150146,-0.39679,0.925171,-0,-0,0.30426,6.64671e+06
-0.00372314,-0.391479,0.932922,0.45639,-0,0.30426,6.64671e+06
-0.00372314,-0.391479,0.932922,0.45639,-0,0.30426,6.64671e+06
-0.00738525,-0.393127,0.9375,0.30426,0.45639,-0,6.64671e+06
-0.00823975,-0.402344,0.935425,0.15213,-0,-0.15213,6.64671e+06
-0.00823975,-0.402344,0.935425,0.15213,-0,-0.15213,6.64671e+06
-0.00860596,-0.403076,0.938293,-0,-0,-0.15213,6.64671e+06
-0.0130005,-0.403992,0.938843,0.15213,-0.15213,-0,6.64671e+06
-0.0130005,-0.403992,0.938843,0.15213,-0.15213,-0,6.64671e+06
-0.00469971,-0.40271,0.934753,-0,-0,0.15213,6.64671e+06
-0.0114746,-0.38562,0.928894,-0,0.30426,-0,6.64671e+06
-0.0114746,-0.38562,0.928894,-0,0.30426,-0,6.64671e+06
-0.00646973,-0.388733,0.927917,0.30426,0.45639,0.15213,6.64671e+06
-0.0125122,-0.399109,0.935852,0.45639,-0,-0.30426,6.64671e+06
-0.0125122,-0.399109,0.935852,0.45639,-0,-0.30426,6.64671e+06
-0.0113525,-0.404541,0.934998,0.608521,0.30426,-0.30426,6.64671e+06
-0.00665283,-0.402832,0.941589,-0,-0.15213,-0,6.64671e+06
-0.00665283,-0.402832,0.941589,-0,-0.15213,-0,6.64671e+06
-0.0055542,-0.395813,0.933228,-0.15213,0.15213,0.45639,6.64671e+06
-0.00524902,-0.391846,0.935364,-0.30426,0.30426,-0,6.64671e+06
-0.00524902,-0.391846,0.935364,-0.30426,0.30426,-0,6.64671e+06
-0.00799561,-0.392151,0.92749,-0.15213,-0,-0.15213,6.64671e+06
-0.0057373,-0.396667,0.929932,0.30426,0.30426,-0,6.64671e+06
-0.0057373,-0.396667,0.929932,0.30426,0.30426,-0,6.64671e+06
-0.00933838,-0.400146,0.941101,0.760651,0.30426,0.15213,6.64671e+06
-0.00921631,-0.395142,0.938782,0.608521,0.30426,-0,6.64671e+06
-0.00921631,-0.395142,0.938782,0.608521,0.30426,-0,6.64671e+06
-0.00952148,-0.390564,0.928223,0.15213,0.30426,0.15213,6.64671e+06
-0.0100098,-0.39502,0.933655,0.45639,-0.15213,-0,6.64671e+06
-0.0100098,-0.39502,0.933655,0.45639,-0.15213,-0,6.64671e+06
-0.00872803,-0.404236,0.935425,-0,-0.15213,-0,6.64671e+06
-0.00909424,-0.398987,0.948669,-0.15213,0.15213,0.15213,6.64671e+06
-0.00909424,-0.398987,0.948669,-0.15213,0.15213,0.15213,6.64671e+06
-0.00946045,-0.390442,0.927917,-0.45639,-0,0.45639,6.64671e+06
-0.00689697,-0.382935,0.924744,-0.15213,-0,0.15213,6.64671e+06
-0.00891113,-0.394043,0.931274,0.608521,0.15213,-0.15213,6.64671e+06
-0.00891113,-0.394043,0.931274,0.608521,0.15213,-0.15213,6.64671e+06
-0.00823975,-0.404541,0.942932,0.912781,0.15213,0.30426,6.64671e+06
-0.00823975,-0.404541,0.942932,0.912781,0.15213,0.30426,6.64671e+06
-0.0078125,-0.403748,0.936829,0.30426,0.15213,-0,6.64671e+06
-0.0108643,-0.396729,0.938293,0.15213,0.608521,0.15213,6.64671e+06
-0.0108643,-0.396729,0.938293,0.15213,0.608521,0.15213,6.64671e+06
-0.00598145,-0.389282,0.934265,-0.15213,-0,0.15213,6.64671e+06
-0.00579834,-0.392883,0.931152,-0.30426,-0,0.15213,6.64671e+06
-0.00579834,-0.392883,0.931152,-0.30426,-0,0.15213,6.64671e+06
-0.00823975,-0.394531,0.929565,0.30426,0.15213,0.15213,6.64671e+06
-0.00817871,-0.400757,0.939331,0.15213,0.30426,0.15213,6.64671e+06
-0.00921631,-0.392883,0.93042,-0,-0,-0,6.64671e+06
-0.00921631,-0.392883,0.93042,-0,-0,-0,6.64671e+06
-0.010498,-0.385681,0.932312,0.15213,0.45639,-0,6.64671e+06
-0.010498,-0.385681,0.932312,0.15213,0.45639,-0,6.64671e+06
-0.00262451,-0.392822,0.935791,0.608521,0.30426,0.15213,6.64671e+06
-0.00744629,-0.403625,0.943787,0.45639,0.30426,-0,6.64671e+06
-0.00744629,-0.403625,0.943787,0.45639,0.30426,-0,6.64671e+06
-0.000732422,-0.388306,0.934021,-0.30426,0.608521,-0,6.64671e+06
-0.000488281,-0.373779,0.939087,-0.45639,-0.15213,0.15213,6.64671e+06
-0.000488281,-0.373779,0.939087,-0.45639,-0.15213,0.15213,6.64671e+06
-0.00561523,-0.386963,0.918457,0.15213,0.912781,0.15213,6.64671e+06
-0.00952148,-0.399536,0.936218,0.15213,-0.30426,0.15213,6.64671e+06
-0.00952148,-0.399536,0.936218,0.15213,-0.30426,0.15213,6.64671e+06
-0.0101929,-0.397705,0.941711,0.30426,0.45639,-0.15213,6.64671e+06
-0.00506592,-0.398499,0.924194,-0,-0,0.15213,6.64671e+06
-0.00506592,-0.398499,0.924194,-0,-0,0.15213,6.64671e+06
-0.00769043,-0.397766,0.933044,0.30426,0.15213,0.15213,6.64671e+06
-0.00836182,-0.387634,0.931946,-0.15213,-0.15213,0.30426,6.64671e+06
-0.00836182,-0.387634,0.931946,-0.15213,-0.15213,0.30426,6.64671e+06
-0.00512695,-0.390381,0.929932,0.30426,0.45639,-0.15213,6.64671e+06
-0.00952148,-0.401062,0.927429,0.45639,0.45639,-0,6.64671e+06
-0.00952148,-0.401062,0.927429,0.45639,0.45639,-0,6.64671e+06
-0.00872803,-0.400269,0.934875,-0,-0,0.15213,6.64671e+06
-0.00646973,-0.391113,0.93811,0.15213,0.30426,0.30426,6.64671e+06
-0.00646973,-0.391113,0.93811,0.15213,0.30426,0.30426,6.64671e+06
-0.00933838,-0.390259,0.929749,-0,0.15213,0.45639,6.64671e+06
-0.00646973,-0.393066,0.929688,0.30426,0.30426,-0.15213,6.64671e+06
-0.00646973,-0.393066,0.929688,0.30426,0.30426,-0.15213,6.64671e+06
-0.0098877,-0.401367,0.936584,0.30426,-0,0.30426,6.64671e+06
-0.00360107,-0.394165,0.938904,0.15213,0.30426,-0.30426,6.64671e+06
-0.00360107,-0.394165,0.938904,0.15213,0.30426,-0.30426,6.64671e+06
-0.0142212,-0.390686,0.93512,-0,-0.15213,0.45639,6.64671e+06
-0.0078125,-0.396545,0.937378,-0,-0.15213,-0,6.64671e+06
-0.00836182,-0.397217,0.938782,0.15213,0.15213,0.15213,6.64671e+06
-0.00836182,-0.397217,0.938782,0.15213,0.15213,0.15213,6.64671e+06
-0.00817871,-0.398315,0.931458,-0.45639,-0,-0,6.64671e+06
-0.00817871,-0.398315,0.931458,-0.45639,-0,-0,6.64671e+06
-0.010437,-0.398743,0.931335,0.15213,-0,0.30426,6.64671e+06
-0.0111694,-0.393433,0.945129,-0.30426,-0.30426,0.30426,6.64671e+06
-0.0111694,-0.393433,0.945129,-0.30426,-0.30426,0.30426,6.64671e+06
-0.00421143,-0.392944,0.932983,0.15213,0.30426,0.15213,6.64671e+06
-0.0136108,-0.392273,0.924194,0.45639,-0,0.15213,6.64671e+06
-0.0136108,-0.392273,0.924194,0.45639,-0,0.15213,6.64671e+06
-0.00726318,-0.402405,0.937378,0.608521,0.30426,-0,6.64671e+06
-0.010498,-0.407776,0.943359,0.30426,0.15213,-0,6.64671e+06
-0.010498,-0.407776,0.943359,0.30426,0.15213,-0,6.64671e+06
-0.00939941,-0.39502,0.936401,-0.45639,-0,0.15213,6.64671e+06
-0.00915527,-0.381348,0.923767,-0.15213,0.30426,-0,6.64671e+06
-0.00915527,-0.381348,0.923767,-0.15213,0.30426,-0,6.64671e+06
-0.00830078,-0.389526,0.932373,-0,-0.45639,-0,6.64671e+06
-0.00524902,-0.405212,0.938354,0.15213,-0.15213,-0,6.64671e+06
-0.00524902,-0.405212,0.938354,0.15213,-0.15213,-0,6.64671e+06
-0.00744629,-0.398621,0.935791,-0,0.45639,0.15213,6.64671e+06
-0.00878906,-0.390259,0.931763,0.45639,-0,0.30426,6.64671e+06
-0.00878906,-0.390259,0.931763,0.45639,-0,0.30426,6.64671e+06
-0.0133057,-0.397644,0.934875,0.15213,-0,0.15213,6.64671e+06
-0.00720215,-0.400879,0.940002,0.608521,0.45639,-0.30426,6.64671e+06
-0.00720215,-0.400879,0.940002,0.608521,0.45639,-0.30426,6.64671e+06
-0.00854492,-0.39856,0.940186,-0.45639,-0,-0,6.64671e+06
-0.00921631,-0.397766,0.940491,-0.30426,0.15213,-0.30426,6.64671e+06
-0.00921631,-0.397766,0.940491,-0.30426,0.15213,-0.30426,6.64671e+06
-0.012085,-0.394958,0.92627,-0.608521,-0,-0,6.64671e+06
-0.00616455,-0.390381,0.935486,-0.45639,-0.15213,0.30426,6.64671e+06
-0.00616455,-0.390381,0.935486,-0.45639,-0.15213,0.30426,6.64671e+06
-0.00665283,-0.389587,0.930176,0.30426,0.15213,-0.15213,6.64671e+06
-0.00976562,-0.401367,0.940369,0.45639,0.45639,-0.15213,6.64671e+06
-0.00976562,-0.401367,0.940369,0.45639,0.45639,-0.15213,6.64671e+06
-0.0098877,-0.402344,0.939819,0.30426,0.30426,-0.15213,6.64671e+06
-0.00964355,-0.391174,0.931946,0.15213,0.45639,0.45639,6.64671e+06
-0.00964355,-0.391174,0.931946,0.15213,0.45639,0.45639,6.64671e+06
-0.00701904,-0.386292,0.941772,-0.45639,-0.30426,0.15213,6.64671e+06
-0.0145264,-0.398621,0.936829,-0.15213,-0,0.15213,6.64671e+06
-0.0145264,-0.398621,0.936829,-0.15213,-0,0.15213,6.64671e+06
-0.00848389,-0.400513,0.941711,-0.45639,-0.15213,-0,6.64671e+06
-0.00939941,-0.394897,0.921448,-0,0.30426,0.15213,6.64671e+06
-0.00939941,-0.394897,0.921448,-0,0.30426,0.15213,6.64671e+06
-0.010376,-0.392639,0.92572,0.912781,0.15213,0.15213,6.64671e+06
-0.00616455,-0.394165,0.937683,0.608521,0.15213,0.30426,6.64671e+06
-0.00616455,-0.394165,0.937683,0.608521,0.15213,0.30426,6.64671e+06
-0.0117798,-0.396362,0.943909,0.15213,0.15213,-0,6.64671e+06
-0.00622559,-0.396667,0.936279,0.45639,0.45639,0.15213,6.64671e+06
-0.00622559,-0.396667,0.936279,0.45639,0.45639,0.15213,6.64671e+06
-0.00836182,-0.396484,0.933716,-0.30426,-0.15213,-0,6.64671e+06
-0.0101929,-0.397278,0.939636,-0.15213,-0.30426,0.15213,6.64671e+06
-0.0101929,-0.397278,0.939636,-0.15213,-0.30426,0.15213,6.64671e+06
-0.00689697,-0.390686,0.934692,-0.30426,0.30426,-0.15213,6.64671e+06
-0.00836182,-0.387512,0.925476,0.30426,0.15213,-0,6.64671e+06
-0.00836182,-0.387512,0.925476,0.30426,0.15213,-0,6.64671e+06
-0.00549316,-0.397583,0.933777,0.45639,0.30426,-0,6.64671e+06
-0.0106201,-0.40155,0.943115,0.30426,0.15213,0.15213,6.64671e+06
-0.0106201,-0.40155,0.943115,0.30426,0.15213,0.15213,6.64671e+06
-0.00616455,-0.395264,0.935852,-0,-0.15213,0.30426,6.64671e+06
-0.00933838,-0.390381,0.931824,-0.15213,-0,0.15213,6.64671e+06
-0.00933838,-0.390381,0.931824,-0.15213,-0,0.15213,6.64671e+06
-0.00823975,-0.39624,0.928955,0.45639,0.30426,-0.15213,6.64671e+06
-0.0114746,-0.405945,0.938599,-0,-0.15213,0.30426,6.64671e+06
-0.0114746,-0.405945,0.938599,-0,-0.15213,0.30426,6.64671e+06
-0.00817871,-0.401062,0.947998,-0.15213,-0.15213,0.15213,6.64671e+06
-0.0106812,-0.391968,0.927368,0.15213,0.30426,0.30426,6.64671e+06
-0.0106812,-0.391968,0.927368,0.15213,0.30426,0.30426,6.64671e+06
-0.00823975,-0.385742,0.931274,0.15213,0.15213,0.30426,6.64671e+06
-0.00537109,-0.393921,0.929626,0.45639,0.30426,-0.15213,6.64671e+06
-0.00537109,-0.393921,0.929626,0.45639,0.30426,-0.15213,6.64671e+06
-0.00805664,-0.399536,0.932007,0.45639,0.30426,-0.15213,6.64671e+06
-0.00665283,-0.401978,0.938538,0.45639,-0,-0,6.64671e+06
-0.00665283,-0.401978,0.938538,0.45639,-0,-0,6.64671e+06
-0.0109253,-0.399109,0.937073,-0,-0,-0,6.64671e+06
-0.00439453,-0.396301,0.937927,-0.30426,0.15213,-0.15213,6.64671e+06
-0.00439453,-0.396301,0.937927,-0.30426,0.15213,-0.15213,6.64671e+06
-0.00982666,-0.39502,0.927002,-0,0.30426,-0.30426,6.64671e+06
-0.00756836,-0.397888,0.932495,0.30426,-0,-0,6.64671e+06
-0.00756836,-0.397888,0.932495,0.30426,-0,-0,6.64671e+06
-0.00665283,-0.405212,0.941711,0.30426,0.15213,-0,6.64671e+06
-0.00817871,-0.395203,0.935425,0.15213,0.30426,-0,6.64671e+06
-0.00817871,-0.395203,0.935425,0.15213,0.30426,-0,6.64671e+06
-0.00585938,-0.389587,0.932495,-0.15213,-0,0.30426,6.64671e+06
-0.00579834,-0.397156,0.938416,-0,-0,-0,6.64671e+06
-0.00579834,-0.397156,0.938416,-0,-0,-0,6.64671e+06
-0.00744629,-0.40625,0.940491,0.15213,-0.15213,0.15213,6.64671e+06
-0.012207,-0.396545,0.938232,-0.30426,-0,-0,6.64671e+06
-0.00836182,-0.391724,0.935974,-0,-0.760651,0.30426,6.64671e+06
-0.00836182,-0.391724,0.935974,-0,-0.760651,0.30426,6.64671e+06
0.00134277,-0.393921,0.946045,-0.30426,-0,0.15213,6.64671e+06
0.00134277,-0.393921,0.946045,-0.30426,-0,0.15213,6.64671e+06
-0.0144043,-0.400208,0.92804,-0,0.30426,0.15213,6.64671e+06
-0.0103149,-0.396179,0.92804,-0.15213,-0.15213,-0.15213,6.64671e+06
-0.0103149,-0.396179,0.92804,-0.15213,-0.15213,-0.15213,6.64671e+06
-0.0152588,-0.398132,0.934998,-0,-0.30426,-0,6.64671e+06
-0.00604248,-0.400757,0.938477,0.15213,-0.15213,-0,6.64671e+06
-0.00604248,-0.400757,0.938477,0.15213,-0.15213,-0,6.64671e+06
-0.00982666,-0.395142,0.9328,0.30426,0.15213,0.15213,6.64671e+06
-0.0119019,-0.389832,0.933167,-0.15213,-0.45639,0.15213,6.64671e+06
-0.00958252,-0.396973,0.939819,0.15213,0.15213,0.15213,6.64671e+06
-0.00958252,-0.396973,0.939819,0.15213,0.15213,0.15213,6.64671e+06
-0.0114746,-0.403015,0.933899,0.15213,0.45639,-0.15213,6.64671e+06
-0.0114746,-0.403015,0.933899,0.15213,0.45639,-0.15213,6.64671e+06
-0.0109863,-0.397095,0.93573,-0.15213,-0,-0,6.64671e+06
-0.00689697,-0.392944,0.935913,-0.15213,-0.30426,0.45639,6.64671e+06
-0.00689697,-0.392944,0.935913,-0.15213,-0.30426,0.45639,6.64671e+06
-0.00512695,-0.394653,0.93811,0.15213,0.15213,-0,6.64671e+06
-0.0117188,-0.398376,0.931091,-0,-0,-0.15213,6.64671e+06
-0.0117188,-0.398376,0.931091,-0,-0,-0.15213,6.64671e+06
-0.0116577,-0.396118,0.928406,0.45639,0.30426,0.15213,6.64671e+06
-0.00372314,-0.395142,0.94165,0.45639,-0,-0,6.64671e+06
-0.00372314,-0.395142,0.94165,0.45639,-0,-0,6.64671e+06
-0.0134277,-0.394958,0.941162,-0,-0.15213,-0,6.64671e+06
-0.00640869,-0.397705,0.938782,-0,0.30426,-0,6.64671e+06
-0.00640869,-0.397705,0.938782,-0,0.30426,-0,6.64671e+06
-0.00616455,-0.397949,0.932129,-0,0.15213,-0.15213,6.64671e+06
-0.00750732,-0.39563,0.928589,0.15213,0.15213,0.15213,6.64671e+06
-0.00750732,-0.39563,0.928589,0.15213,0.15213,0.15213,6.64671e+06
-0.00817871,-0.393921,0.937195,-0,-0.30426,0.15213,6.64671e+06
-0.0090332,-0.390869,0.941467,0.30426,0.30426,0.15213,6.64671e+06
-0.0090332,-0.390869,0.941467,0.30426,0.30426,0.15213,6.64671e+06
-0.00604248,-0.39093,0.928528,0.15213,0.15213,-0,6.64671e+06
-0.0113525,-0.397949,0.931152,0.15213,-0,0.15213,6.64671e+06
-0.010498,-0.403503,0.934814,0.608521,0.30426,0.15213,6.64671e+06
-0.010498,-0.403503,0.934814,0.608521,0.30426,0.15213,6.64671e+06
-0.00836182,-0.397705,0.939026,0.608521,0.15213,-0,6.64671e+06
-0.00836182,-0.397705,0.939026,0.608521,0.15213,-0,6.64671e+06
-0.0102539,-0.394653,0.936218,-0,0.15213,-0.15213,6.64671e+06
-0.00793457,-0.392273,0.937927,-0.45639,-0.15213,0.15213,6.64671e+06
-0.00793457,-0.392273,0.937927,-0.45639,-0.15213,0.15213,6.64671e+06
-0.00939941,-0.390076,0.934021,-0.45639,-0.15213,-0,6.64671e+06
-0.00799561,-0.396362,0.927063,0.45639,0.15213,0.30426,6.64671e+06
-0.00799561,-0.396362,0.927063,0.45639,0.15213,0.30426,6.64671e+06
-0.00384521,-0.398804,0.93042,0.760651,0.30426,0.30426,6.64671e+06
-0.00830078,-0.392578,0.940735,0.608521,0.30426,0.15213,6.64671e+06
-0.00830078,-0.392578,0.940735,0.608521,0.30426,0.15213,6.64671e+06
-0.0098877,-0.396667,0.941284,0.15213,0.30426,-0.15213,6.64671e+06
-0.0088501,-0.401733,0.939209,-0.45639,-0.15213,-0,6.64671e+06
-0.0088501,-0.401733,0.939209,-0.45639,-0.15213,-0,6.64671e+06
-0.0088501,-0.400879,0.932373,-0,0.15213,-0,6.64671e+06
-0.00708008,-0.3927,0.932861,0.30426,0.15213,0.15213,6.64671e+06
-0.00708008,-0.3927,0.932861,0.30426,0.15213,0.15213,6.64671e+06
-0.00775146,-0.389282,0.936218,0.15213,0.15213,0.30426,6.64671e+06
-0.00933838,-0.398376,0.936157,-0,-0.15213,0.30426,6.64671e+06
-0.0114746,-0.398071,0.934204,0.30426,0.608521,-0.15213,6.64671e+06
-0.0114746,-0.398071,0.934204,0.30426,0.608521,-0.15213,6.64671e+06
-0.00958252,-0.392883,0.935669,-0,-0.15213,-0,6.64671e+06
-0.0057373,-0.394043,0.94104,-0,-0,0.45639,6.64671e+06
-0.0057373,-0.394043,0.94104,-0,-0,0.45639,6.64671e+06
-0.0114746,-0.399963,0.938049,-0,-0,0.15213,6.64671e+06
-0.0114746,-0.399963,0.938049,-0,-0,0.15213,6.64671e+06
-0.00653076,-0.393799,0.938354,-0.15213,0.30426,0.15213,6.64671e+06
-0.00817871,-0.389832,0.931763,-0.30426,0.15213,-0.15213,6.64671e+06
-0.00817871,-0.389832,0.931763,-0.30426,0.15213,-0.15213,6.64671e+06
-0.00640869,-0.397461,0.929688,-0,-0.30426,0.15213,6.64671e+06
-0.00689697,-0.397461,0.93158,0.30426,0.45639,0.30426,6.64671e+06
-0.00982666,-0.39386,0.939697,-0.15213,-0.30426,0.15213,6.64671e+06
-0.00982666,-0.39386,0.939697,-0.15213,-0.30426,0.15213,6.64671e+06
-0.00732422,-0.394409,0.936829,0.30426,0.15213,-0,6.64671e+06
-0.00732422,-0.394409,0.936829,0.30426,0.15213,-0,6.64671e+06
-0.00939941,-0.398621,0.935791,0.15213,0.30426,-0,6.64671e+06
-0.0103149,-0.399658,0.933289,0.15213,0.15213,0.15213,6.64671e+06
-0.0103149,-0.399658,0.933289,0.15213,0.15213,0.15213,6.64671e+06
-0.010498,-0.393127,0.933105,0.15213,0.15213,-0.15213,6.64671e+06
-0.00628662,-0.393127,0.939819,-0,-0,0.15213,6.64671e+06
-0.00628662,-0.393127,0.939819,-0,-0,0.15213,6.64671e+06
-0.00982666,-0.395874,0.931213,-0,-0.15213,-0,6.64671e+06
-0.0107422,-0.396973,0.936401,0.15213,0.15213,-0.15213,6.64671e+06
-0.0107422,-0.396973,0.936401,0.15213,0.15213,-0.15213,6.64671e+06
-0.0055542,-0.400269,0.932312,0.15213,0.15213,-0,6.64671e+06
-0.010498,-0.396118,0.932861,0.15213,0.45639,0.15213,6.64671e+06
-0.010498,-0.396118,0.932861,0.15213,0.45639,0.15213,6.64671e+06
-0.00732422,-0.390076,0.933105,0.15213,0.15213,0.15213,6.64671e+06
-0.00842285,-0.396362,0.935425,0.30426,0.15213,-0,6.64671e+06
-0.00842285,-0.396362,0.935425,0.30426,0.15213,-0,6.64671e+06
-0.00817871,-0.399963,0.937927,0.15213,0.15213,0.15213,6.64671e+06
-0.0114746,-0.39563,0.936157,-0.15213,-0.15213,-0,6.64671e+06
-0.0114746,-0.39563,0.936157,-0.15213,-0.15213,-0,6.64671e+06
-0.00823975,-0.397522,0.935303,0.15213,0.15213,-0,6.64671e+06
-0.00598145,-0.391968,0.941895,0.15213,0.15213,-0,6.64671e+06
-0.00732422,-0.396667,0.93573,-0,-0,0.15213,6.64671e+06
-0.00732422,-0.396667,0.93573,-0,-0,0.15213,6.64671e+06
-0.0106201,-0.389404,0.92926,0.30426,0.608521,0.15213,6.64671e+06
-0.0106201,-0.389404,0.92926,0.30426,0.608521,0.15213,6.64671e+06
-0.0128174,-0.398193,0.93927,0.30426,-0,-0,6.64671e+06
-0.00830078,-0.397278,0.93689,0.15213,0.15213,-0,6.64671e+06
-0.00830078,-0.397278,0.93689,0.15213,0.15213,-0,6.64671e+06
-0.00866699,-0.394531,0.933411,-0,-0,-0.15213,6.64671e+06
-0.00665283,-0.390259,0.929199,-0.15213,-0,0.30426,6.64671e+06
-0.00665283,-0.390259,0.929199,-0.15213,-0,0.30426,6.64671e+06
-0.0100708,-0.396118,0.936951,-0,-0.15213,-0.30426,6.64671e+06
-0.0109253,-0.399658,0.937927,-0,0.15213,-0,6.64671e+06
-0.0109253,-0.399658,0.937927,-0,0.15213,-0,6.64671e+06
-0.0103149,-0.394836,0.933899,0.15213,0.15213,-0,6.64671e+06
-0.00646973,-0.394409,0.935486,0.30426,0.45639,0.15213,6.64671e+06
-0.00646973,-0.394409,0.935486,0.30426,0.45639,0.15213,6.64671e+06
-0.0078125,-0.397095,0.937683,0.760651,0.15213,0.30426,6.64671e+06
-0.00891113,-0.392517,0.930359,0.30426,0.30426,0.30426,6.64671e+06
-0.00891113,-0.392517,0.930359,0.30426,0.30426,0.30426,6.64671e+06
-0.00939941,-0.397095,0.940247,0.30426,-0.15213,0.30426,6.64671e+06
-0.00952148,-0.400574,0.939758,-0,-0,-0,6.64671e+06
-0.00952148,-0.400574,0.939758,-0,-0,-0,6.64671e+06
-0.0119019,-0.392578,0.943604,-0.608521,-0.15213,0.30426,6.64671e+06
-0.00964355,-0.391602,0.928772,-0.30426,-0,-0,6.64671e+06
-0.00964355,-0.391602,0.928772,-0.30426,-0,-0,6.64671e+06
-0.0119019,-0.390503,0.925476,0.15213,0.30426,0.15213,6.64671e+06
-0.00830078,-0.403137,0.935791,0.30426,0.30426,-0.15213,6.64671e+06
-0.00830078,-0.403137,0.935791,0.30426,0.30426,-0.15213,6.64671e+06
-0.00775146,-0.394592,0.934998,0.30426,0.45639,-0.15213,6.64671e+06
-0.0045166,-0.388123,0.926453,0.30426,0.30426,-0,6.64671e+06
-0.0045166,-0.388123,0.926453,0.30426,0.30426,-0,6.64671e+06
-0.00537109,-0.390747,0.932007,0.30426,0.15213,0.15213,6.64671e+06
-0.00946045,-0.398315,0.937683,0.15213,-0,-0,6.64671e+06
-0.0123291,-0.401123,0.939758,-0.45639,-0.15213,-0,6.64671e+06
-0.0123291,-0.401123,0.939758,-0.45639,-0.15213,-0,6.64671e+06
-0.00634766,-0.396057,0.932251,-0.30426,-0.15213,-0,6.64671e+06
-0.00634766,-0.396057,0.932251,-0.30426,-0.15213,-0,6.64671e+06
-0.00738525,-0.390076,0.929749,-0.30426,-0,0.15213,6.64671e+06
-0.00823975,-0.391541,0.928955,-0,0.45639,0.30426,6.64671e+06
-0.00823975,-0.391541,0.928955,-0,0.45639,0.30426,6.64671e+06
-0.0078125,-0.39325,0.928162,0.45639,0.30426,0.15213,6.64671e+06
-0.0119629,-0.399292,0.93634,0.608521,0.15213,-0,6.64671e+06
-0.0119629,-0.399292,0.93634,0.608521,0.15213,-0,6.64671e+06
-0.00494385,-0.396851,0.938354,0.30426,0.15213,0.15213,6.64671e+06
-0.00634766,-0.392822,0.935913,0.15213,0.30426,0.15213,6.64671e+06
-0.00946045,-0.395386,0.938904,-0,-0,0.30426,6.64671e+06
-0.00946045,-0.395386,0.938904,-0,-0,0.30426,6.64671e+06
-0.0088501,-0.395386,0.936157,-0,-0,0.30426,6.64671e+06
-0.0088501,-0.395386,0.936157,-0,-0,0.30426,6.64671e+06
-0.0112915,-0.395752,0.934387,0.15213,0.15213,-0,6.64671e+06
-0.00823975,-0.393616,0.928772,0.15213,0.15213,-0,6.64671e+06
-0.00823975,-0.393616,0.928772,0.15213,0.15213,-0,6.64671e+06
-0.0105591,-0.390564,0.929138,0.15213,-0,0.15213,6.64671e+06
-0.00476074,-0.392883,0.93457,0.760651,0.15213,0.15213,6.64671e+06
-0.00476074,-0.392883,0.93457,0.760651,0.15213,0.15213,6.64671e+06
-0.00799561,-0.398499,0.940613,0.30426,0.15213,-0.15213,6.64671e+06
-0.0101929,-0.401672,0.939758,0.45639,0.30426,-0,6.64671e+06
-0.010498,-0.399353,0.935303,0.15213,0.30426,-0,6.64671e+06
-0.010498,-0.399353,0.935303,0.15213,0.30426,-0,6.64671e+06
-0.00762939,-0.393188,0.934814,-0.15213,0.30426,0.15213,6.64671e+06
-0.00762939,-0.393188,0.934814,-0.15213,0.30426,0.15213,6.64671e+06
-0.00848389,-0.391907,0.933533,-0.45639,-0.30426,0.15213,6.64671e+06
-0.00964355,-0.397949,0.936829,-0.30426,-0,0.15213,6.64671e+06
-0.00964355,-0.397949,0.936829,-0.30426,-0,0.15213,6.64671e+06
-0.00732422,-0.397461,0.935242,0.30426,0.30426,-0,6.64671e+06
-0.00817871,-0.394592,0.927917,0.45639,0.30426,0.30426,6.64671e+06
-0.00817871,-0.394592,0.927917,0.45639,0.30426,0.30426,6.64671e+06
-0.00805664,-0.391968,0.934204,0.30426,-0.15213,0.15213,6.64671e+06
-0.00982666,-0.39563,0.939453,0.30426,0.15213,0.45639,6.64671e+06
-0.0126343,-0.398987,0.938293,0.15213,0.608521,0.30426,6.64671e+06
-0.0126343,-0.398987,0.938293,0.15213,0.608521,0.30426,6.64671e+06
-0.00775146,-0.397949,0.929993,-0,0.45639,-0,6.64671e+06
-0.00775146,-0.397949,0.929993,-0,0.45639,-0,6.64671e+06
-0.0158081,-0.408386,0.931091,-0,-0.15213,-0.15213,6.64671e+06
-0.0126343,-0.403015,0.937195,0.30426,0.608521,-0.30426,6.64671e+06
-0.0126343,-0.403015,0.937195,0.30426,0.608521,-0.30426,6.64671e+06
-0.00427246,-0.389771,0.932312,-0.15213,-0,0.30426,6.64671e+06
-0.0113525,-0.394836,0.939697,0.30426,0.15213,-0.30426,6.64671e+06
-0.00854492,-0.404968,0.931091,0.30426,-0.15213,0.15213,6.64671e+06
-0.00854492,-0.404968,0.931091,0.30426,-0.15213,0.15213,6.64671e+06
-0.00695801,-0.392761,0.937744,0.15213,0.15213,-0,6.64671e+06
-0.00695801,-0.392761,0.937744,0.15213,0.15213,-0,6.64671e+06
-0.00830078,-0.393555,0.936584,0.30426,-0,0.30426,6.64671e+06
-0.00531006,-0.39978,0.937378,0.15213,0.15213,0.15213,6.64671e+06
-0.00531006,-0.39978,0.937378,0.15213,0.15213,0.15213,6.64671e+06
-0.00756836,-0.395081,0.929382,-0,0.15213,-0,6.64671e+06
-0.00756836,-0.392395,0.931885,0.30426,0.30426,-0,6.64671e+06
-0.00756836,-0.392395,0.931885,0.30426,0.30426,-0,6.64671e+06
-0.00549316,-0.39856,0.933167,0.30426,0.45639,0.30426,6.64671e+06
-0.017395,-0.417725,0.957642,-0.15213,-0.608521,-0.15213,6.64671e+06
-0.0162964,-0.408447,0.937012,-0.15213,-0,-0.30426,6.64671e+06
-0.0162964,-0.408447,0.937012,-0.15213,-0,-0.30426,6.64671e+06
-0.00299072,-0.386902,0.924622,-0.15213,-0,0.15213,6.64671e+06
-0.0125732,-0.406799,0.935913,0.45639,0.15213,-0.30426,6.64671e+06
-0.0125732,-0.406799,0.935913,0.45639,0.15213,-0.30426,6.64671e+06
-0.0122681,-0.406067,0.940308,-0,-0.15213,0.30426,6.64671e+06
-0.0122681,-0.406067,0.940308,-0,-0.15213,0.30426,6.64671e+06
0.000305176,-0.384399,0.935669,-0.15213,0.30426,-0.15213,6.64671e+06
-0.012085,-0.391418,0.936157,-0,-0.15213,-0,6.64671e+06
-0.012085,-0.391418,0.936157,-0,-0.15213,-0,6.64671e+06
-0.0117798,-0.409485,0.933716,-0,-0,-0,6.64671e+06
-0.0110474,-0.398071,0.929932,-0,0.15213,-0,6.64671e+06
-0.0110474,-0.398071,0.929932,-0,0.15213,-0,6.64671e+06
-0.00830078,-0.385132,0.930481,-0.15213,-0.15213,-0,6.64671e+06
-0.00762939,-0.39209,0.938843,0.45639,0.15213,-0,6.64671e+06
-0.00762939,-0.39209,0.938843,0.45639,0.15213,-0,6.64671e+06
-0.00695801,-0.399292,0.945984,-0,-0.30426,0.15213,6.64671e+06
-0.00720215,-0.396362,0.93573,-0.30426,-0.15213,-0.15213,6.64671e+06
-0.00720215,-0.396362,0.93573,-0.30426,-0.15213,-0.15213,6.64671e+06
-0.00848389,-0.393066,0.934631,0.15213,-0.30426,0.15213,6.64671e+06
-0.00537109,-0.394958,0.930237,0.45639,0.608521,-0,6.64671e+06
-0.00537109,-0.394958,0.930237,0.45639,0.608521,-0,6.64671e+06
-0.010437,-0.392517,0.940186,0.15213,-0,0.45639,6.64671e+06
-0.0045166,-0.39502,0.939697,0.30426,-0,0.15213,6.64671e+06
-0.0101929,-0.396545,0.938232,-0.15213,-0.30426,0.45639,6.64671e+06
-0.0101929,-0.396545,0.938232,-0.15213,-0.30426,0.45639,6.64671e+06
-0.00836182,-0.397278,0.934448,0.15213,0.15213,0.30426,6.64671e+06
-0.00836182,-0.397278,0.934448,0.15213,0.15213,0.30426,6.64671e+06
-0.00933838,-0.395081,0.933533,0.15213,0.30426,0.15213,6.64671e+06
-0.00439453,-0.390259,0.935913,0.15213,0.15213,-0,6.64671e+06
-0.00439453,-0.390259,0.935913,0.15213,0.15213,-0,6.64671e+06
-0.00836182,-0.39447,0.939575,0.15213,0.15213,0.30426,6.64671e+06
-0.0108032,-0.397522,0.936462,-0.15213,-0,0.15213,6.64671e+06
-0.00817871,-0.391846,0.930969,0.15213,0.30426,0.15213,6.64671e+06
-0.00817871,-0.391846,0.930969,0.15213,0.30426,0.15213,6.64671e+06
-0.00933838,-0.392395,0.929443,0.45639,0.15213,0.30426,6.64671e+06
-0.00909424,-0.39624,0.93811,0.30426,0.15213,0.15213,6.64671e+06
-0.00909424,-0.39624,0.93811,0.30426,0.15213,0.15213,6.64671e+06
-0.00915527,-0.40094,0.94574,0.15213,0.15213,-0.15213,6.64671e+06
-0.00915527,-0.40094,0.94574,0.15213,0.15213,-0.15213,6.64671e+06
-0.00646973,-0.393005,0.933777,-0.45639,0.30426,0.15213,6.64671e+06
-0.00720215,-0.393127,0.922729,0.15213,-0,0.15213,6.64671e+06
-0.00720215,-0.393127,0.922729,0.15213,-0,0.15213,6.64671e+06
-0.00695801,-0.396179,0.930359,0.608521,0.30426,0.15213,6.64671e+06
-0.00787354,-0.395325,0.936707,0.15213,-0,0.15213,6.64671e+06
-0.00970459,-0.393494,0.939148,0.15213,0.30426,-0.15213,6.64671e+06
-0.00970459,-0.393494,0.939148,0.15213,0.30426,-0.15213,6.64671e+06
-0.00891113,-0.393738,0.928223,0.30426,0.45639,0.15213,6.64671e+06
-0.00891113,-0.393738,0.928223,0.30426,0.45639,0.15213,6.64671e+06
-0.0103149,-0.397827,0.934937,0.15213,0.15213,0.30426,6.64671e+06
-0.00793457,-0.395081,0.936401,-0,-0,0.30426,6.64671e+06
-0.00793457,-0.395081,0.936401,-0,-0,0.30426,6.64671e+06
-0.00744629,-0.393494,0.932312,0.15213,0.15213,-0,6.64671e+06
-0.00787354,-0.395325,0.927185,-0,-0,0.30426,6.64671e+06
-0.00787354,-0.395325,0.927185,-0,-0,0.30426,6.64671e+06
-0.0110474,-0.399475,0.935608,-0,0.15213,0.15213,6.64671e+06
-0.0115356,-0.396423,0.935608,0.15213,0.45639,0.15213,6.64671e+06
-0.00866699,-0.392883,0.928955,-0,-0.15213,-0.15213,6.64671e+06
-0.00866699,-0.392883,0.928955,-0,-0.15213,-0.15213,6.64671e+06
-0.0107422,-0.393616,0.937561,0.45639,0.45639,0.30426,6.64671e+06
-0.0107422,-0.393616,0.937561,0.45639,0.45639,0.30426,6.64671e+06
-0.00476074,-0.400757,0.943909,0.15213,0.15213,-0.15213,6.64671e+06
-0.00769043,-0.394714,0.93927,-0.30426,-0,-0,6.64671e+06
-0.00769043,-0.394714,0.93927,-0.30426,-0,-0,6.64671e+06
-0.0113525,-0.396423,0.933594,-0.15213,-0,-0,6.64671e+06
-0.0088501,-0.398132,0.933105,0.15213,0.30426,0.30426,6.64671e+06
-0.0088501,-0.398132,0.933105,0.15213,0.30426,0.30426,6.64671e+06
-0.0090332,-0.393433,0.931641,0.15213,0.15213,0.30426,6.64671e+06
-0.00543213,-0.39325,0.937988,0.15213,0.45639,0.15213,6.64671e+06
-0.00830078,-0.398193,0.935364,0.15213,0.30426,-0,6.64671e+06
-0.00830078,-0.398193,0.935364,0.15213,0.30426,-0,6.64671e+06
-0.00726318,-0.399658,0.934631,-0,0.15213,-0,6.64671e+06
-0.00726318,-0.399658,0.934631,-0,0.15213,-0,6.64671e+06
-0.0122681,-0.391541,0.927063,0.15213,0.45639,0.30426,6.64671e+06
-0.00604248,-0.387878,0.935852,0.15213,0.30426,0.30426,6.64671e+06
-0.00604248,-0.387878,0.935852,0.15213,0.30426,0.30426,6.64671e+06
-0.0088501,-0.397278,0.941406,0.15213,0.15213,0.15213,6.64671e+06
-0.00762939,-0.403015,0.939453,0.15213,0.15213,-0.15213,6.64671e+06
-0.00762939,-0.403015,0.939453,0.15213,0.15213,-0.15213,6.64671e+06
-0.00860596,-0.396301,0.929382,-0.30426,-0,0.15213,6.64671e+06
-0.00732422,-0.393799,0.930786,0.15213,0.45639,0.15213,6.64671e+06
-0.0106201,-0.397339,0.932495,-0,-0.30426,-0,6.64671e+06
-0.0106201,-0.397339,0.932495,-0,-0.30426,-0,6.64671e+06
-0.00616455,-0.397034,0.940063,-0,-0,0.45639,6.64671e+06
-0.00616455,-0.397034,0.940063,-0,-0,0.45639,6.64671e+06
-0.0057373,-0.394409,0.92749,0.30426,0.45639,0.15213,6.64671e+06
-0.00933838,-0.397583,0.933472,0.45639,0.30426,-0.15213,6.64671e+06
-0.00933838,-0.397583,0.933472,0.45639,0.30426,-0.15213,6.64671e+06
-0.00915527,-0.397644,0.936096,0.45639,0.30426,0.30426,6.64671e+06
-0.00695801,-0.396606,0.93512,-0.15213,0.30426,-0,6.64671e+06
-0.00695801,-0.396606,0.93512,-0.15213,0.30426,-0,6.64671e+06
-0.00689697,-0.393066,0.939453,-0.30426,-0,-0.15213,6.64671e+06
-0.00701904,-0.389404,0.93689,-0.15213,-0.30426,-0.15213,6.64671e+06
-0.0162354,-0.406067,0.938843,-0,-0.30426,-0,6.64671e+06
-0.0162354,-0.406067,0.938843,-0,-0.30426,-0,6.64671e+06
-0.0288086,-0.434082,0.934692,0.15213,-0,-0.760651,6.64671e+06
-0.0288086,-0.434082,0.934692,0.15213,-0,-0.760651,6.64671e+06
-0.00964355,-0.419739,0.929565,-0,-0.45639,-0.45639,6.64671e+06
-0.00793457,-0.392822,0.938416,-0.608521,-0.760651,0.45639,6.64671e+06
-0.00793457,-0.392822,0.938416,-0.608521,-0.760651,0.45639,6.64671e+06
-0.0177612,-0.397217,0.946228,-0,-0,0.30426,6.64671e+06
0.00286865,-0.395264,0.932739,0.15213,0.912781,0.30426,6.64671e+06
0.000610352,-0.374878,0.939514,-0.30426,0.30426,0.30426,6.64671e+06
0.000610352,-0.374878,0.939514,-0.30426,0.30426,0.30426,6.64671e+06
-0.0174561,-0.386902,0.937439,-0.15213,-0.608521,-0,6.64671e+06
-0.0166626,-0.414856,0.926147,0.30426,0.15213,-0,6.64671e+06
-0.0166626,-0.414856,0.926147,0.30426,0.15213,-0,6.64671e+06
-0.00323486,-0.404846,0.93512,0.45639,-0,0.15213,6.64671e+06
-0.00323486,-0.404846,0.93512,0.45639,-0,0.15213,6.64671e+06
-0.00946045,-0.393066,0.947571,-0,-0.30426,0.30426,6.64671e+06
-0.00665283,-0.394043,0.935852,-0.15213,-0.15213,-0,6.64671e+06
-0.00665283,-0.394043,0.935852,-0.15213,-0.15213,-0,6.64671e+06
-0.0144653,-0.395935,0.922607,-0.15213,0.15213,-0.15213,6.64671e+06
-0.012085,-0.393311,0.924988,-0,-0,0.15213,6.64671e+06
0.00134277,-0.398743,0.949951,-0.15213,-1.06491,-0,6.64671e+06
0.00134277,-0.398743,0.949951,-0.15213,-1.06491,-0,6.64671e+06
-0.0102539,-0.396606,0.924866,-0.912781,-0.912781,-0,6.64671e+06
-0.00280762,-0.390564,0.911865,1.06491,1.82556,0.30426,6.64671e+06
-0.00280762,-0.390564,0.911865,1.06491,1.82556,0.30426,6.64671e+06
-0.00457764,-0.385315,0.913269,0.608521,1.21704,0.45639,6.64671e+06
-0.00457764,-0.385315,0.913269,0.608521,1.21704,0.45639,6.64671e+06
-0.010437,-0.39563,0.923584,1.21704,0.760651,-0,6.64671e+06
-0.00634766,-0.403625,0.941589,0.45639,0.45639,0.30426,6.64671e+06
-0.00634766,-0.403625,0.941589,0.45639,0.45639,0.30426,6.64671e+06
-0.00817871,-0.393677,0.93811,-0,0.608521,0.15213,6.64671e+06
-0.00610352,-0.383301,0.929626,-0.760651,-0.45639,0.30426,6.64671e+06
-0.00836182,-0.390381,0.925659,-0.30426,-0.30426,0.15213,6.64671e+06
-0.00836182,-0.390381,0.925659,-0.30426,-0.30426,0.15213,6.64671e+06
-0.0112305,-0.399231,0.939697,-0,-0.45639,-0,6.64671e+06
-0.0112305,-0.399231,0.939697,-0,-0.45639,-0,6.64671e+06
-0.00634766,-0.393799,0.941589,0.15213,0.30426,-0,6.64671e+06
-0.0102539,-0.394592,0.926392,0.608521,0.45639,-0.15213,6.64671e+06
-0.0102539,-0.394592,0.926392,0.608521,0.45639,-0.15213,6.64671e+06
-0.010437,-0.395142,0.930054,0.608521,0.30426,0.15213,6.64671e+06
-0.00585938,-0.397156,0.944275,0.30426,0.45639,0.15213,6.64671e+06
-0.00585938,-0.397156,0.944275,0.30426,0.45639,0.15213,6.64671e+06
-0.00421143,-0.395508,0.93866,-0.15213,0.30426,0.15213,6.64671e+06
-0.00921631,-0.395447,0.928406,-0,0.30426,0.15213,6.64671e+06
-0.00921631,-0.395447,0.928406,-0,0.30426,0.15213,6.64671e+06
-0.00872803,-0.39801,0.93396,-0,-0.15213,0.15213,6.64671e+06
-0.00500488,-0.398438,0.932861,0.15213,0.30426,0.30426,6.64671e+06
-0.00500488,-0.398438,0.932861,0.15213,0.30426,0.30426,6.64671e+06
-0.0120239,-0.395752,0.932129,0.15213,0.15213,-0,6.64671e+06
-0.00646973,-0.393372,0.925903,0.45639,0.15213,0.15213,6.64671e+06
-0.00646973,-0.393372,0.925903,0.45639,0.15213,0.15213,6.64671e+06
-0.00933838,-0.396423,0.93042,0.912781,0.608521,-0,6.64671e+06
-0.00531006,-0.403992,0.945435,0.912781,0.15213,0.30426,6.64671e+06
-0.0088501,-0.405273,0.944885,0.15213,0.45639,-0,6.64671e+06
-0.0088501,-0.405273,0.944885,0.15213,0.45639,-0,6.64671e+06
-0.00787354,-0.39801,0.933655,-0.30426,-0.15213,0.15213,6.64671e+06
-0.00805664,-0.391479,0.932312,-0.912781,-0,-0.15213,6.64671e+06
-0.00805664,-0.391479,0.932312,-0.912781,-0,-0.15213,6.64671e+06
-0.0106812,-0.394287,0.923645,0.15213,0.608521,0.30426,6.64671e+06
-0.0106812,-0.394287,0.923645,0.15213,0.608521,0.30426,6.64671e+06
-0.00689697,-0.395996,0.929565,0.30426,-0.15213,-0,6.64671e+06
-0.00939941,-0.397156,0.933105,0.608521,0.45639,0.15213,6.64671e+06
-0.00939941,-0.397156,0.933105,0.608521,0.45639,0.15213,6.64671e+06
-0.00952148,-0.395813,0.931274,0.30426,0.608521,-0.15213,6.64671e+06
-0.00640869,-0.390686,0.9328,0.15213,0.45639,-0,6.64671e+06
-0.00689697,-0.392029,0.941711,0.15213,-0.15213,-0,6.64671e+06
-0.00689697,-0.392029,0.941711,0.15213,-0.15213,-0,6.64671e+06
-0.0106201,-0.404602,0.940918,-0.15213,-0,0.30426,6.64671e+06
-0.0106201,-0.404602,0.940918,-0.15213,-0,0.30426,6.64671e+06
-0.00946045,-0.398132,0.934692,-0.30426,0.30426,-0,6.64671e+06
-0.010498,-0.393982,0.929565,-0.15213,0.15213,-0,6.64671e+06
-0.010498,-0.393982,0.929565,-0.15213,0.15213,-0,6.64671e+06
-0.00567627,-0.394653,0.928955,0.15213,0.15213,-0,6.64671e+06
-0.0112915,-0.399048,0.935303,0.30426,0.30426,-0.30426,6.64671e+06
-0.0112915,-0.399048,0.935303,0.30426,0.30426,-0.30426,6.64671e+06
-0.00909424,-0.399048,0.941528,0.45639,0.45639,0.30426,6.64671e+06
-0.00421143,-0.395264,0.928223,0.608521,0.760651,0.15213,6.64671e+06
-0.00421143,-0.395264,0.928223,0.608521,0.760651,0.15213,6.64671e+06
-0.0131836,-0.392151,0.935669,0.45639,0.45639,-0,6.64671e+06
-0.00811768,-0.39447,0.942322,0.30426,0.45639,0.15213,6.64671e+06
-0.00872803,-0.396851,0.930664,-0.15213,-0,-0,6.64671e+06
-0.00872803,-0.396851,0.930664,-0.15213,-0,-0,6.64671e+06
-0.00891113,-0.395874,0.935242,-0.30426,-0,0.15213,6.64671e+06
-0.00427246,-0.394836,0.93042,-0,-0,0.15213,6.64671e+06
-0.00427246,-0.394836,0.93042,-0,-0,0.15213,6.64671e+06
-0.00976562,-0.395508,0.937744,-0.15213,-0,-0,6.64671e+06
-0.00976562,-0.395508,0.937744,-0.15213,-0,-0,6.64671e+06
-0.00750732,-0.398254,0.939453,-0,-0,0.30426,6.64671e+06
-0.00891113,-0.396667,0.927551,0.608521,0.45639,0.15213,6.64671e+06
-0.00891113,-0.396667,0.927551,0.608521,0.45639,0.15213,6.64671e+06
-0.0124512,-0.389343,0.93158,0.45639,-0,0.15213,6.64671e+06
-0.00695801,-0.398804,0.938843,0.30426,-0.30426,0.15213,6.64671e+06
-0.00488281,-0.394531,0.941589,-0.15213,-0.15213,0.30426,6.64671e+06
-0.00488281,-0.394531,0.941589,-0.15213,-0.15213,0.30426,6.64671e+06
-0.00689697,-0.391541,0.94397,-0.760651,-0.15213,0.15213,6.64671e+06
-0.00958252,-0.393799,0.943298,-0.45639,-0.30426,-0,6.64671e+06
-0.00958252,-0.393799,0.943298,-0.45639,-0.30426,-0,6.64671e+06
-0.0125732,-0.401306,0.934143,-0.30426,0.15213,-0.15213,6.64671e+06
-0.0125732,-0.401306,0.934143,-0.30426,0.15213,-0.15213,6.64671e+06
-0.0165405,-0.405518,0.920898,0.30426,0.15213,0.15213,6.64671e+06
-0.00494385,-0.384216,0.944641,-0,0.15213,0.45639,6.64671e+06
-0.00494385,-0.384216,0.944641,-0,0.15213,0.45639,6.64671e+06
0.0116577,-0.366882,0.928528,0.30426,1.21704,0.45639,6.64671e+06
-0.0106812,-0.392822,0.930725,0.608521,0.608521,-0,6.64671e+06
-0.0126343,-0.390869,0.94574,0.30426,0.30426,0.30426,6.64671e+06
-0.0126343,-0.390869,0.94574,0.30426,0.30426,0.30426,6.64671e+06
0.00897217,-0.359192,0.929138,-0,0.15213,0.15213,6.64671e+06
-0.00744629,-0.384583,0.922424,0.15213,0.608521,0.30426,6.64671e+06
-0.00744629,-0.384583,0.922424,0.15213,0.608521,0.30426,6.64671e+06
-0.0088501,-0.410034,0.916016,0.15213,0.30426,0.15213,6.64671e+06
-0.0088501,-0.410034,0.916016,0.15213,0.30426,0.15213,6.64671e+06
-0.00952148,-0.390015,0.944519,-0.30426,0.15213,0.608521,6.64671e+06
-0.0117188,-0.390503,0.925659,-0.760651,0.30426,0.30426,6.64671e+06
-0.0117188,-0.390503,0.925659,-0.760651,0.30426,0.30426,6.64671e+06
-0.0100098,-0.393677,0.904602,0.45639,0.912781,-0.15213,6.64671e+06
-0.0141602,-0.392151,0.915222,1.67343,0.15213,0.30426,6.64671e+06
-0.000854492,-0.397034,0.957397,0.912781,-0,0.15213,6.64671e+06
-0.000854492,-0.397034,0.957397,0.912781,-0,0.15213,6.64671e+06
-0.00970459,-0.402222,0.943787,-0.30426,0.45639,-0,6.64671e+06
-0.00714111,-0.38916,0.926453,-0.45639,0.45639,-0.15213,6.64671e+06
-0.00714111,-0.38916,0.926453,-0.45639,0.45639,-0.15213,6.64671e+06
-0.00891113,-0.382019,0.925903,-0,-0,0.30426,6.64671e+06
-0.00891113,-0.382019,0.925903,-0,-0,0.30426,6.64671e+06
-0.00280762,-0.392151,0.936951,-0,-0.30426,0.30426,6.64671e+06
-0.00616455,-0.400513,0.940186,0.30426,0.608521,-0.30426,6.64671e+06
-0.00616455,-0.400513,0.940186,0.30426,0.608521,-0.30426,6.64671e+06
-0.0128784,-0.396851,0.929749,0.15213,0.15213,-0,6.64671e+06
-0.00939941,-0.394104,0.926941,-0,-0,0.15213,6.64671e+06
-0.0146484,-0.392151,0.938782,0.30426,-0.15213,0.15213,6.64671e+06
-0.0146484,-0.392151,0.938782,0.30426,-0.15213,0.15213,6.64671e+06
-0.00585938,-0.397278,0.937073,0.608521,0.30426,-0,6.64671e+06
-0.00744629,-0.395386,0.94104,0.30426,0.30426,0.15213,6.64671e+06
-0.00744629,-0.395386,0.94104,0.30426,0.30426,0.15213,6.64671e+06
-0.00854492,-0.402405,0.94989,-0.30426,-0.30426,0.30426,6.64671e+06
-0.00854492,-0.402405,0.94989,-0.30426,-0.30426,0.30426,6.64672e+06
-0.00817871,-0.40155,0.932007,-0.45639,-0,-0.15213,6.64672e+06
-0.0101318,-0.390503,0.926147,-0,0.15213,0.30426,6.64672e+06
-0.0106201,-0.394348,0.930176,0.30426,-0,0.608521,6.64672e+06
-0.0106201,-0.394348,0.930176,0.30426,-0,0.608521,6.64672e+06
-0.0127563,-0.401062,0.938416,0.608521,0.30426,-0,6.64672e+06
-0.00494385,-0.401733,0.934143,-0,0.30426,-0.15213,6.64672e+06
-0.00494385,-0.401733,0.934143,-0,0.30426,-0.15213,6.64672e+06
-0.0116577,-0.397461,0.933105,0.15213,0.30426,0.15213,6.64672e+06
-0.0116577,-0.397461,0.933105,0.15213,0.30426,0.15213,6.64672e+06
-0.010437,-0.398499,0.935486,0.45639,0.30426,-0,6.64672e+06
-0.0122681,-0.396484,0.939087,-0,-0.45639,0.15213,6.64672e+06
-0.0122681,-0.396484,0.939087,-0,-0.45639,0.15213,6.64672e+06
-0.00866699,-0.394714,0.933044,-0,-0,-0,6.64672e+06
-0.00708008,-0.396912,0.934631,-0,0.15213,-0.15213,6.64672e+06
-0.00878906,-0.396423,0.940796,-0.30426,0.15213,0.15213,6.64672e+06
-0.00878906,-0.396423,0.940796,-0.30426,0.15213,0.15213,6.64672e+06
-0.00482178,-0.391785,0.925842,-0.15213,0.30426,-0,6.64672e+06
-0.00482178,-0.391785,0.925842,-0.15213,0.30426,-0,6.64672e+06
-0.0115356,-0.388977,0.927917,0.15213,0.30426,0.15213,6.64672e+06
-0.0057373,-0.398499,0.937805,0.608521,0.30426,0.30426,6.64672e+06
-0.00891113,-0.399353,0.945312,0.30426,0.15213,-0.15213,6.64672e+06
-0.00891113,-0.399353,0.945312,0.30426,0.15213,-0.15213,6.64672e+06
-0.00769043,-0.399902,0.942688,-0.15213,0.15213,0.15213,6.64672e+06
-0.00769043,-0.399902,0.942688,-0.15213,0.15213,0.15213,6.64672e+06
-0.0115967,-0.395508,0.925415,-0.15213,0.15213,-0,6.64672e+06
-0.00616455,-0.394287,0.934692,-0,-0,-0,6.64672e+06
-0.00494385,-0.394836,0.936401,0.608521,0.15213,-0.15213,6.64672e+06
-0.00494385,-0.394836,0.936401,0.608521,0.15213,-0.15213,6.64672e+06
-0.00891113,-0.3927,0.938293,-0,-0,0.15213,6.64672e+06
-0.0032959,-0.396301,0.940979,-0.30426,-0,-0,6.64672e+06
-0.0032959,-0.396301,0.940979,-0.30426,-0,-0,6.64672e+06
-0.012146,-0.395325,0.928772,-0,-0,0.45639,6.64672e+06
-0.012146,-0.395325,0.928772,-0,-0,0.45639,6.64672e+06
-0.00714111,-0.394043,0.931824,0.45639,0.30426,-0,6.64672e+06
-0.0078125,-0.396423,0.939209,0.30426,0.45639,0.30426,6.64672e+06
-0.0078125,-0.396423,0.939209,0.30426,0.45639,0.30426,6.64672e+06
-0.00793457,-0.402039,0.941833,-0.30426,-0.15213,0.30426,6.64672e+06
-0.00982666,-0.397522,0.935364,-0.45639,-0,-0.15213,6.64672e+06
-0.0101929,-0.391541,0.914978,-0,0.15213,0.30426,6.64672e+06
-0.0101929,-0.391541,0.914978,-0,0.15213,0.30426,6.64672e+06
-0.00817871,-0.396851,0.927917,0.30426,0.45639,-0.15213,6.64672e+06
-0.015564,-0.405884,0.943726,0.45639,-0,-0.15213,6.64672e+06
-0.015564,-0.405884,0.943726,0.45639,-0,-0.15213,6.64672e+06
-0.003479,-0.401306,0.938843,-0,-0.15213,0.15213,6.64672e+06
-0.003479,-0.401306,0.938843,-0,-0.15213,0.15213,6.64672e+06
-0.00756836,-0.392517,0.938232,-0,0.15213,-0,6.64672e+06
-0.00701904,-0.388062,0.927917,0.608521,0.45639,0.15213,6.64672e+06
-0.00701904,-0.388062,0.927917,0.608521,0.45639,0.15213,6.64672e+06
-0.00842285,-0.394836,0.934265,-0,-0,0.15213,6.64672e+06
-0.0125122,-0.390991,0.941406,0.15213,0.15213,-0,6.64672e+06
-0.00695801,-0.393921,0.941345,0.15213,0.15213,-0,6.64672e+06
-0.00695801,-0.393921,0.941345,0.15213,0.15213,-0,6.64672e+06
-0.0090332,-0.399292,0.933228,-0.15213,-0,-0,6.64672e+06
-0.0090332,-0.399292,0.933228,-0.15213,-0,-0,6.64672e+06
-0.0101929,-0.394287,0.927246,-0,-0.15213,0.15213,6.64672e+06
-0.00720215,-0.389648,0.940918,-0,-0.15213,0.45639,6.64672e+06
-0.00720215,-0.389648,0.940918,-0,-0.15213,0.45639,6.64672e+06
-0.0078125,-0.393311,0.934021,0.45639,0.45639,-0,6.64672e+06
-0.0078125,-0.402893,0.935364,-0,-0,0.15213,6.64672e+06
-0.012146,-0.40033,0.932373,0.15213,0.760651,0.15213,6.64672e+06
-0.012146,-0.40033,0.932373,0.15213,0.760651,0.15213,6.64672e+06
-0.0098877,-0.396423,0.931274,0.15213,0.15213,0.15213,6.64672e+06
-0.0102539,-0.392517,0.935425,0.45639,0.15213,-0,6.64672e+06
-0.0102539,-0.392517,0.935425,0.45639,0.15213,-0,6.64672e+06
-0.0109863,-0.392029,0.933228,0.15213,-0.15213,0.45639,6.64672e+06
-0.0109863,-0.392029,0.933228,0.15213,-0.15213,0.45639,6.64672e+06
-0.00756836,-0.398438,0.938232,0.15213,0.15213,0.15213,6.64672e+06
-0.00823975,-0.389526,0.930725,0.15213,0.15213,0.15213,6.64672e+06
-0.00823975,-0.389526,0.930725,0.15213,0.15213,0.15213,6.64672e+06
-0.00891113,-0.387329,0.929688,0.45639,0.45639,0.30426,6.64672e+06
-0.00335693,-0.39624,0.930847,0.608521,0.45639,-0,6.64672e+06
-0.0114746,-0.393738,0.942688,0.15213,-0.30426,0.30426,6.64672e+06
-0.0114746,-0.393738,0.942688,0.15213,-0.30426,0.30426,6.64672e+06
-0.00250244,-0.382935,0.932373,0.15213,0.15213,-0.15213,6.64672e+06
-0.00653076,-0.395935,0.935181,0.15213,0.760651,0.15213,6.64672e+06
-0.00653076,-0.395935,0.935181,0.15213,0.760651,0.15213,6.64672e+06
-0.0116577,-0.394226,0.933838,0.30426,-0,0.30426,6.64672e+06
-0.0116577,-0.394226,0.933838,0.30426,-0,0.30426,6.64672e+06
-0.00701904,-0.388855,0.944641,0.30426,-0.15213,0.15213,6.64672e+06
-0.00799561,-0.396484,0.931519,0.15213,0.45639,0.15213,6.64672e+06
-0.00799561,-0.396484,0.931519,0.15213,0.45639,0.15213,6.64672e+06
-0.0128174,-0.406799,0.940063,0.45639,0.15213,-0,6.64672e+06
-0.012146,-0.401672,0.9328,-0.30426,-0.30426,0.30426,6.64672e+06
-0.0136719,-0.39624,0.940063,-0.15213,-0.30426,0.15213,6.64672e+06
-0.0136719,-0.39624,0.940063,-0.15213,-0.30426,0.15213,6.64672e+06
-0.0057373,-0.390076,0.934265,-0,0.30426,0.30426,6.64672e+06
-0.0119019,-0.391418,0.928589,0.30426,-0.15213,0.15213,6.64672e+06
-0.0119019,-0.391418,0.928589,0.30426,-0.15213,0.15213,6.64672e+06
-0.00683594,-0.393921,0.933289,0.608521,-0,0.30426,6.64672e+06
-0.00683594,-0.393921,0.933289,0.608521,-0,0.30426,6.64672e+06
-0.0137939,-0.405029,0.943054,0.608521,-0,0.15213,6.64672e+06
-0.00622559,-0.403931,0.94635,0.30426,0.30426,-0,6.64672e+06
-0.00622559,-0.403931,0.94635,0.30426,0.30426,-0,6.64672e+06
-0.0055542,-0.383545,0.914612,-0.30426,0.45639,0.608521,6.64672e+06
-0.0150757,-0.392212,0.931885,-0,-0.45639,-0.15213,6.64672e+06
-0.00750732,-0.431396,0.942139,-0.15213,-0.45639,-0.760651,6.64672e+06
-0.00750732,-0.431396,0.942139,-0.15213,-0.45639,-0.760651,6.64672e+06
-0.0751343,-0.510925,0.924377,0.15213,0.15213,-1.82556,6.64672e+06
-0.0751343,-0.510925,0.924377,0.15213,0.15213,-1.82556,6.64672e+06
-0.0327759,-0.495483,0.940857,1.21704,-1.06491,-0.30426,6.64672e+06
-0.0274048,-0.37207,0.923889,0.15213,1.5213,0.760651,6.64672e+06
-0.0274048,-0.37207,0.923889,0.15213,1.5213,0.760651,6.64672e+06
0.0256348,-0.357361,0.965576,-0.912781,-0.45639,-0,6.64672e+06
-0.0335693,-0.410461,0.94574,-0,-0.30426,-0.30426,6.64672e+06
0.0117798,-0.378967,0.890991,0.45639,2.12982,-0.608521,6.64672e+06
0.0117798,-0.378967,0.890991,0.45639,2.12982,-0.608521,6.64672e+06
-0.00872803,-0.372131,0.972046,-0.912781,-0.760651,-0.15213,6.64672e+06
-0.0234985,-0.451111,0.953247,-0.45639,-0.15213,-0.912781,6.64672e+06
-0.0234985,-0.451111,0.953247,-0.45639,-0.15213,-0.912781,6.64672e+06
-0.0172119,-0.433838,0.929932,-0.45639,-0.15213,-0,6.64672e+06
0.000793457,-0.35083,0.911255,-0,0.608521,0.912781,6.64672e+06
0.000793457,-0.35083,0.911255,-0,0.608521,0.912781,6.64672e+06
-0.00189209,-0.355469,0.934753,-0,-0.45639,0.760651,6.64672e+06
-0.00189209,-0.355469,0.934753,-0,-0.45639,0.760651,6.64672e+06
-0.015625,-0.412842,0.940613,0.760651,0.30426,-0.30426,6.64672e+06
-0.0142822,-0.41217,0.934204,0.760651,0.15213,-0,6.64672e+06
-0.00592041,-0.399963,0.946472,-0.45639,-0.30426,0.15213,6.64672e+06
-0.00592041,-0.399963,0.946472,-0.45639,-0.30426,0.15213,6.64672e+06
-0.0264893,-0.469727,0.943298,0.45639,0.608521,-1.06491,6.64672e+06
-0.0450439,-0.472351,0.927551,0.15213,0.15213,-0.608521,6.64672e+06
-0.0450439,-0.472351,0.927551,0.15213,0.15213,-0.608521,6.64672e+06
-0.00146484,-0.38208,0.941833,-1.21704,-1.06491,0.760651,6.64672e+06
-0.00604248,-0.36145,0.961243,-0,-0.45639,0.760651,6.64672e+06
-0.00604248,-0.36145,0.961243,-0,-0.45639,0.760651,6.64672e+06
0.0307007,-0.309814,0.951355,-0.30426,0.912781,1.06491,6.64672e+06
0.0307007,-0.309814,0.951355,-0.30426,0.912781,1.06491,6.64672e+06
0.00897217,-0.32843,0.90033,-0.30426,1.82556,0.15213,6.64672e+06
-0.0144043,-0.401489,0.921814,0.30426,-0,-0.912781,6.64672e+06
-0.0135498,-0.433472,0.956604,0.15213,0.45639,-0.45639,6.64672e+06
-0.0135498,-0.433472,0.956604,0.15213,0.45639,-0.45639,6.64672e+06
-0.015686,-0.394592,0.951599,-0.760651,-0.45639,-0.30426,6.64672e+06
-0.0157471,-0.390747,0.935913,0.15213,0.15213,0.15213,6.64672e+06
-0.0157471,-0.390747,0.935913,0.15213,0.15213,0.15213,6.64672e+06
0.00744629,-0.355591,0.913147,-0.15213,0.45639,0.45639,6.64672e+06
0.00744629,-0.355591,0.913147,-0.15213,0.45639,0.45639,6.64672e+06
-0.000854492,-0.368469,0.938965,0.15213,0.15213,0.15213,6.64672e+06
-0.00640869,-0.391663,0.948608,-0.45639,-0.15213,-0.15213,6.64672e+06
-0.00640869,-0.391663,0.948608,-0.45639,-0.15213,-0.15213,6.64672e+06
-0.0192261,-0.420044,0.929443,0.45639,0.30426,-0.45639,6.64672e+06
-0.00872803,-0.404114,0.936523,-0,0.15213,0.30426,6.64672e+06
-0.00756836,-0.381714,0.933899,0.30426,0.30426,0.608521,6.64672e+06
-0.00756836,-0.381714,0.933899,0.30426,0.30426,0.608521,6.64672e+06
-0.00323486,-0.378906,0.927368,-0,-0.30426,0.30426,6.64672e+06
-0.00714111,-0.396667,0.932617,0.608521,0.45639,0.30426,6.64672e+06
-0.00714111,-0.396667,0.932617,0.608521,0.45639,0.30426,6.64672e+06
-0.0117188,-0.393066,0.939758,0.30426,0.15213,-0,6.64672e+06
-0.0117188,-0.393066,0.939758,0.30426,0.15213,-0,6.64672e+06
-0.00537109,-0.396179,0.940247,0.30426,0.30426,0.30426,6.64672e+06
-0.00561523,-0.37915,0.932861,-0.30426,-0.30426,0.30426,6.64672e+06
-0.00201416,-0.375916,0.934814,-0.15213,-0.15213,0.608521,6.64672e+06
-0.00201416,-0.375916,0.934814,-0.15213,-0.15213,0.608521,6.64672e+06
-0.00927734,-0.395813,0.940125,-0.15213,-0.45639,-0.15213,6.64672e+06
-0.0119629,-0.396606,0.937744,0.30426,0.608521,-0,6.64672e+06
-0.0119629,-0.396606,0.937744,0.30426,0.608521,-0,6.64672e+06
-0.00976562,-0.393677,0.927246,0.608521,0.15213,-0,6.64672e+06
-0.0109863,-0.399231,0.930969,0.45639,0.30426,0.15213,6.64672e+06
-0.0109863,-0.399231,0.930969,0.45639,0.30426,0.15213,6.64672e+06
-0.00823975,-0.395691,0.936401,0.608521,0.15213,0.30426,6.64672e+06
-0.00823975,-0.395691,0.936401,0.608521,0.15213,0.30426,6.64672e+06
-0.00744629,-0.386292,0.938416,0.15213,-0.15213,-0,6.64672e+06
-0.00579834,-0.392517,0.937317,0.45639,0.15213,0.30426,6.64672e+06
-0.0100708,-0.403748,0.945557,-0.608521,-0,0.30426,6.64672e+06
-0.0100708,-0.403748,0.945557,-0.608521,-0,0.30426,6.64672e+06
-0.0128174,-0.401245,0.93634,-0.30426,0.15213,0.15213,6.64672e+06
-0.0065918,-0.393005,0.923706,-0.15213,0.30426,0.45639,6.64672e+06
-0.0065918,-0.393005,0.923706,-0.15213,0.30426,0.45639,6.64672e+06
-0.0128174,-0.384827,0.916626,0.30426,0.30426,-0,6.64672e+06
-0.0128174,-0.384827,0.916626,0.30426,0.30426,-0,6.64672e+06
-0.00860596,-0.396851,0.937134,1.06491,0.30426,0.30426,6.64672e+06
-0.000793457,-0.39856,0.950745,0.608521,0.608521,0.15213,6.64672e+06
-0.000793457,-0.39856,0.950745,0.608521,0.608521,0.15213,6.64672e+06
-0.0147705,-0.390198,0.940308,0.15213,0.30426,0.30426,6.64672e+06
-0.00402832,-0.396057,0.928711,-0,-0.45639,-0,6.64672e+06
-0.012085,-0.396301,0.938049,0.15213,-0,-0.30426,6.64672e+06
-0.012085,-0.396301,0.938049,0.15213,-0,-0.30426,6.64672e+06
-0.0065918,-0.397827,0.937866,0.15213,0.30426,0.15213,6.64672e+06
-0.0151978,-0.393555,0.934937,-0.45639,0.30426,-0.30426,6.64672e+06
-0.0151978,-0.393555,0.934937,-0.45639,0.30426,-0.30426,6.64672e+06
-0.00567627,-0.397766,0.932678,0.30426,0.45639,-0.15213,6.64672e+06
-0.00567627,-0.397766,0.932678,0.30426,0.45639,-0.15213,6.64672e+06
-0.0078125,-0.395569,0.933167,0.760651,0.30426,-0,6.64672e+06
-0.00921631,-0.399048,0.936768,0.45639,0.45639,0.15213,6.64672e+06
-0.00921631,-0.399048,0.936768,0.45639,0.45639,0.15213,6.64672e+06
-0.00738525,-0.400635,0.942383,0.760651,0.15213,0.15213,6.64672e+06
-0.0125122,-0.400208,0.940552,-0,0.15213,0.45639,6.64672e+06
-0.00878906,-0.401672,0.931396,-0.15213,0.15213,0.15213,6.64672e+06
-0.00878906,-0.401672,0.931396,-0.15213,0.15213,0.15213,6.64672e+06
-0.010376,-0.397461,0.922791,-0.30426,0.45639,-0.15213,6.64672e+06
-0.00134277,-0.392883,0.929443,-0,-0,-0,6.64672e+06
-0.00134277,-0.392883,0.929443,-0,-0,-0,6.64672e+06
-0.00408936,-0.386963,0.940002,0.45639,0.30426,0.608521,6.64672e+06
-0.00408936,-0.386963,0.940002,0.45639,0.30426,0.608521,6.64672e+06
-0.00842285,-0.388977,0.928284,0.30426,0.760651,0.15213,6.64672e+06
-0.00543213,-0.394897,0.927307,0.760651,0.608521,-0,6.64672e+06
-0.00543213,-0.394897,0.927307,0.760651,0.608521,-0,6.64672e+06
-0.0119019,-0.391479,0.94165,0.45639,-0,0.30426,6.64672e+06
-0.00341797,-0.403503,0.941589,0.15213,-0.15213,0.30426,6.64672e+06
-0.0170898,-0.398743,0.928345,0.15213,0.912781,-0,6.64672e+06
-0.0170898,-0.398743,0.928345,0.15213,0.912781,-0,6.64672e+06
-0.00390625,-0.389893,0.923096,0.15213,-0,0.15213,6.64672e+06
-0.00543213,-0.392212,0.944641,-0,-0.30426,0.30426,6.64672e+06
-0.00543213,-0.392212,0.944641,-0,-0.30426,0.30426,6.64672e+06
-0.00799561,-0.395752,0.924622,0.15213,0.760651,0.30426,6.64672e+06
-0.00799561,-0.395752,0.924622,0.15213,0.760651,0.30426,6.64672e+06
-0.00836182,-0.393982,0.922119,0.30426,0.45639,0.15213,6.64672e+06
-0.003479,-0.394653,0.930359,0.45639,0.30426,0.45639,6.64672e+06
-0.00604248,-0.402771,0.948181,-0,-0.15213,0.45639,6.64672e+06
-0.00604248,-0.402771,0.948181,-0,-0.15213,0.45639,6.64672e+06
-0.00946045,-0.403931,0.93634,-0.15213,0.15213,-0,6.64672e+06
-0.0100708,-0.392822,0.923157,0.15213,0.30426,-0,6.64672e+06
-0.0100708,-0.392822,0.923157,0.15213,0.30426,-0,6.64672e+06
-0.0101929,-0.390686,0.938538,-0,-0,-0,6.64672e+06
-0.0128784,-0.396606,0.945801,-0,-0,-0,6.64672e+06
-0.0128784,-0.396606,0.945801,-0,-0,-0,6.64672e+06
-0.00598145,-0.395508,0.9328,0.30426,0.15213,-0,6.64672e+06
-0.00598145,-0.395508,0.9328,0.30426,0.15213,-0,6.64672e+06
-0.00665283,-0.3927,0.92926,0.30426,0.30426,0.15213,6.64672e+06
-0.00775146,-0.39624,0.944031,-0,-0.15213,0.15213,6.64672e+06
-0.00897217,-0.390076,0.934204,-0,-0.15213,0.30426,6.64672e+06
-0.00897217,-0.390076,0.934204,-0,-0.15213,0.30426,6.64672e+06
-0.00512695,-0.388855,0.928284,0.15213,0.15213,0.30426,6.64672e+06
-0.00897217,-0.395386,0.932617,0.45639,0.30426,0.15213,6.64672e+06
-0.00897217,-0.395386,0.932617,0.45639,0.30426,0.15213,6.64672e+06
-0.0125732,-0.403503,0.939575,-0,-0.30426,0.30426,6.64672e+06
-0.0125732,-0.403503,0.939575,-0,-0.30426,0.30426,6.64672e+06
-0.00897217,-0.39624,0.931396,-0,0.45639,-0.30426,6.64672e+06
-0.0119019,-0.392517,0.921143,0.15213,0.15213,0.30426,6.64672e+06
-0.0119019,-0.392517,0.921143,0.15213,0.15213,0.30426,6.64672e+06
-0.0043335,-0.393555,0.938538,0.45639,-0,0.15213,6.64672e+06
-0.00756836,-0.392883,0.946838,-0.15213,-0.45639,-0.15213,6.64672e+06
-0.00958252,-0.394653,0.927429,0.15213,0.30426,-0,6.64672e+06
-0.00958252,-0.394653,0.927429,0.15213,0.30426,-0,6.64672e+06
-0.00592041,-0.395569,0.928833,0.760651,0.15213,-0.15213,6.64672e+06
-0.00909424,-0.39563,0.949585,0.45639,-0,0.15213,6.64672e+06
-0.00909424,-0.39563,0.949585,0.45639,-0,0.15213,6.64672e+06
-0.00683594,-0.403015,0.948303,0.15213,0.15213,-0,6.64672e+06
-0.0108643,-0.397095,0.934143,-0.15213,0.15213,-0.15213,6.64672e+06
-0.0108643,-0.397095,0.934143,-0.15213,0.15213,-0.15213,6.64672e+06
-0.00811768,-0.393311,0.928955,-0.15213,-0,-0,6.64672e+06
-0.00811768,-0.393311,0.928955,-0.15213,-0,-0,6.64672e+06
-0.0146484,-0.399902,0.93573,0.15213,0.30426,0.15213,6.64672e+06
-0.00787354,-0.400513,0.936584,0.30426,0.608521,-0,6.64672e+06
-0.00756836,-0.393799,0.932068,0.30426,0.30426,0.15213,6.64672e+06
-0.00756836,-0.393799,0.932068,0.30426,0.30426,0.15213,6.64672e+06
-0.00543213,-0.391479,0.931335,0.30426,-0,0.30426,6.64672e+06
-0.00964355,-0.396729,0.939453,0.45639,0.760651,0.30426,6.64672e+06
-0.00964355,-0.396729,0.939453,0.45639,0.760651,0.30426,6.64672e+06
-0.00799561,-0.397888,0.936279,0.15213,0.608521,-0.45639,6.64672e+06
-0.00543213,-0.39679,0.937561,-0.15213,-0,0.15213,6.64672e+06
-0.00543213,-0.39679,0.937561,-0.15213,-0,0.15213,6.64672e+06
-0.00933838,-0.396423,0.942383,-0.45639,-0.45639,0.30426,6.64672e+06
-0.00933838,-0.396423,0.942383,-0.45639,-0.45639,0.30426,6.64672e+06
-0.0106201,-0.395935,0.935791,-0,0.45639,0.15213,6.64672e+06
-0.0106201,-0.389099,0.923157,0.15213,0.45639,-0.15213,6.64672e+06
-0.0131226,-0.394775,0.936829,0.15213,-0.15213,-0.15213,6.64672e+06
-0.0131226,-0.394775,0.936829,0.15213,-0.15213,-0.15213,6.64672e+06
-0.00714111,-0.398743,0.943054,0.912781,-0.15213,-0,6.64672e+06
-0.00164795,-0.397095,0.944031,0.608521,0.30426,0.30426,6.64672e+06
-0.00164795,-0.397095,0.944031,0.608521,0.30426,0.30426,6.64672e+06
-0.0108643,-0.392639,0.936279,0.30426,0.15213,0.15213,6.64672e+06
-0.0108643,-0.392639,0.936279,0.30426,0.15213,0.15213,6.64672e+06
-0.00695801,-0.390381,0.931824,-0,0.30426,-0,6.64672e+06
-0.00756836,-0.397034,0.933289,0.15213,0.30426,-0.30426,6.64672e+06
-0.00646973,-0.400452,0.940674,-0.15213,0.15213,-0,6.64672e+06
-0.00646973,-0.400452,0.940674,-0.15213,0.15213,-0,6.64672e+06
-0.010376,-0.398804,0.939026,-0.45639,-0.45639,-0.30426,6.64672e+06
-0.0105591,-0.394958,0.930664,-0.30426,-0,0.15213,6.64672e+06
-0.0105591,-0.394958,0.930664,-0.30426,-0,0.15213,6.64672e+06
-0.0088501,-0.394226,0.926147,0.15213,0.15213,0.15213,6.64672e+06
-0.0088501,-0.394226,0.926147,0.15213,0.15213,0.15213,6.64672e+06
-0.00891113,-0.392883,0.918152,0.912781,0.15213,0.15213,6.64672e+06
-0.00805664,-0.393616,0.933899,1.06491,-0,-0,6.64672e+06
-0.00842285,-0.402771,0.956055,0.30426,-0,-0,6.64672e+06
-0.00842285,-0.402771,0.956055,0.30426,-0,-0,6.64672e+06
-0.0109253,-0.397461,0.941406,-0.608521,-0,0.15213,6.64672e+06
-0.00701904,-0.393555,0.929993,-0.45639,0.45639,-0.15213,6.64672e+06
-0.00701904,-0.393555,0.929993,-0.45639,0.45639,-0.15213,6.64672e+06
-0.00793457,-0.392944,0.928772,-0.30426,-0.15213,0.15213,6.64672e+06
-0.00744629,-0.394226,0.929749,0.45639,0.15213,0.15213,6.64672e+06
-0.00744629,-0.394226,0.929749,0.45639,0.15213,0.15213,6.64672e+06
-0.0174561,-0.405884,0.934387,0.30426,0.30426,0.15213,6.64672e+06
-0.0128174,-0.410339,0.943054,-0,-0.45639,-0,6.64672e+06
-0.0128174,-0.410339,0.943054,-0,-0.45639,-0,6.64672e+06
-0.0187988,-0.401794,0.925476,0.15213,0.30426,-0,6.64672e+06
-0.00457764,-0.400513,0.929871,0.760651,0.45639,-0.608521,6.64672e+06
-0.00457764,-0.400513,0.929871,0.760651,0.45639,-0.608521,6.64672e+06
-0.015564,-0.409119,0.936157,0.608521,-0,-0,6.64672e+06
-0.00653076,-0.396729,0.955505,-0,-0.15213,0.15213,6.64672e+06
-0.00653076,-0.396729,0.955505,-0,-0.15213,0.15213,6.64672e+06
6.10352e-05,-0.388733,0.940308,-0.30426,0.45639,-0.15213,6.64672e+06
-0.00787354,-0.406372,0.919006,-0.45639,0.30426,-0.15213,6.64672e+06
-0.00787354,-0.406372,0.919006,-0.45639,0.30426,-0.15213,6.64672e+06
-0.0261841,-0.420227,0.925293,-0.30426,-1.21704,-0,6.64672e+06
-0.00219727,-0.393066,0.939514,0.30426,-0.15213,0.15213,6.64672e+06
-0.00219727,-0.393066,0.939514,0.30426,-0.15213,0.15213,6.64672e+06
-0.00769043,-0.380554,0.925964,1.21704,0.912781,0.15213,6.64672e+06
-0.00769043,-0.380554,0.925964,1.21704,0.912781,0.15213,6.64672e+06
-0.0115356,-0.399475,0.94635,0.608521,-0,0.45639,6.64672e+06
-0.00640869,-0.40448,0.945068,-0.30426,-0,0.45639,6.64672e+06
-0.0192871,-0.395447,0.929382,-0.608521,0.760651,-0.45639,6.64672e+06
-0.0192871,-0.395447,0.929382,-0.608521,0.760651,-0.45639,6.64672e+06
0.000427246,-0.39325,0.927307,0.30426,-0.30426,-0.30426,6.64672e+06
-0.0118408,-0.398621,0.945496,0.30426,0.15213,0.30426,6.64672e+06
-0.0118408,-0.398621,0.945496,0.30426,0.15213,0.30426,6.64672e+06
0.00109863,-0.406372,0.963501,-0.912781,-0.30426,0.15213,6.64672e+06
-0.0132446,-0.388672,0.926575,-1.21704,0.45639,0.30426,6.64672e+06
-0.0132446,-0.388672,0.926575,-1.21704,0.45639,0.30426,6.64672e+06
-0.00567627,-0.376099,0.889221,0.45639,0.608521,-0.30426,6.64672e+06
-0.00720215,-0.392883,0.935364,2.12982,-0,-0,6.64672e+06
-0.00720215,-0.392883,0.935364,2.12982,-0,-0,6.64672e+06
-0.0137329,-0.411865,0.969543,1.36917,0.15213,0.30426,6.64672e+06
-0.00665283,-0.403931,0.946106,-0.45639,-0,0.15213,6.64672e+06
-0.00665283,-0.403931,0.946106,-0.45639,-0,0.15213,6.64672e+06
-0.0150146,-0.385864,0.925293,-0.45639,0.45639,-0.15213,6.64672e+06
-0.00921631,-0.393433,0.922241,-0.45639,-0,-0,6.64672e+06
-0.00921631,-0.393433,0.922241,-0.45639,-0,-0,6.64672e+06
