accelx,accely,accelz,gyrox,gyroy,gyroz,time
-0.00561523,0.0120239,1.01825,0.30426,0.45639,0.15213,1.51071e+09
-0.00561523,0.0105591,1.02124,-0,-0,0.15213,1.51071e+09
-0.00720215,0.0112915,1.01929,-0,-0,-0,1.51071e+09
-0.00720215,0.0112915,1.01929,-0,-0,-0,1.51071e+09
-0.00708008,0.0117188,1.01782,-0,0.15213,-0,1.51071e+09
-0.0090332,0.0136108,1.02106,-0,0.15213,0.15213,1.51071e+09
-0.0090332,0.0136108,1.02106,-0,0.15213,0.15213,1.51071e+09
-0.00836182,0.0109863,1.01788,0.15213,0.15213,0.30426,1.51071e+09
-0.00994873,0.0106812,1.01984,-0,0.608521,-0,1.51071e+09
-0.00994873,0.0106812,1.01984,-0,0.608521,-0,1.51071e+09
-0.00799561,0.0133057,1.01538,-0.15213,-0.15213,-0.15213,1.51071e+09
-0.00366211,0.0101318,1.01941,0.15213,0.45639,-0.15213,1.51071e+09
-0.00366211,0.0101318,1.01941,0.15213,0.45639,-0.15213,1.51071e+09
-0.0088501,0.010437,1.01593,-0.15213,0.15213,0.15213,1.51071e+09
-0.00946045,0.0088501,1.02423,0.15213,0.15213,0.30426,1.51071e+09
-0.00946045,0.0088501,1.02423,0.15213,0.15213,0.30426,1.51071e+09
-0.0106201,0.0117798,1.02728,-0,0.15213,0.15213,1.51071e+09
-0.00927734,0.0100098,1.02106,0.15213,0.15213,-0,1.51071e+09
-0.00927734,0.0100098,1.02106,0.15213,0.15213,-0,1.51071e+09
-0.00598145,0.0159912,1.02441,0.45639,0.30426,-0,1.51071e+09
-0.00671387,0.0137329,1.02057,0.30426,0.15213,0.15213,1.51071e+09
-0.00671387,0.0137329,1.02057,0.30426,0.15213,0.15213,1.51071e+09
-0.00396729,0.0106201,1.01813,0.15213,0.15213,-0.15213,1.51071e+09
-0.00683594,0.0107422,1.01923,0.30426,0.45639,0.15213,1.51071e+09
-0.00683594,0.0107422,1.01923,0.30426,0.45639,0.15213,1.51071e+09
-0.0057373,0.00927734,1.02063,-0.15213,-0.15213,-0,1.51071e+09
-0.00646973,0.00909424,1.02136,-0,-0.15213,0.30426,1.51071e+09
-0.00646973,0.00909424,1.02136,-0,-0.15213,0.30426,1.51071e+09
-0.00836182,0.00952148,1.01868,-0,-0.15213,0.15213,1.51071e+09
-0.00762939,0.00775146,1.01642,0.15213,0.30426,-0,1.51071e+09
-0.00762939,0.00775146,1.01642,0.15213,0.30426,-0,1.51071e+09
-0.00695801,0.0106812,1.0174,-0,-0,0.15213,1.51071e+09
-0.00482178,0.0122681,1.02002,-0,0.30426,0.15213,1.51071e+09
-0.00482178,0.0122681,1.02002,-0,0.30426,0.15213,1.51071e+09
-0.00830078,0.0109253,1.01904,0.45639,0.30426,0.15213,1.51071e+09
-0.00775146,0.00946045,1.01758,-0,-0,0.30426,1.51071e+09
-0.00775146,0.00946045,1.01758,-0,-0,0.30426,1.51071e+09
-0.00805664,0.0114746,1.02136,0.15213,0.45639,-0,1.51071e+09
-0.00933838,0.00836182,1.02094,-0.15213,0.15213,0.30426,1.51071e+09
-0.00933838,0.00836182,1.02094,-0.15213,0.15213,0.30426,1.51071e+09
-0.00823975,0.0132446,1.01984,0.15213,0.15213,-0,1.51071e+09
-0.0055542,0.0126343,1.01727,0.15213,0.30426,0.15213,1.51071e+09
-0.0055542,0.0126343,1.01727,0.15213,0.30426,0.15213,1.51071e+09
-0.00445557,0.00866699,1.02209,0.30426,0.15213,0.15213,1.51071e+09
-0.00537109,0.0103149,1.01727,-0,-0.15213,-0,1.51071e+09
-0.00537109,0.0103149,1.01727,-0,-0.15213,-0,1.51071e+09
-0.00427246,0.00946045,1.01648,-0.15213,-0,0.15213,1.51071e+09
-0.00897217,0.00866699,1.02124,-0,-0,-0,1.51071e+09
-0.00897217,0.00866699,1.02124,-0,-0,-0,1.51071e+09
-0.0100098,0.0135498,1.01996,-0.15213,0.45639,-0,1.51071e+09
-0.00787354,0.0126343,1.01801,0.30426,0.30426,0.15213,1.51071e+09
-0.00787354,0.0126343,1.01801,0.30426,0.30426,0.15213,1.51071e+09
-0.00921631,0.0125732,1.02026,0.15213,0.15213,0.30426,1.51071e+09
-0.0101318,0.0105591,1.01984,-0,-0,-0,1.51071e+09
-0.0101318,0.0105591,1.01984,-0,-0,-0,1.51071e+09
-0.00750732,0.012085,1.01715,-0,0.30426,0.15213,1.51071e+09
-0.00604248,0.012207,1.02429,-0,0.30426,-0.30426,1.51071e+09
-0.00604248,0.012207,1.02429,-0,0.30426,-0.30426,1.51071e+09
-0.00604248,0.00946045,1.01331,0.15213,0.15213,0.15213,1.51071e+09
-0.00665283,0.0118408,1.02197,-0,0.30426,-0.15213,1.51071e+09
-0.00665283,0.0118408,1.02197,-0,0.30426,-0.15213,1.51071e+09
-0.00744629,0.00927734,1.01715,0.30426,0.15213,0.15213,1.51071e+09
-0.0105591,0.0131836,1.01569,0.15213,0.15213,-0.15213,1.51071e+09
-0.0105591,0.0131836,1.01569,0.15213,0.15213,-0.15213,1.51071e+09
-0.00817871,0.0145874,1.01965,0.15213,0.15213,0.30426,1.51071e+09
-0.00970459,0.0125732,1.01837,-0,0.30426,0.15213,1.51071e+09
-0.00970459,0.0125732,1.01837,-0,0.30426,0.15213,1.51071e+09
-0.00695801,0.0106201,1.02118,-0,-0,-0,1.51071e+09
-0.00720215,0.00811768,1.01813,-0,0.30426,-0,1.51071e+09
-0.00720215,0.00811768,1.01813,-0,0.30426,-0,1.51071e+09
-0.00799561,0.0088501,1.01788,0.30426,0.608521,0.15213,1.51071e+09
-0.00592041,0.00952148,1.01959,-0,-0,-0,1.51071e+09
-0.00592041,0.00952148,1.01959,-0,-0,-0,1.51071e+09
-0.00830078,0.0150757,1.02161,-0,-0,-0,1.51071e+09
-0.00439453,0.00909424,1.01819,0.15213,0.15213,-0,1.51071e+09
-0.00439453,0.00909424,1.01819,0.15213,0.15213,-0,1.51071e+09
-0.00671387,0.0145264,1.02008,0.15213,0.15213,0.15213,1.51071e+09
-0.0112915,0.0145874,1.01874,-0.15213,-0,-0,1.51071e+09
-0.0112915,0.0145874,1.01874,-0.15213,-0,-0,1.51071e+09
-0.0078125,0.010437,1.02209,-0.15213,-0,-0,1.51071e+09
-0.00976562,0.0124512,1.01672,-0.30426,-0,-0,1.51071e+09
-0.00976562,0.0124512,1.01672,-0.30426,-0,-0,1.51071e+09
-0.00756836,0.0131836,1.0174,0.30426,0.15213,-0,1.51071e+09
-0.00726318,0.0126343,1.01501,-0.30426,-0,0.15213,1.51071e+09
-0.00726318,0.0126343,1.01501,-0.30426,-0,0.15213,1.51071e+09
-0.00634766,0.0107422,1.02057,-0,-0.15213,-0,1.51071e+09
-0.0067749,0.0123901,1.02289,0.15213,0.15213,0.15213,1.51071e+09
-0.0067749,0.0123901,1.02289,0.15213,0.15213,0.15213,1.51071e+09
-0.00823975,0.00793457,1.01501,0.15213,0.30426,0.15213,1.51071e+09
-0.00982666,0.0102539,1.01978,-0.30426,-0,0.15213,1.51071e+09
-0.00982666,0.0102539,1.01978,-0.30426,-0,0.15213,1.51071e+09
-0.00531006,0.00921631,1.01819,-0,-0,0.15213,1.51071e+09
-0.00610352,0.0101318,1.01801,0.30426,0.45639,0.30426,1.51071e+09
-0.00610352,0.0101318,1.01801,0.30426,0.45639,0.30426,1.51071e+09
-0.00946045,0.0117798,1.0191,0.15213,0.15213,-0,1.51071e+09
-0.00799561,0.0152588,1.01373,-0,-0,0.15213,1.51071e+09
-0.00799561,0.0152588,1.01373,-0,-0,0.15213,1.51071e+09
-0.0103149,0.00994873,1.0224,0.15213,-0,-0,1.51071e+09
-0.00830078,0.0106201,1.02179,0.15213,0.608521,-0.15213,1.51071e+09
-0.00830078,0.0106201,1.02179,0.15213,0.608521,-0.15213,1.51071e+09
-0.00866699,0.0130615,1.01154,0.30426,0.30426,0.30426,1.51071e+09
-0.00500488,0.0115356,1.02368,0.15213,0.15213,-0,1.51071e+09
-0.00500488,0.0115356,1.02368,0.15213,0.15213,-0,1.51071e+09
-0.00439453,0.0119019,1.01855,0.15213,0.15213,0.15213,1.51071e+09
-0.00860596,0.0105591,1.01685,0.15213,0.15213,-0,1.51071e+09
-0.00860596,0.0105591,1.01685,0.15213,0.15213,-0,1.51071e+09
-0.0118408,0.00946045,1.02148,-0,0.15213,-0,1.51071e+09
-0.00720215,0.0100708,1.01501,0.15213,0.30426,0.15213,1.51071e+09
-0.00720215,0.0100708,1.01501,0.15213,0.30426,0.15213,1.51071e+09
-0.00488281,0.0125732,1.02606,-0,-0.15213,-0,1.51071e+09
-0.0067749,0.0126343,1.02332,0.15213,0.15213,0.45639,1.51071e+09
-0.0067749,0.0126343,1.02332,0.15213,0.15213,0.45639,1.51071e+09
-0.00463867,0.0152588,1.02094,-0,-0.15213,-0.15213,1.51071e+09
-0.00616455,0.0100708,1.02301,0.15213,-0,0.15213,1.51071e+09
-0.00616455,0.0100708,1.02301,0.15213,-0,0.15213,1.51071e+09
-0.00854492,0.0109253,1.02051,-0,-0,0.45639,1.51071e+09
-0.00787354,0.010376,1.01727,-0.15213,0.45639,-0,1.51071e+09
-0.00787354,0.010376,1.01727,-0.15213,0.45639,-0,1.51071e+09
-0.0045166,0.0119019,1.02161,-0.30426,-0,0.15213,1.51071e+09
-0.00402832,0.0117798,1.0202,-0.30426,-0.15213,0.15213,1.51071e+09
-0.00402832,0.0117798,1.0202,-0.30426,-0.15213,0.15213,1.51071e+09
-0.00897217,0.013855,1.0199,-0,-0,-0.15213,1.51071e+09
-0.00646973,0.012146,1.01886,0.15213,0.15213,0.15213,1.51071e+09
-0.00646973,0.012146,1.01886,0.15213,0.15213,0.15213,1.51071e+09
-0.0055542,0.0100098,1.01453,0.15213,0.45639,-0,1.51071e+09
-0.00726318,0.00921631,1.01257,0.15213,0.15213,0.15213,1.51071e+09
-0.00726318,0.00921631,1.01257,0.15213,0.15213,0.15213,1.51071e+09
-0.00976562,0.00787354,1.01898,-0.15213,-0,0.15213,1.51071e+09
-0.0065918,0.0088501,1.01953,0.15213,0.608521,0.15213,1.51071e+09
-0.0065918,0.0088501,1.01953,0.15213,0.608521,0.15213,1.51071e+09
-0.0045166,0.0117188,1.02087,-0.15213,-0.15213,0.15213,1.51071e+09
-0.00640869,0.012085,1.01691,0.15213,0.15213,-0,1.51071e+09
-0.00640869,0.012085,1.01691,0.15213,0.15213,-0,1.51071e+09
-0.00921631,0.00994873,1.01794,0.15213,0.45639,-0,1.51071e+09
-0.0108643,0.0067749,1.0152,0.15213,0.15213,0.15213,1.51071e+09
-0.0108643,0.0067749,1.0152,0.15213,0.15213,0.15213,1.51071e+09
-0.00634766,0.0109863,1.01312,-0,-0,0.15213,1.51071e+09
-0.000976562,0.012146,1.01422,0.30426,-0,-0,1.51071e+09
-0.000976562,0.012146,1.01422,0.30426,-0,-0,1.51071e+09
-0.00799561,0.0149536,1.02411,-0.15213,-0,-0,1.51071e+09
-0.00921631,0.0133667,1.01898,-0,-0,-0,1.51071e+09
-0.00921631,0.0133667,1.01898,-0,-0,-0,1.51071e+09
-0.00854492,0.0112915,1.01996,-0,0.15213,-0,1.51071e+09
-0.0067749,0.010498,1.02917,-0,-0.15213,0.15213,1.51071e+09
-0.0067749,0.010498,1.02917,-0,-0.15213,0.15213,1.51071e+09
-0.00622559,0.00927734,1.01617,0.30426,0.15213,-0,1.51071e+09
-0.00640869,0.00964355,1.02332,0.15213,0.15213,0.15213,1.51071e+09
-0.00640869,0.00964355,1.02332,0.15213,0.15213,0.15213,1.51071e+09
-0.00537109,0.0100098,1.01746,0.15213,0.45639,0.15213,1.51071e+09
-0.00939941,0.0128784,1.01874,-0,-0,0.15213,1.51071e+09
-0.00939941,0.0128784,1.01874,-0,-0,0.15213,1.51071e+09
-0.00817871,0.0124512,1.01862,-0,-0,0.15213,1.51071e+09
-0.00946045,0.0111084,1.021,0.15213,0.30426,0.30426,1.51071e+09
-0.00946045,0.0111084,1.021,0.15213,0.30426,0.30426,1.51071e+09
-0.00921631,0.0111084,1.02075,0.30426,0.15213,0.15213,1.51071e+09
-0.00799561,0.0111694,1.01709,-0.15213,0.15213,0.15213,1.51071e+09
-0.00799561,0.0111694,1.01709,-0.15213,0.15213,0.15213,1.51071e+09
-0.00775146,0.0110474,1.01453,-0,0.15213,-0,1.51071e+09
-0.00341797,0.0111084,1.021,0.15213,0.15213,0.30426,1.51071e+09
-0.00341797,0.0111084,1.021,0.15213,0.15213,0.30426,1.51071e+09
-0.0043335,0.0125122,1.01831,0.15213,0.15213,0.45639,1.51071e+09
-0.00280762,0.0112305,1.01984,-0,0.15213,-0,1.51071e+09
-0.00280762,0.0112305,1.01984,-0,0.15213,-0,1.51071e+09
-0.00500488,0.0154419,1.0163,0.45639,0.15213,-0.15213,1.51071e+09
-0.00695801,0.0114746,1.0235,0.30426,0.15213,0.15213,1.51071e+09
-0.00695801,0.0114746,1.0235,0.30426,0.15213,0.15213,1.51071e+09
-0.00769043,0.0118408,1.02313,-0,-0,-0.30426,1.51071e+09
-0.0088501,0.00952148,1.0174,-0.30426,-0,-0,1.51071e+09
-0.0088501,0.00952148,1.0174,-0.30426,-0,-0,1.51071e+09
-0.010437,0.0117798,1.01813,0.15213,0.15213,-0,1.51071e+09
-0.00817871,0.0118408,1.01746,0.30426,0.15213,0.15213,1.51071e+09
-0.00817871,0.0118408,1.01746,0.30426,0.15213,0.15213,1.51071e+09
-0.00756836,0.0109253,1.01843,0.15213,0.15213,-0,1.51071e+09
-0.00683594,0.0117188,1.02179,0.45639,0.45639,0.15213,1.51071e+09
-0.00683594,0.0117188,1.02179,0.45639,0.45639,0.15213,1.51071e+09
-0.00653076,0.00756836,1.01807,0.15213,0.30426,0.15213,1.51071e+09
-0.00854492,0.00939941,1.02045,-0.15213,-0,-0,1.51071e+09
-0.00854492,0.00939941,1.02045,-0.15213,-0,-0,1.51071e+09
-0.00640869,0.010376,1.01904,-0,-0,0.15213,1.51071e+09
-0.00561523,0.0120239,1.01782,0.15213,0.15213,-0,1.51071e+09
-0.00561523,0.0120239,1.01782,0.15213,0.15213,-0,1.51071e+09
-0.00531006,0.0139771,1.02161,0.15213,0.30426,-0,1.51071e+09
-0.0057373,0.0141602,1.02069,0.15213,0.30426,-0,1.51071e+09
-0.0057373,0.0141602,1.02069,0.15213,0.30426,-0,1.51071e+09
-0.00799561,0.0135498,1.01611,-0.15213,-0,0.15213,1.51071e+09
-0.0045166,0.0115967,1.02679,-0,-0.30426,-0,1.51071e+09
-0.0045166,0.0115967,1.02679,-0,-0.30426,-0,1.51071e+09
-0.00585938,0.0146484,1.01855,-0,-0,0.30426,1.51071e+09
-0.00958252,0.0124512,1.02679,-0.15213,-0.15213,0.15213,1.51071e+09
-0.00958252,0.0124512,1.02679,-0.15213,-0.15213,0.15213,1.51071e+09
-0.00567627,0.00933838,1.0166,-0.30426,-0,-0,1.51071e+09
-0.00793457,0.00933838,1.02063,-0,-0,0.30426,1.51071e+09
-0.00793457,0.00933838,1.02063,-0,-0,0.30426,1.51071e+09
-0.00646973,0.0109863,1.02277,-0,0.15213,-0,1.51071e+09
-0.00622559,0.0114746,1.01715,0.15213,-0,0.30426,1.51071e+09
-0.00622559,0.0114746,1.01715,0.15213,-0,0.30426,1.51071e+09
-0.00860596,0.0114746,1.01508,0.15213,0.15213,0.15213,1.51071e+09
-0.0114136,0.0126953,1.02014,0.30426,0.15213,-0.15213,1.51071e+09
-0.0114136,0.0126953,1.02014,0.30426,0.15213,-0.15213,1.51071e+09
-0.00952148,0.0109253,1.01697,0.15213,0.15213,0.15213,1.51071e+09
-0.00646973,0.0115967,1.01764,0.15213,0.45639,0.15213,1.51071e+09
-0.00646973,0.0115967,1.01764,0.15213,0.45639,0.15213,1.51071e+09
-0.00891113,0.0145874,1.01422,-0.15213,-0.30426,-0,1.51071e+09
-0.00592041,0.0132446,1.01489,-0.15213,0.15213,0.15213,1.51071e+09
-0.00592041,0.0132446,1.01489,-0.15213,0.15213,0.15213,1.51071e+09
-0.00842285,0.0108032,1.0213,0.15213,0.45639,0.15213,1.51071e+09
-0.00750732,0.0112305,1.01666,-0,-0.15213,0.15213,1.51071e+09
-0.00750732,0.0112305,1.01666,-0,-0.15213,0.15213,1.51071e+09
-0.00646973,0.0102539,1.01691,0.15213,0.45639,0.15213,1.51071e+09
-0.00500488,0.0115356,1.01898,-0,0.15213,0.15213,1.51071e+09
-0.00500488,0.0115356,1.01898,-0,0.15213,0.15213,1.51071e+09
-0.00799561,0.0117798,1.02356,-0.15213,-0,-0.15213,1.51071e+09
-0.00701904,0.0113525,1.01709,0.30426,0.45639,0.15213,1.51071e+09
-0.00701904,0.0113525,1.01709,0.30426,0.45639,0.15213,1.51071e+09
-0.00616455,0.0148926,1.02075,-0,-0,-0,1.51071e+09
-0.00604248,0.0137939,1.01611,-0,-0,0.15213,1.51071e+09
-0.00604248,0.0137939,1.01611,-0,-0,0.15213,1.51071e+09
-0.00543213,0.0109253,1.0213,-0.15213,0.30426,0.30426,1.51071e+09
-0.00756836,0.0111694,1.01849,0.30426,0.30426,-0,1.51071e+09
-0.00756836,0.0111694,1.01849,0.30426,0.30426,-0,1.51071e+09
-0.00927734,0.00921631,1.02057,0.15213,0.15213,0.15213,1.51071e+09
-0.00610352,0.0090332,1.01733,-0,0.30426,0.30426,1.51071e+09
-0.00610352,0.0090332,1.01733,-0,0.30426,0.30426,1.51071e+09
-0.00671387,0.0129395,1.01923,0.15213,0.45639,-0.15213,1.51071e+09
-0.00836182,0.0139771,1.01831,0.15213,0.45639,-0,1.51071e+09
-0.00836182,0.0139771,1.01831,0.15213,0.45639,-0,1.51071e+09
-0.00671387,0.0126343,1.02063,-0.15213,-0,-0,1.51071e+09
-0.00604248,0.0098877,1.01495,-0,-0,0.15213,1.51071e+09
-0.00604248,0.0098877,1.01495,-0,-0,0.15213,1.51071e+09
-0.00634766,0.0134888,1.01971,-0,-0.15213,0.15213,1.51071e+09
-0.00494385,0.0124512,1.02045,0.15213,0.15213,0.15213,1.51071e+09
-0.00494385,0.0124512,1.02045,0.15213,0.15213,0.15213,1.51071e+09
-0.0055542,0.0122681,1.02539,0.15213,0.30426,-0,1.51071e+09
-0.0078125,0.012146,1.01501,-0.15213,-0,0.30426,1.51071e+09
-0.0078125,0.012146,1.01501,-0.15213,-0,0.30426,1.51071e+09
-0.0090332,0.00848389,1.01636,0.15213,0.15213,-0.15213,1.51071e+09
-0.00646973,0.0098877,1.01837,0.15213,0.15213,0.15213,1.51071e+09
-0.00646973,0.0098877,1.01837,0.15213,0.15213,0.15213,1.51071e+09
-0.00592041,0.00714111,1.01678,-0,0.15213,0.30426,1.51071e+09
-0.0090332,0.00640869,1.01794,-0.15213,0.15213,-0.15213,1.51071e+09
-0.0090332,0.00640869,1.01794,-0.15213,0.15213,-0.15213,1.51071e+09
-0.00714111,0.0126953,1.02234,0.30426,0.30426,0.15213,1.51071e+09
-0.0090332,0.00909424,1.02362,-0,-0,-0,1.51071e+09
-0.0090332,0.00909424,1.02362,-0,-0,-0,1.51071e+09
-0.00866699,0.0148926,1.02228,0.15213,0.45639,0.30426,1.51071e+09
-0.00543213,0.0145264,1.01776,0.15213,0.30426,0.15213,1.51071e+09
-0.00543213,0.0145264,1.01776,0.15213,0.30426,0.15213,1.51071e+09
-0.00640869,0.0134277,1.01819,0.15213,0.15213,0.30426,1.51071e+09
-0.0090332,0.013916,1.02588,0.15213,0.15213,0.15213,1.51071e+09
-0.0090332,0.013916,1.02588,0.15213,0.15213,0.15213,1.51071e+09
-0.00561523,0.0136108,1.01959,-0,-0,-0,1.51071e+09
-0.00811768,0.012085,1.02252,0.15213,0.15213,-0,1.51071e+09
-0.00811768,0.012085,1.02252,0.15213,0.15213,-0,1.51071e+09
-0.00469971,0.012146,1.02008,-0,-0.30426,-0.15213,1.51071e+09
-0.00732422,0.00921631,1.01849,0.15213,0.608521,-0,1.51071e+09
-0.00732422,0.00921631,1.01849,0.15213,0.608521,-0,1.51071e+09
-0.00799561,0.012207,1.01788,-0,-0.15213,-0,1.51071e+09
-0.00726318,0.0109253,1.0177,-0,-0,0.15213,1.51071e+09
-0.00726318,0.0109253,1.0177,-0,-0,0.15213,1.51071e+09
-0.00708008,0.00933838,1.02271,0.30426,0.30426,-0.15213,1.51071e+09
-0.00830078,0.0108032,1.01538,-0.15213,-0.15213,0.15213,1.51071e+09
-0.00830078,0.0108032,1.01538,-0.15213,-0.15213,0.15213,1.51071e+09
-0.00463867,0.0143433,1.01837,-0,0.15213,-0,1.51071e+09
-0.0100708,0.0137939,1.01685,-0,0.15213,-0.15213,1.51071e+09
-0.0100708,0.0137939,1.01685,-0,0.15213,-0.15213,1.51071e+09
-0.00946045,0.0139771,1.01709,0.15213,0.15213,0.30426,1.51071e+09
0.00128174,0.0196533,1.02502,0.30426,0.15213,-0.15213,1.51071e+09
0.00128174,0.0196533,1.02502,0.30426,0.15213,-0.15213,1.51071e+09
-0.00842285,0.0129395,1.01801,0.30426,0.15213,0.30426,1.51071e+09
-0.00720215,0.0106201,1.01758,0.15213,0.45639,-0,1.51071e+09
-0.00720215,0.0106201,1.01758,0.15213,0.45639,-0,1.51071e+09
-0.0067749,0.00964355,1.02069,-0,-0.15213,-0.15213,1.51071e+09
-0.00811768,0.00946045,1.01465,0.15213,0.15213,0.15213,1.51071e+09
-0.00811768,0.00946045,1.01465,0.15213,0.15213,0.15213,1.51071e+09
-0.00506592,0.0105591,1.02112,0.15213,0.45639,0.15213,1.51071e+09
-0.00921631,0.013855,1.01825,0.30426,0.15213,0.15213,1.51071e+09
-0.00921631,0.013855,1.01825,0.30426,0.15213,0.15213,1.51071e+09
-0.00512695,0.0129395,1.01886,-0,-0.15213,0.15213,1.51071e+09
-0.00646973,0.0141602,1.01831,0.15213,0.45639,-0,1.51071e+09
-0.00646973,0.0141602,1.01831,0.15213,0.45639,-0,1.51071e+09
-0.00549316,0.0135498,1.01776,0.15213,0.15213,-0,1.51071e+09
-0.00665283,0.0110474,1.02307,0.15213,0.15213,-0.15213,1.51071e+09
-0.00665283,0.0110474,1.02307,0.15213,0.15213,-0.15213,1.51071e+09
-0.0088501,0.0126953,1.0238,-0,-0.15213,0.15213,1.51071e+09
-0.0111084,0.00860596,1.01843,0.15213,0.30426,-0,1.51071e+09
-0.0111084,0.00860596,1.01843,0.15213,0.30426,-0,1.51071e+09
-0.00756836,0.00878906,1.02234,-0,-0,0.30426,1.51071e+09
-0.00921631,0.00994873,1.01947,-0,-0,-0,1.51071e+09
-0.00921631,0.00994873,1.01947,-0,-0,-0,1.51071e+09
-0.00762939,0.010437,1.021,0.15213,0.15213,0.15213,1.51071e+09
-0.00592041,0.00994873,1.02136,-0,-0,0.30426,1.51071e+09
-0.00592041,0.00994873,1.02136,-0,-0,0.30426,1.51071e+09
-0.00708008,0.00848389,1.01758,-0,0.30426,-0.45639,1.51071e+09
-0.00500488,0.0102539,1.02008,-0.15213,-0.15213,0.15213,1.51071e+09
-0.00500488,0.0102539,1.02008,-0.15213,-0.15213,0.15213,1.51071e+09
-0.00769043,0.0109863,1.02289,0.15213,0.15213,0.15213,1.51071e+09
-0.00500488,0.0117188,1.01868,0.15213,0.15213,0.15213,1.51071e+09
-0.00500488,0.0117188,1.01868,0.15213,0.15213,0.15213,1.51071e+09
-0.00323486,0.0146484,1.01685,-0,-0.15213,0.15213,1.51071e+09
-0.00335693,0.012207,1.0152,-0.15213,-0,0.15213,1.51071e+09
-0.00335693,0.012207,1.0152,-0.15213,-0,0.15213,1.51071e+09
-0.0057373,0.0112915,1.02203,0.15213,0.15213,-0.15213,1.51071e+09
-0.00665283,0.00958252,1.01996,0.30426,0.30426,0.15213,1.51071e+09
-0.00665283,0.00958252,1.01996,0.30426,0.30426,0.15213,1.51071e+09
-0.0065918,0.00756836,1.01868,0.15213,0.45639,0.30426,1.51071e+09
-0.00744629,0.00769043,1.01764,-0,-0,-0,1.51071e+09
-0.00744629,0.00769043,1.01764,-0,-0,-0,1.51071e+09
-0.00823975,0.0117798,1.01849,0.15213,0.15213,-0,1.51071e+09
-0.00689697,0.0128784,1.0249,0.15213,0.15213,-0,1.51071e+09
-0.00689697,0.0128784,1.0249,0.15213,0.15213,-0,1.51071e+09
-0.00799561,0.0139771,1.01581,-0,-0,0.15213,1.51071e+09
-0.00598145,0.0137329,1.01855,0.15213,0.45639,-0,1.51071e+09
-0.00598145,0.0137329,1.01855,0.15213,0.45639,-0,1.51071e+09
-0.00476074,0.0115967,1.01489,0.15213,0.30426,0.15213,1.51071e+09
-0.00506592,0.0155029,1.01929,0.15213,0.45639,-0,1.51071e+09
-0.00506592,0.0155029,1.01929,0.15213,0.45639,-0,1.51071e+09
-0.00561523,0.0147095,1.02289,0.15213,0.15213,0.15213,1.51071e+09
-0.00683594,0.0151367,1.01263,0.15213,0.45639,0.15213,1.51071e+09
-0.00683594,0.0151367,1.01263,0.15213,0.45639,0.15213,1.51071e+09
-0.00317383,0.0141602,1.01935,-0.15213,-0.15213,-0.15213,1.51071e+09
-0.00817871,0.012207,1.01984,-0,-0.30426,-0,1.51071e+09
-0.00817871,0.012207,1.01984,-0,-0.30426,-0,1.51071e+09
-0.0088501,0.00836182,1.01746,-0,-0.15213,-0.15213,1.51071e+09
-0.00946045,0.00933838,1.02002,0.15213,0.15213,-0,1.51071e+09
-0.00946045,0.00933838,1.02002,0.15213,0.15213,-0,1.51071e+09
-0.00848389,0.010437,1.0199,0.30426,0.45639,-0,1.51071e+09
-0.0105591,0.0123291,1.02124,0.30426,0.30426,-0,1.51071e+09
-0.0105591,0.0123291,1.02124,0.30426,0.30426,-0,1.51071e+09
-0.00598145,0.0123291,1.01501,-0,-0,0.15213,1.51071e+09
-0.00457764,0.013916,1.01624,0.15213,0.15213,-0.15213,1.51071e+09
-0.00457764,0.013916,1.01624,0.15213,0.15213,-0.15213,1.51071e+09
-0.00537109,0.0125122,1.01807,0.15213,0.15213,0.30426,1.51071e+09
-0.00463867,0.0125732,1.01794,-0.15213,-0.30426,-0,1.51071e+09
-0.00463867,0.0125732,1.01794,-0.15213,-0.30426,-0,1.51071e+09
-0.00744629,0.00958252,1.01538,0.30426,0.45639,-0,1.51071e+09
-0.00769043,0.0101929,1.01953,0.15213,0.45639,0.15213,1.51071e+09
-0.00769043,0.0101929,1.01953,0.15213,0.45639,0.15213,1.51071e+09
-0.00823975,0.0111694,1.01617,0.30426,0.30426,0.30426,1.51071e+09
-0.0043335,0.0113525,1.021,0.15213,0.30426,0.15213,1.51071e+09
-0.0043335,0.0113525,1.021,0.15213,0.30426,0.15213,1.51071e+09
-0.0067749,0.0102539,1.01495,-0,0.15213,-0,1.51071e+09
-0.00964355,0.0088501,1.01733,0.15213,0.15213,-0,1.51071e+09
-0.00964355,0.0088501,1.01733,0.15213,0.15213,-0,1.51071e+09
-0.0122681,0.010376,1.02032,-0,-0.15213,0.15213,1.51071e+09
-0.00823975,0.0111084,1.01398,0.15213,0.45639,0.15213,1.51071e+09
-0.00823975,0.0111084,1.01398,0.15213,0.45639,0.15213,1.51071e+09
-0.00775146,0.0130615,1.02191,-0,-0,-0.15213,1.51071e+09
-0.00317383,0.0140991,1.01733,-0,-0.15213,-0,1.51071e+09
-0.00317383,0.0140991,1.01733,-0,-0.15213,-0,1.51071e+09
-0.00335693,0.0143433,1.02014,0.30426,0.45639,-0,1.51071e+09
-0.00732422,0.0105591,1.01825,0.15213,0.15213,0.15213,1.51071e+09
-0.00732422,0.0105591,1.01825,0.15213,0.15213,0.15213,1.51071e+09
-0.00579834,0.0129395,1.01801,-0,0.15213,-0,1.51071e+09
-0.00531006,0.0108643,1.01886,0.15213,0.15213,-0,1.51071e+09
-0.00531006,0.0108643,1.01886,0.15213,0.15213,-0,1.51071e+09
-0.00683594,0.0133667,1.01526,0.15213,0.30426,-0,1.51071e+09
-0.00830078,0.0133057,1.02271,-0,-0.15213,0.15213,1.51071e+09
-0.00830078,0.0133057,1.02271,-0,-0.15213,0.15213,1.51071e+09
-0.00939941,0.0110474,1.02539,-0.15213,-0,-0,1.51071e+09
-0.00915527,0.0109253,1.02039,0.15213,0.15213,-0.15213,1.51071e+09
-0.00915527,0.0109253,1.02039,0.15213,0.15213,-0.15213,1.51071e+09
-0.00878906,0.00994873,1.01971,-0,-0,-0,1.51071e+09
-0.00775146,0.0090332,1.02032,0.15213,0.30426,0.30426,1.51071e+09
-0.00775146,0.0090332,1.02032,0.15213,0.30426,0.30426,1.51071e+09
-0.00579834,0.0111694,1.01855,-0.15213,-0.15213,-0.15213,1.51071e+09
-0.0065918,0.0115967,1.01648,0.15213,0.15213,-0,1.51071e+09
-0.0065918,0.0115967,1.01648,0.15213,0.15213,-0,1.51071e+09
-0.00799561,0.0137329,1.02283,-0,-0,0.15213,1.51071e+09
-0.00726318,0.0118408,1.0213,-0,-0.15213,-0,1.51071e+09
-0.00726318,0.0118408,1.0213,-0,-0.15213,-0,1.51071e+09
-0.00701904,0.012146,1.01569,0.30426,0.45639,-0,1.51071e+09
-0.0100098,0.0122681,1.02142,-0,0.15213,0.30426,1.51071e+09
-0.0100098,0.0122681,1.02142,-0,0.15213,0.30426,1.51071e+09
-0.00921631,0.012207,1.02319,-0.30426,-0.15213,-0.15213,1.51071e+09
-0.00787354,0.0123291,1.02228,-0.15213,-0,0.15213,1.51071e+09
-0.00787354,0.0123291,1.02228,-0.15213,-0,0.15213,1.51071e+09
-0.00726318,0.0114136,1.01819,0.15213,-0.15213,-0,1.51071e+09
-0.00634766,0.0119629,1.02057,0.15213,0.15213,0.30426,1.51071e+09
-0.00634766,0.0119629,1.02057,0.15213,0.15213,0.30426,1.51071e+09
-0.00732422,0.0101318,1.01825,0.15213,-0,-0,1.51071e+09
-0.00970459,0.010498,1.01691,-0,-0.15213,0.30426,1.51071e+09
-0.00970459,0.010498,1.01691,-0,-0.15213,0.30426,1.51071e+09
-0.00897217,0.0114746,1.01807,-0.15213,0.15213,0.30426,1.51071e+09
-0.00793457,0.0111694,1.01941,-0,-0,0.15213,1.51071e+09
-0.00793457,0.0111694,1.01941,-0,-0,0.15213,1.51071e+09
-0.00622559,0.00976562,1.02289,0.30426,0.608521,0.15213,1.51071e+09
-0.00543213,0.0115356,1.01642,0.15213,-0.30426,0.15213,1.51071e+09
-0.00543213,0.0115356,1.01642,0.15213,-0.30426,0.15213,1.51071e+09
-0.00793457,0.0090332,1.02081,0.30426,0.30426,0.15213,1.51071e+09
-0.0109253,0.00976562,1.01709,0.15213,0.15213,0.15213,1.51071e+09
-0.0109253,0.00976562,1.01709,0.15213,0.15213,0.15213,1.51071e+09
-0.00714111,0.0125732,1.01593,-0.30426,-0.15213,-0,1.51071e+09
-0.00561523,0.00836182,1.01819,0.15213,0.15213,-0,1.51071e+09
-0.00561523,0.00836182,1.01819,0.15213,0.15213,-0,1.51071e+09
-0.00653076,0.0155029,1.01984,0.15213,0.30426,0.15213,1.51071e+09
-0.00610352,0.0123901,1.01782,0.15213,0.30426,-0.15213,1.51071e+09
-0.00610352,0.0123901,1.01782,0.15213,0.30426,-0.15213,1.51071e+09
-0.00646973,0.0107422,1.01434,-0,-0,-0,1.51071e+09
0.00628662,-0.00140381,1.02448,-1.82556,-1.97769,0.15213,1.51071e+09
0.00628662,-0.00140381,1.02448,-1.82556,-1.97769,0.15213,1.51071e+09
0.0438843,-0.0336304,1.01642,0.15213,0.15213,2.58621,1.51071e+09
-0.0409546,0.0429688,1.02222,-0,-0.15213,10.1927,1.51071e+09
-0.0409546,0.0429688,1.02222,-0,-0.15213,10.1927,1.51071e+09
-0.00970459,0.0115967,1.01819,-0.30426,-0,0.912781,1.51071e+09
-0.00231934,0.00512695,1.02338,-0.608521,-0.15213,0.912781,1.51071e+09
-0.00231934,0.00512695,1.02338,-0.608521,-0.15213,0.912781,1.51071e+09
0.00268555,0.00518799,1.01697,-0.30426,-0.608521,3.19473,1.51071e+09
-0.00897217,0.0098877,1.02008,-0.912781,-0.912781,6.38947,1.51071e+09
-0.00897217,0.0098877,1.02008,-0.912781,-0.912781,6.38947,1.51071e+09
-0.00488281,0.00579834,1.02026,-1.21704,-1.06491,7.30225,1.51071e+09
 0.031189,-0.0585938,1.03223,-1.67343,-1.36917,0.30426,1.51071e+09
 0.031189,-0.0585938,1.03223,-1.67343,-1.36917,0.30426,1.51071e+09
0.0124512,-0.00109863,1.09222,-1.5213,-12.4747,-6.84586,1.51071e+09
0.0658569,0.0652466,1.17188,-0.608521,-36.5112,5.47668,1.51071e+09
0.0658569,0.0652466,1.17188,-0.608521,-36.5112,5.47668,1.51071e+09
0.0640259,0.0106201,1.23834,-0.608521,-83.8237,34.9899,1.51071e+09
0.0330811,-0.0438843,1.28571,-2.12982,-144.828,70.7405,1.51071e+09
0.0330811,-0.0438843,1.28571,-2.12982,-144.828,70.7405,1.51071e+09
0.0162354,-0.0507202,1.33972,-3.95538,-224.696,84.8886,1.51071e+09
-0.0532837,-0.100342,1.35144,-6.23734,-314.757,75.0002,1.51071e+09
-0.0532837,-0.100342,1.35144,-6.23734,-314.757,75.0002,1.51071e+09
-0.0687256,-0.0426025,1.38293,-9.12781,-422.009,72.1097,1.51071e+09
-0.0845947,0.0127563,1.3653,-12.9311,-537.324,71.1969,1.51071e+09
-0.0845947,0.0127563,1.3653,-12.9311,-537.324,71.1969,1.51071e+09
-0.00183105,0.0222168,1.2995,-25.1015,-639.859,92.7994,1.51071e+09
-0.124207,0.0043335,1.2326,-35.5984,-755.478,103.905,1.51071e+09
-0.124207,0.0043335,1.2326,-35.5984,-755.478,103.905,1.51071e+09
-0.159546,-0.0627441,0.994812,-47.1603,-848.886,107.708,1.51071e+09
-0.121094,-0.0132446,0.801636,-41.2273,-891.178,71.8054,1.51071e+09
-0.121094,-0.0132446,0.801636,-41.2273,-891.178,71.8054,1.51071e+09
-0.239136,-0.107361,0.719482,-38.6411,-899.089,52.0285,1.51071e+09
-0.318481,0.0237427,0.651978,-35.1421,-880.681,35.7506,1.51071e+09
-0.318481,0.0237427,0.651978,-35.1421,-880.681,35.7506,1.51071e+09
-0.369263,0.0698242,0.523254,-14.6045,-800.357,8.21503,1.51071e+09
-0.558472,0.142883,0.446045,17.3428,-684.89,-25.2536,1.51071e+09
-0.558472,0.142883,0.446045,17.3428,-684.89,-25.2536,1.51071e+09
-0.672058,0.0871582,0.370789,13.5396,-622.821,-18.712,1.51071e+09
-0.753479,0.081543,0.309937,1.21704,-559.535,-7.15012,1.51071e+09
-0.753479,0.081543,0.309937,1.21704,-559.535,-7.15012,1.51071e+09
-0.840576,0.03125,0.23291,-2.12982,-490.468,-3.80325,1.51071e+09
-0.896301,0.0196533,0.192261,-5.93307,-417.141,-1.06491,1.51071e+09
-0.896301,0.0196533,0.192261,-5.93307,-417.141,-1.06491,1.51071e+09
-0.934875,0.0457153,0.197266,-17.1907,-356.289,5.47668,1.51071e+09
-0.905884,0.0227661,0.337402,-48.2253,-336.968,19.6248,1.51071e+09
-0.905884,0.0227661,0.337402,-48.2253,-336.968,19.6248,1.51071e+09
-0.847229,-0.0267944,0.374512,-60.0914,-345.183,22.0589,1.51071e+09
-0.895813,-0.0043335,0.314148,-46.5518,-334.23,15.213,1.51071e+09
-0.895813,-0.0043335,0.314148,-46.5518,-334.23,15.213,1.51071e+09
-0.901001,0.0263062,0.251221,-38.4889,-318.408,10.9534,1.51071e+09
-0.925659,-0.00311279,0.267456,-47.921,-317.039,10.0406,1.51071e+09
-0.925659,-0.00311279,0.267456,-47.921,-317.039,10.0406,1.51071e+09
 -0.89032,0.0136719,0.317322,-42.7486,-323.277,8.21503,1.51071e+09
-0.917297,0.0230713,0.329102,-28.6005,-336.816,4.25964,1.51071e+09
-0.917297,0.0230713,0.329102,-28.6005,-336.816,4.25964,1.51071e+09
-0.916199,0.0358887,0.204956,-17.1907,-347.009,0.608521,1.51071e+09
-0.972412,-0.0194702,0.0908203,-9.12781,-345.335,-1.97769,1.51071e+09
-0.972412,-0.0194702,0.0908203,-9.12781,-345.335,-1.97769,1.51071e+09
-0.990479,0.0267944,-0.0194092,-0.608521,-314.149,-3.19473,1.51071e+09
 -1.02673,0.0320435,-0.123108,-0,-272.769,-2.43408,1.51071e+09
 -1.02673,0.0320435,-0.123108,-0,-272.769,-2.43408,1.51071e+09
 -1.02911,0.0186768,-0.0887451,-0.15213,-223.479,-1.82556,1.51071e+09
 -1.01044,0.0197754,-0.0604248,-0.30426,-191.075,-2.28195,1.51071e+09
 -1.01044,0.0197754,-0.0604248,-0.30426,-191.075,-2.28195,1.51071e+09
 -1.02277,0.0300903,-0.0796509,0.15213,-167.495,-1.67343,1.51071e+09
  -1.1319,0.00616455,-0.225464,7.15012,-128.854,-0.608521,1.51071e+09
  -1.1319,0.00616455,-0.225464,7.15012,-128.854,-0.608521,1.51071e+09
 -1.01672,0.0184937,-0.249451,20.2333,-54.1583,-0,1.51071e+09
 -1.02026,0.0319214,-0.238525,21.9067,9.5842,0.608521,1.51071e+09
 -1.02026,0.0319214,-0.238525,21.9067,9.5842,0.608521,1.51071e+09
  -1.0498,0.0570679,-0.225342,14.3002,65.1117,1.36917,1.51071e+09
 -1.02032,0.0576782,0.0978394,-0.912781,87.0184,0.45639,1.51071e+09
 -1.02032,0.0576782,0.0978394,-0.912781,87.0184,0.45639,1.51071e+09
-0.970215,0.0198975,0.148071,0.30426,58.5701,1.06491,1.51071e+09
-0.964905,0.020874,0.166992,0.30426,23.2759,0.15213,1.51071e+09
-0.964905,0.020874,0.166992,0.30426,23.2759,0.15213,1.51071e+09
-0.970764,0.00628662,0.0991211,0.760651,-5.02029,-0.15213,1.51071e+09
-0.977966,0.0219116,0.0804443,0.15213,-20.5376,0.30426,1.51071e+09
-0.977966,0.0219116,0.0804443,0.15213,-20.5376,0.30426,1.51071e+09
-0.989075,0.0197754,0.0496216,-0,-34.6857,-0.30426,1.51071e+09
 -1.01434,0.0283203,-0.027771,0.30426,-38.9453,-0.608521,1.51071e+09
 -1.01434,0.0283203,-0.027771,0.30426,-38.9453,-0.608521,1.51071e+09
 -1.02313,0.0265503,-0.0807495,0.760651,-22.3631,0.15213,1.51071e+09
 -1.00873,0.0259399,-0.0587769,0.30426,0.912781,0.30426,1.51071e+09
 -1.00873,0.0259399,-0.0587769,0.30426,0.912781,0.30426,1.51071e+09
 -1.00555,0.0237427,-0.0174561,-0,15.5173,0.30426,1.51071e+09
-0.994873,0.0205078,0.0342407,-0.15213,17.3428,0.45639,1.51071e+09
-0.994873,0.0205078,0.0342407,-0.15213,17.3428,0.45639,1.51071e+09
-0.990417,0.0248413,0.0513306,0.15213,11.2576,0.30426,1.51071e+09
-0.994995,0.0237427,0.036499,-0,2.12982,-0,1.51071e+09
-0.994995,0.0237427,0.036499,-0,2.12982,-0,1.51071e+09
-0.992981,0.0220337,0.0247803,-0,-3.49899,-0.15213,1.51071e+09
-0.998901,0.0233154,0.0144653,-0.15213,-5.47668,0.30426,1.51071e+09
-0.998901,0.0233154,0.0144653,-0.15213,-5.47668,0.30426,1.51071e+09
-0.998901,0.0233154,0.0144653,-0.15213,-5.47668,0.30426,1.51071e+09
-0.998901,0.0233154,0.0144653,-0.15213,-5.47668,0.30426,1.51071e+09
-0.998901,0.0233154,0.0144653,-0.15213,-5.47668,0.30426,1.51071e+09
-0.998901,0.0233154,0.0144653,-0.15213,-5.47668,0.30426,1.51071e+09
-0.998901,0.0233154,0.0144653,-0.15213,-5.47668,0.30426,1.51071e+09
-0.998901,0.0233154,0.0144653,-0.15213,-5.47668,0.30426,1.51071e+09
-0.999634,0.0222778,0.0136719,-0.15213,-4.10751,-0.15213,1.51071e+09
 -0.99884,0.0255127,0.00323486,-0,-1.82556,0.15213,1.51071e+09
 -0.99884,0.0255127,0.00323486,-0,-1.82556,0.15213,1.51071e+09
 -0.99939,0.0245972,0.00213623,-0,-0.760651,0.30426,1.51071e+09
 -0.99707,0.0251465,0.0090332,0.30426,0.45639,0.30426,1.51071e+09
 -0.99707,0.0251465,0.0090332,0.30426,0.45639,0.30426,1.51071e+09
-0.997559,0.0219727,0.0158081,-0,-0.15213,0.30426,1.51071e+09
-0.999451,0.0203857,0.0106201,0.15213,-1.82556,0.15213,1.51071e+09
-0.999451,0.0203857,0.0106201,0.15213,-1.82556,0.15213,1.51071e+09
-0.998352,0.0198975,0.0020752,-0.30426,-2.12982,0.30426,1.51071e+09
-0.999573,0.0222168,0.00805664,0.15213,-1.06491,-0,1.51071e+09
-0.999573,0.0222168,0.00805664,0.15213,-1.06491,-0,1.51071e+09
-0.998108,0.0233765,0.00982666,-0,-0.760651,0.15213,1.51071e+09
-0.997559,0.0253906,0.0106201,-0.15213,-1.21704,-0,1.51071e+09
-0.997559,0.0253906,0.0106201,-0.15213,-1.21704,-0,1.51071e+09
-0.997375,0.0261841,0.00726318,-0,-2.12982,-0,1.51071e+09
 -1.00024,0.0244141,0.00543213,-0,-1.06491,0.15213,1.51071e+09
 -1.00024,0.0244141,0.00543213,-0,-1.06491,0.15213,1.51071e+09
 -0.99884,0.0282593,0.00744629,-0,-0,0.45639,1.51071e+09
 -0.99939,0.0218506,0.0123291,-0,-0.608521,0.30426,1.51071e+09
 -0.99939,0.0218506,0.0123291,-0,-0.608521,0.30426,1.51071e+09
-0.996399,0.0223389,0.00946045,0.30426,-1.82556,0.30426,1.51071e+09
 -1.00018,0.0203857,0.00323486,-0,-1.5213,0.45639,1.51071e+09
 -1.00018,0.0203857,0.00323486,-0,-1.5213,0.45639,1.51071e+09
 -1.00171,0.0203247,0.00634766,-0.15213,-1.21704,0.15213,1.51071e+09
-0.996643,0.0223999,0.00689697,-0.15213,-1.21704,0.30426,1.51071e+09
-0.996643,0.0223999,0.00689697,-0.15213,-1.21704,0.30426,1.51071e+09
-0.998657,0.0220947,0.0108032,-0.15213,-2.12982,0.30426,1.51071e+09
-0.996094,0.0314941,0.00341797,-0,-1.82556,-0,1.51071e+09
-0.996094,0.0314941,0.00341797,-0,-1.82556,-0,1.51071e+09
-0.998291,0.0204468,-0.00219727,-0.15213,-1.97769,0.15213,1.51071e+09
 -1.00067,0.0254517,0.00616455,-0,-0.30426,0.45639,1.51071e+09
 -1.00067,0.0254517,0.00616455,-0,-0.30426,0.45639,1.51071e+09
-0.999451,0.0222168,0.00408936,0.30426,-0.45639,0.15213,1.51071e+09
-0.995178,0.0274658,0.00445557,-0,-0.45639,0.15213,1.51071e+09
-0.995178,0.0274658,0.00445557,-0,-0.45639,0.15213,1.51071e+09
 -1.00183,0.0270996,0.00482178,0.45639,0.912781,0.15213,1.51071e+09
-0.995544,0.0216675,0.00708008,-0,1.97769,-0,1.51071e+09
-0.995544,0.0216675,0.00708008,-0,1.97769,-0,1.51071e+09
-0.999512,0.020813,0.0143433,-0,2.43408,0.30426,1.51071e+09
-0.995728,0.0209351,0.0164795,0.30426,1.67343,-0,1.51071e+09
-0.995728,0.0209351,0.0164795,0.30426,1.67343,-0,1.51071e+09
-0.996399,0.0232544,0.0142212,-0.15213,0.15213,0.30426,1.51071e+09
 -1.00061,0.0230103,0.00909424,0.15213,-0.608521,-0,1.51071e+09
 -1.00061,0.0230103,0.00909424,0.15213,-0.608521,-0,1.51071e+09
-0.997742,0.0233154,0.00915527,-0,-0.912781,0.15213,1.51071e+09
-0.998413,0.0232544,0.0090332,-0,-0.912781,0.30426,1.51071e+09
-0.998413,0.0232544,0.0090332,-0,-0.912781,0.30426,1.51071e+09
 -1.00226,0.0250244,-0.000610352,-0.15213,-0.608521,0.15213,1.51071e+09
-0.999146,0.0250244,0.0020752,0.15213,0.760651,0.30426,1.51071e+09
-0.999146,0.0250244,0.0020752,0.15213,0.760651,0.30426,1.51071e+09
 -0.99646,0.0220947,0.0098877,0.30426,1.5213,0.15213,1.51071e+09
-0.998535,0.0222168,0.0169067,-0.15213,0.912781,0.15213,1.51071e+09
-0.998535,0.0222168,0.0169067,-0.15213,0.912781,0.15213,1.51071e+09
-0.995605,0.0241089,0.0178223,-0.15213,0.15213,-0,1.51071e+09
-0.999268,0.0238647,0.0115967,-0,-0.912781,0.15213,1.51071e+09
-0.999268,0.0238647,0.0115967,-0,-0.912781,0.15213,1.51071e+09
-0.996765,0.0244751,0.00878906,-0,-1.06491,0.30426,1.51071e+09
 -0.99707,0.0198975,0.0107422,-0.15213,-0.912781,-0,1.51071e+09
 -0.99707,0.0198975,0.0107422,-0.15213,-0.912781,-0,1.51071e+09
-0.997375,0.0253296,0.010498,-0,-1.06491,0.30426,1.51071e+09
-0.998596,0.0249634,0.00708008,-0.30426,-1.97769,-0.15213,1.51071e+09
-0.998596,0.0249634,0.00708008,-0.30426,-1.97769,-0.15213,1.51071e+09
-0.998718,0.0236816,0.00622559,-0.15213,-2.43408,0.15213,1.51071e+09
-0.999634,0.0224609,0.00250244,-0,-1.82556,-0,1.51071e+09
-0.999634,0.0224609,0.00250244,-0,-1.82556,-0,1.51071e+09
-0.997742,0.0219727,0.00616455,-0,-0.30426,0.30426,1.51071e+09
 -1.00195,0.0265503,0.00750732,0.15213,-0,0.15213,1.51071e+09
 -1.00195,0.0265503,0.00750732,0.15213,-0,0.15213,1.51071e+09
-0.998047,0.0187378,0.00762939,0.15213,0.760651,0.15213,1.51071e+09
 -0.99939,0.022583,0.00958252,0.15213,0.608521,0.15213,1.51071e+09
 -0.99939,0.022583,0.00958252,0.15213,0.608521,0.15213,1.51071e+09
-0.999207,0.0255127,0.00219727,-0,-0.30426,-0,1.51071e+09
-0.998474,0.0271606,0.00726318,-0,-0,0.15213,1.51071e+09
-0.998474,0.0271606,0.00726318,-0,-0,0.15213,1.51071e+09
-0.998535,0.0241089,0.0109863,0.15213,-0.30426,0.30426,1.51071e+09
-0.997742,0.0265503,0.00769043,-0.15213,-0.608521,0.30426,1.51071e+09
-0.997742,0.0265503,0.00769043,-0.15213,-0.608521,0.30426,1.51071e+09
-0.998474,0.0237427,0.0109863,-0.15213,-1.36917,-0.15213,1.51071e+09
 -1.00006,0.0229492,0.00323486,-0,-1.97769,0.15213,1.51071e+09
 -1.00006,0.0229492,0.00323486,-0,-1.97769,0.15213,1.51071e+09
 -1.00006,0.024292,0,-0.15213,-0.912781,0.15213,1.51071e+09
 -1.00275,0.024292,0.00012207,0.30426,0.912781,0.15213,1.51071e+09
 -1.00275,0.024292,0.00012207,0.30426,0.912781,0.15213,1.51071e+09
       -1,0.0223389,0.0107422,-0,1.82556,0.45639,1.51071e+09
-0.997253,0.0212402,0.00775146,-0.15213,1.97769,0.30426,1.51071e+09
-0.997253,0.0212402,0.00775146,-0.15213,1.97769,0.30426,1.51071e+09
-0.998474,0.0245361,0.0130005,-0.15213,1.36917,0.45639,1.51071e+09
-0.997559,0.0233765,0.0131226,-0.15213,-0,0.15213,1.51071e+09
-0.997559,0.0233765,0.0131226,-0.15213,-0,0.15213,1.51071e+09
-0.999756,0.0216675,0.00592041,-0,-1.06491,0.30426,1.51071e+09
-0.998657,0.0256958,0.00390625,-0,-0.912781,0.15213,1.51071e+09
-0.998657,0.0256958,0.00390625,-0,-0.912781,0.15213,1.51071e+09
 -1.00153,0.0236206,0.00415039,-0,0.30426,0.30426,1.51071e+09
-0.996643,0.0194092,0.00579834,0.15213,0.912781,0.30426,1.51071e+09
-0.996643,0.0194092,0.00579834,0.15213,0.912781,0.30426,1.51071e+09
-0.999329,0.0192261,0.0111694,-0.15213,1.21704,0.30426,1.51071e+09
-0.996887,0.0252075,0.0184326,-0,1.21704,-0,1.51071e+09
-0.996887,0.0252075,0.0184326,-0,1.21704,-0,1.51071e+09
 -0.99939,0.0258179,0.00738525,0.15213,0.15213,0.608521,1.51071e+09
 -1.00037,0.0211792,0.00262451,-0,-0.45639,0.30426,1.51071e+09
 -1.00037,0.0211792,0.00262451,-0,-0.45639,0.30426,1.51071e+09
 -1.00153,0.0227051,0.00366211,-0,-0.30426,-0,1.51071e+09
-0.997742,0.0249023,0.00720215,-0.15213,-0.608521,0.608521,1.51071e+09
-0.997742,0.0249023,0.00720215,-0.15213,-0.608521,0.608521,1.51071e+09
-0.999329,0.0253906,0.00170898,0.15213,0.15213,-0,1.51071e+09
 -0.99762,0.0245972,0.00634766,0.30426,-0,0.15213,1.51071e+09
 -0.99762,0.0245972,0.00634766,0.30426,-0,0.15213,1.51071e+09
-0.997314,0.024231,0.0020752,-0,1.06491,0.30426,1.51071e+09
 -1.00061,0.0250244,0.00994873,-0.30426,1.36917,0.30426,1.51071e+09
 -1.00061,0.0250244,0.00994873,-0.30426,1.36917,0.30426,1.51071e+09
 -0.99823,0.0204468,0.00878906,-0,2.12982,-0,1.51071e+09
-0.997803,0.020874,0.00976562,0.15213,1.82556,0.30426,1.51071e+09
-0.997803,0.020874,0.00976562,0.15213,1.82556,0.30426,1.51071e+09
-0.999084,0.0216675,0.0130615,-0.15213,0.760651,0.30426,1.51071e+09
-0.998657,0.0248413,0.00982666,-0,0.15213,0.30426,1.51071e+09
-0.998657,0.0248413,0.00982666,-0,0.15213,0.30426,1.51071e+09
-0.997437,0.0232544,0.0106812,0.15213,-0.30426,0.30426,1.51071e+09
 -1.00269,0.0227051,0.000549316,-0,-0.15213,0.15213,1.51071e+09
 -1.00269,0.0227051,0.000549316,-0,-0.15213,0.15213,1.51071e+09
-0.995117,0.0256958,0.00390625,0.15213,0.912781,0.608521,1.51071e+09
-0.998779,0.0281982,0.00439453,0.30426,1.36917,0.30426,1.51071e+09
-0.998779,0.0281982,0.00439453,0.30426,1.36917,0.30426,1.51071e+09
 -0.99884,0.0255737,0.000671387,0.15213,2.43408,0.45639,1.51071e+09
-0.998108,0.0250244,0.0117798,0.15213,3.34686,0.30426,1.51071e+09
-0.998108,0.0250244,0.0117798,0.15213,3.34686,0.30426,1.51071e+09
-0.999573,0.024292,0.013916,0.15213,3.49899,-0,1.51071e+09
-0.992859,0.0252075,0.0330811,0.608521,1.36917,0.15213,1.51071e+09
-0.992859,0.0252075,0.0330811,0.608521,1.36917,0.15213,1.51071e+09
 -1.00079,0.0296021,0.0213013,0.15213,-4.5639,0.30426,1.51071e+09
-0.995605,0.0217896,0.0147705,-0.45639,-3.34686,0.30426,1.51071e+09
-0.995605,0.0217896,0.0147705,-0.45639,-3.34686,0.30426,1.51071e+09
 -1.00177,0.026062,0.010437,-0,-5.32455,0.30426,1.51071e+09
 -1.00232,0.020813,-0.0010376,0.15213,-3.65112,0.30426,1.51071e+09
 -1.00232,0.020813,-0.0010376,0.15213,-3.65112,0.30426,1.51071e+09
 -0.99823,0.0222778,0.0012207,-0.15213,-2.12982,0.30426,1.51071e+09
 -1.00098,0.0241089,-0.000427246,-0,-0.30426,0.30426,1.51071e+09
 -1.00098,0.0241089,-0.000427246,-0,-0.30426,0.30426,1.51071e+09
-0.996399,0.0215454,0.0108643,-0.30426,0.912781,-0,1.51071e+09
-0.995056,0.0220337,0.0180054,-0,-0.15213,0.30426,1.51071e+09
-0.995056,0.0220337,0.0180054,-0,-0.15213,0.30426,1.51071e+09
-0.995972,0.024292,0.0109863,-0,-1.67343,0.15213,1.51071e+09
-0.995544,0.0245361,0.0055542,0.15213,-1.36917,-0,1.51071e+09
-0.995544,0.0245361,0.0055542,0.15213,-1.36917,-0,1.51071e+09
-0.995789,0.0281982,0.00183105,0.15213,0.15213,0.30426,1.51071e+09
-0.998535,0.0217896,0.00494385,0.15213,2.43408,0.15213,1.51071e+09
-0.998535,0.0217896,0.00494385,0.15213,2.43408,0.15213,1.51071e+09
-0.998596,0.0177612,0.00720215,0.15213,2.58621,0.15213,1.51071e+09
-0.997986,0.0232544,0.00286865,0.15213,1.97769,0.30426,1.51071e+09
-0.997986,0.0232544,0.00286865,0.15213,1.97769,0.30426,1.51071e+09
 -0.99939,0.0232544,0.00958252,-0,1.82556,0.45639,1.51071e+09
-0.998169,0.0246582,0.0149536,0.15213,0.760651,0.30426,1.51071e+09
-0.998169,0.0246582,0.0149536,0.15213,0.760651,0.30426,1.51071e+09
-0.998901,0.0222168,0.00970459,-0,-0.45639,0.30426,1.51071e+09
-0.997009,0.0217896,0.00567627,-0,-1.21704,-0,1.51071e+09
-0.997009,0.0217896,0.00567627,-0,-1.21704,-0,1.51071e+09
 -1.00092,0.024353,0.00744629,-0,-0.45639,0.30426,1.51071e+09
 -1.00043,0.0230713,0.00305176,0.30426,0.45639,-0,1.51071e+09
 -1.00043,0.0230713,0.00305176,0.30426,0.45639,-0,1.51071e+09
 -1.00134,0.020813,0.00585938,0.15213,1.67343,-0,1.51071e+09
-0.999146,0.0231323,0.00701904,0.15213,2.43408,0.15213,1.51071e+09
-0.999146,0.0231323,0.00701904,0.15213,2.43408,0.15213,1.51071e+09
-0.997009,0.0220337,0.0149536,-0,1.82556,0.15213,1.51071e+09
-0.994873,0.0286255,0.0162964,-0.15213,-0.45639,0.30426,1.51071e+09
-0.994873,0.0286255,0.0162964,-0.15213,-0.45639,0.30426,1.51071e+09
-0.997375,0.0255737,0.0106201,-0,-2.12982,0.30426,1.51071e+09
-0.998291,0.0198364,0.0045166,-0,-2.89047,0.15213,1.51071e+09
-0.998291,0.0198364,0.0045166,-0,-2.89047,0.15213,1.51071e+09
 -1.00104,0.0227661,0.00518799,-0,-2.43408,0.30426,1.51071e+09
-0.998291,0.0285034,0.00292969,-0,-1.06491,-0,1.51071e+09
-0.998291,0.0285034,0.00292969,-0,-1.06491,-0,1.51071e+09
 -1.00037,0.0250854,0.00854492,-0,-0.15213,0.30426,1.51071e+09
-0.994019,0.0233154,0.00872803,-0,-0.608521,-0,1.51071e+09
-0.994019,0.0233154,0.00872803,-0,-0.608521,-0,1.51071e+09
 -1.00061,0.0231323,0.000976562,-0.45639,-0.760651,-0.15213,1.51071e+09
-0.999084,0.0234375,0.0128784,0.15213,0.15213,0.30426,1.51071e+09
-0.999084,0.0234375,0.0128784,0.15213,0.15213,0.30426,1.51071e+09
-0.996399,0.022583,0.00872803,-0.15213,-1.21704,-0,1.51071e+09
-0.997192,0.0224609,0.00799561,-0,-1.97769,0.15213,1.51071e+09
-0.997192,0.0224609,0.00799561,-0,-1.97769,0.15213,1.51071e+09
-0.998657,0.0204468,0.00494385,-0,-1.97769,0.15213,1.51071e+09
-0.997253,0.0249634,0.0103149,-0,-1.97769,0.15213,1.51071e+09
-0.997253,0.0249634,0.0103149,-0,-1.97769,0.15213,1.51071e+09
-0.998718,0.0252686,0.000854492,-0,-2.73834,0.15213,1.51071e+09
-0.999023,0.0249634,0.00250244,-0.15213,-1.97769,0.15213,1.51071e+09
-0.999023,0.0249634,0.00250244,-0.15213,-1.97769,0.15213,1.51071e+09
-0.998535,0.0251465,-0.000427246,-0.15213,-0,0.15213,1.51071e+09
-0.999268,0.0247192,-0.0043335,0.15213,1.82556,0.15213,1.51071e+09
-0.999268,0.0247192,-0.0043335,0.15213,1.82556,0.15213,1.51071e+09
-0.996216,0.0220337,0.00311279,0.15213,3.95538,0.30426,1.51071e+09
-0.998657,0.0230713,0.00836182,-0,3.34686,0.30426,1.51071e+09
-0.998657,0.0230713,0.00836182,-0,3.34686,0.30426,1.51071e+09
-0.997925,0.0223999,0.0193481,-0.15213,1.21704,-0.15213,1.51071e+09
-0.995972,0.0228271,0.0261841,-0.15213,-1.82556,0.30426,1.51071e+09
-0.995972,0.0228271,0.0261841,-0.15213,-1.82556,0.30426,1.51071e+09
-0.997559,0.0229492,0.0212402,-0.30426,-6.84586,0.30426,1.51071e+09
-0.999939,0.024353,0.00427246,-0.608521,-8.97568,-0,1.51071e+09
-0.999939,0.024353,0.00427246,-0.608521,-8.97568,-0,1.51071e+09
 -1.00092,0.0189819,-0.0249023,0.15213,-5.62881,-0.15213,1.51071e+09
 -1.00629,0.0221558,-0.0297852,0.30426,3.19473,0.45639,1.51071e+09
 -1.00629,0.0221558,-0.0297852,0.30426,3.19473,0.45639,1.51071e+09
 -1.00171,0.0257568,-0.0211182,0.30426,12.4747,0.608521,1.51071e+09
-0.996887,0.0245361,0.0163574,0.15213,15.3651,0.15213,1.51071e+09
-0.996887,0.0245361,0.0163574,0.15213,15.3651,0.15213,1.51071e+09
-0.996643,0.0217896,0.0253906,0.45639,11.2576,-0,1.51071e+09
-0.998901,0.0221558,0.0115356,1.36917,7.60651,0.30426,1.51071e+09
-0.998901,0.0221558,0.0115356,1.36917,7.60651,0.30426,1.51071e+09
 -0.99469,0.0222168,0.0284424,0.608521,6.23734,0.30426,1.51071e+09
 -0.99292,0.0198975,0.0272217,0.15213,0.760651,0.30426,1.51071e+09
 -0.99292,0.0198975,0.0272217,0.15213,0.760651,0.30426,1.51071e+09
 -1.00464,0.0224609,-0.00872803,-0,-0.45639,0.15213,1.51071e+09
 -1.00116,0.0268555,-0.00836182,0.15213,5.02029,0.30426,1.51071e+09
 -1.00116,0.0268555,-0.00836182,0.15213,5.02029,0.30426,1.51071e+09
-0.994751,0.0262451,0.012146,0.45639,8.82355,-0,1.51071e+09
   -0.987,0.0253906,0.0526123,1.5213,5.78094,-0,1.51071e+09
   -0.987,0.0253906,0.0526123,1.5213,5.78094,-0,1.51071e+09
-0.991516,0.0311279,0.0145874,10.3448,-4.71603,-0.15213,1.51071e+09
 -1.00543,0.010376,0.0213623,13.5396,-7.75864,-0,1.51071e+09
 -1.00543,0.010376,0.0213623,13.5396,-7.75864,-0,1.51071e+09
 -1.00836,0.00939941,0.0236206,18.2556,-4.71603,-0.15213,1.51071e+09
 -1.00305,0.0367432,0.0114746,19.3205,-2.43408,-0.15213,1.51071e+09
 -1.00305,0.0367432,0.0114746,19.3205,-2.43408,-0.15213,1.51071e+09
-0.996155,0.0183716,0.00756836,12.9311,-1.67343,-0.15213,1.51071e+09
 -0.99585,0.0143433,0.00982666,5.32455,-3.19473,0.30426,1.51071e+09
 -0.99585,0.0143433,0.00982666,5.32455,-3.19473,0.30426,1.51071e+09
-0.999329,0.0231323,0.0214233,-0,-3.65112,-0.30426,1.51071e+09
-0.996216,0.0252075,0.015625,-0,-4.5639,-0,1.51071e+09
-0.996216,0.0252075,0.015625,-0,-4.5639,-0,1.51071e+09
-0.994202,0.0274048,0.0184326,-0,-4.5639,0.15213,1.51071e+09
-0.999268,0.017395,-0.00952148,1.06491,-7.15012,0.608521,1.51071e+09
-0.999268,0.017395,-0.00952148,1.06491,-7.15012,0.608521,1.51071e+09
 -1.00415,0.0248413,-0.0278931,0.30426,1.06491,0.45639,1.51071e+09
   -1.005,0.0245972,-0.00762939,0.760651,8.0629,0.45639,1.51071e+09
   -1.005,0.0245972,-0.00762939,0.760651,8.0629,0.45639,1.51071e+09
-0.995605,0.0194092,0.0273438,5.62881,10.6491,0.30426,1.51071e+09
-0.993347,0.0223389,0.0275269,12.7789,5.62881,0.15213,1.51071e+09
-0.993347,0.0223389,0.0275269,12.7789,5.62881,0.15213,1.51071e+09
-0.995911,0.0165405,0.0365601,22.3631,-0.608521,-0,1.51071e+09
 -0.99707,0.0300293,0.050354,20.0812,-6.84586,-0.15213,1.51071e+09
 -0.99707,0.0300293,0.050354,20.0812,-6.84586,-0.15213,1.51071e+09
-0.998413,0.0213013,0.0153809,13.996,-12.1704,0.15213,1.51071e+09
-0.999573,0.017334,-0.00445557,14.6045,-10.9534,0.15213,1.51071e+09
-0.999573,0.017334,-0.00445557,14.6045,-10.9534,0.15213,1.51071e+09
 -1.00122,0.026123,-0.00646973,8.82355,-9.43207,0.45639,1.51071e+09
-0.997437,0.0272217,-0.00256348,10.1927,-4.71603,0.15213,1.51071e+09
-0.997437,0.0272217,-0.00256348,10.1927,-4.71603,0.15213,1.51071e+09
 -1.00366,0.0255737,-0.00939941,10.0406,-2.12982,0.45639,1.51071e+09
 -1.00226,0.02948,-0.00634766,11.1055,0.760651,0.30426,1.51071e+09
 -1.00226,0.02948,-0.00634766,11.1055,0.760651,0.30426,1.51071e+09
-0.997253,0.0213623,0.00933838,13.6917,3.95538,0.15213,1.51071e+09
-0.996399,0.0219116,0.00323486,5.47668,2.43408,-0,1.51071e+09
-0.996399,0.0219116,0.00323486,5.47668,2.43408,-0,1.51071e+09
-0.998535,0.0230103,0.0140381,0.15213,1.21704,0.30426,1.51071e+09
-0.998535,0.0237427,0.00787354,-0,-0.45639,0.15213,1.51071e+09
-0.998535,0.0237427,0.00787354,-0,-0.45639,0.15213,1.51071e+09
 -1.00049,0.0245361,0.00512695,-0,-0.15213,0.30426,1.51071e+09
-0.999329,0.0235596,0.0043335,0.760651,0.15213,-0.15213,1.51071e+09
-0.999329,0.0235596,0.0043335,0.760651,0.15213,-0.15213,1.51071e+09
-0.999634,0.0250854,0.0128784,5.47668,-0,0.15213,1.51071e+09
-0.997314,0.0258179,0.00109863,13.0832,-1.21704,0.15213,1.51071e+09
-0.997314,0.0258179,0.00109863,13.0832,-1.21704,0.15213,1.51071e+09
 -1.00116,0.0258789,-0.0117798,10.9534,1.21704,-0,1.51071e+09
 -1.00073,0.0223389,0.00299072,5.93307,3.80325,0.15213,1.51071e+09
 -1.00073,0.0223389,0.00299072,5.93307,3.80325,0.15213,1.51071e+09
-0.998779,0.0219116,0.00170898,9.43207,5.17242,0.30426,1.51071e+09
 -0.99823,0.0250244,-0.0137939,11.2576,7.91077,-0.30426,1.51071e+09
 -0.99823,0.0250244,-0.0137939,11.2576,7.91077,-0.30426,1.51071e+09
-0.999146,0.0248413,0.00195312,8.82355,11.2576,0.15213,1.51071e+09
-0.996704,0.0188599,0.026001,8.36716,10.497,0.30426,1.51071e+09
-0.996704,0.0188599,0.026001,8.36716,10.497,0.30426,1.51071e+09
-0.991394,0.0221558,0.0438232,11.1055,5.02029,0.15213,1.51071e+09
-0.993835,0.0216064,0.0353394,8.82355,-0.912781,-0,1.51071e+09
-0.993835,0.0216064,0.0353394,8.82355,-0.912781,-0,1.51071e+09
 -1.00378,0.0274658,0.015686,10.1927,-5.78094,-0.30426,1.51071e+09
 -1.00018,0.0258179,0.00787354,0.608521,-3.19473,-0,1.51071e+09
 -1.00018,0.0258179,0.00787354,0.608521,-3.19473,-0,1.51071e+09
 -0.99823,0.0263672,0.00549316,-0,-2.73834,-0,1.51071e+09
-0.998352,0.0249023,0.0055542,-0,-1.82556,0.15213,1.51071e+09
-0.998352,0.0249023,0.0055542,-0,-1.82556,0.15213,1.51071e+09
 -1.00281,0.0224609,-0.00231934,0.30426,0.45639,0.30426,1.51071e+09
 -0.99823,0.0206299,0.00543213,0.15213,2.12982,0.30426,1.51071e+09
 -0.99823,0.0206299,0.00543213,0.15213,2.12982,0.30426,1.51071e+09
-0.997925,0.0231934,0.0098877,0.15213,2.28195,0.30426,1.51071e+09
-0.997009,0.0210571,0.0133667,0.30426,2.28195,0.30426,1.51071e+09
-0.997009,0.0210571,0.0133667,0.30426,2.28195,0.30426,1.51071e+09
-0.999939,0.0264893,0.00360107,0.15213,1.5213,0.15213,1.51071e+09
 -0.99884,0.0234375,0.0125732,0.15213,2.28195,0.30426,1.51071e+09
 -0.99884,0.0234375,0.0125732,0.15213,2.28195,0.30426,1.51071e+09
-0.997009,0.0250854,0.0165405,-0,1.21704,0.15213,1.51071e+09
 -1.00183,0.0252075,0.0107422,0.15213,-0.15213,-0,1.51071e+09
 -1.00183,0.0252075,0.0107422,0.15213,-0.15213,-0,1.51071e+09
  -1.0033,0.0229492,0.000244141,1.06491,1.5213,0.30426,1.51071e+09
-0.995361,0.0247192,0.0124512,7.60651,1.67343,-0.15213,1.51071e+09
-0.995361,0.0247192,0.0124512,7.60651,1.67343,-0.15213,1.51071e+09
-0.995789,0.024353,0.0111084,14.9088,-2.73834,0.15213,1.51071e+09
 -1.00244,0.0199585,0.0189819,16.8864,-2.12982,-0,1.51071e+09
 -1.00244,0.0199585,0.0189819,16.8864,-2.12982,-0,1.51071e+09
 -1.00287,0.0216675,0.0067749,10.8012,1.06491,0.15213,1.51071e+09
 -1.00348,0.0211182,0.00653076,7.91077,3.0426,0.30426,1.51071e+09
 -1.00348,0.0211182,0.00653076,7.91077,3.0426,0.30426,1.51071e+09
-0.997559,0.0280151,0.00415039,8.21503,3.49899,0.30426,1.51071e+09
 -1.00055,0.0310669,-0.0128174,13.3875,2.43408,-0,1.51071e+09
 -1.00055,0.0310669,-0.0128174,13.3875,2.43408,-0,1.51071e+09
 -1.00604,0.026062,-0.0384521,20.3854,6.5416,-0,1.51071e+09
-0.991394,0.0424194,-0.0670776,28.2962,14.7566,-0.15213,1.51071e+09
-0.991394,0.0424194,-0.0670776,28.2962,14.7566,-0.15213,1.51071e+09
-0.999573,0.0759277,-0.0927734,59.4829,8.97568,-0.912781,1.51071e+09
  -1.0575,0.0401001,-0.15564,84.8886,19.4727,-0.760651,1.51071e+09
  -1.0575,0.0401001,-0.15564,84.8886,19.4727,-0.760651,1.51071e+09
 -1.04108,0.0533447,-0.135742,81.0854,49.5944,-1.06491,1.51071e+09
 -1.03961,-0.00817871,-0.142944,72.2618,110.751,-0.45639,1.51071e+09
 -1.03961,-0.00817871,-0.142944,72.2618,110.751,-0.45639,1.51071e+09
 -1.00745,0.0546875,-0.133667,84.5844,149.392,-1.36917,1.51071e+09
 -1.01434,0.0630493,-0.0912476,107.708,182.1,-3.80325,1.51071e+09
 -1.01434,0.0630493,-0.0912476,107.708,182.1,-3.80325,1.51071e+09
 -1.00299,0.0609741,-0.0723877,133.57,213.134,-8.21503,1.51071e+09
 -1.00995,0.0402832,-0.0440063,129.919,266.988,-11.714,1.51071e+09
 -1.00995,0.0402832,-0.0440063,129.919,266.988,-11.714,1.51071e+09
 -1.03113,-0.0697632,0.0020752,84.128,360.244,-8.36716,1.51071e+09
 -1.00751,-0.0846558,-0.0370483,55.3754,432.202,-6.08521,1.51071e+09
 -1.00751,-0.0846558,-0.0370483,55.3754,432.202,-6.08521,1.51071e+09
 -0.88623,-0.048584,-0.0377808,41.9879,483.47,-3.65112,1.51071e+09
-0.945801,-0.00177002,0.00335693,42.14,551.167,-7.15012,1.51071e+09
-0.945801,-0.00177002,0.00335693,42.14,551.167,-7.15012,1.51071e+09
-0.857117,0.0498657,0.112,59.9393,633.47,-14.3002,1.51071e+09
-0.768738,0.0516357,0.161682,61.7648,724.9,-20.2333,1.51071e+09
-0.768738,0.0516357,0.161682,61.7648,724.9,-20.2333,1.51071e+09
-0.609863,-0.0055542,0.225159,42.5964,813.136,-12.7789,1.51071e+09
-0.472473,0.045166,0.345764,16.5822,894.069,-4.25964,1.51071e+09
-0.472473,0.045166,0.345764,16.5822,894.069,-4.25964,1.51071e+09
-0.317017,0.0339355,0.488342,-7.60651,943.967,13.6917,1.51071e+09
-0.359436,-0.0361938,0.669312,-4.86816,967.091,22.3631,1.51071e+09
-0.359436,-0.0361938,0.669312,-4.86816,967.091,22.3631,1.51071e+09
-0.370667,-0.0142212,0.897461,-11.5619,905.479,29.6654,1.51071e+09
-0.368774,0.0252686,1.11121,-15.9737,773.277,35.1421,1.51071e+09
-0.368774,0.0252686,1.11121,-15.9737,773.277,35.1421,1.51071e+09
-0.228821,0.0931396,1.17493,-13.2353,644.575,33.7729,1.51071e+09
-0.125244,0.103638,1.10608,-24.7972,566.685,60.5478,1.51071e+09
-0.125244,0.103638,1.10608,-24.7972,566.685,60.5478,1.51071e+09
-0.0420532,0.0650024,1.10712,-22.211,527.739,62.8297,1.51071e+09
-0.184875,0.0631104,1.22308,-13.3875,476.015,46.8561,1.51071e+09
-0.184875,0.0631104,1.22308,-13.3875,476.015,46.8561,1.51071e+09
-0.255737,0.0608521,1.21606,-2.12982,396.908,20.8418,1.51071e+09
 -0.39386,-0.192627,1.99994,-9.88846,212.222,15.9737,1.51071e+09
 -0.39386,-0.192627,1.99994,-9.88846,212.222,15.9737,1.51071e+09
-0.244263,-0.00610352,1.27869,8.36716,-85.0407,-15.5173,1.51071e+09
-0.257324,-0.00494385,0.618958,6.69373,-95.842,-16.7343,1.51071e+09
-0.257324,-0.00494385,0.618958,6.69373,-95.842,-16.7343,1.51071e+09
-0.185059,-0.0239868,0.419678,9.43207,49.7466,-32.5558,1.51071e+09
-0.244507,0.0890503,0.442932,6.08521,234.889,-24.493,1.51071e+09
-0.244507,0.0890503,0.442932,6.08521,234.889,-24.493,1.51071e+09
-0.199707,0.177185,0.552002,7.45438,383.368,-18.712,1.51071e+09
-0.0567017,0.166138,0.691467,3.49899,496.096,1.21704,1.51071e+09
-0.0567017,0.166138,0.691467,3.49899,496.096,1.21704,1.51071e+09
-0.0166016,-0.244873,1.99994,-19.929,510.397,-14.9088,1.51071e+09
-0.206665,0.0738525,1.40924,-106.947,93.1036,-71.5012,1.51071e+09
-0.206665,0.0738525,1.40924,-106.947,93.1036,-71.5012,1.51071e+09
 0.139648,-0.039917,1.10577,102.079,-108.925,18.4077,1.51071e+09
 0.244751,0.0154419,0.613098,-24.0366,-39.0974,19.6248,1.51071e+09
 0.244751,0.0154419,0.613098,-24.0366,-39.0974,19.6248,1.51071e+09
-0.187195,-0.0755005,1.19836,1.21704,17.7992,8.67142,1.51071e+09
-0.247742,0.0595093,1.07715,-0.30426,5.78094,-9.88846,1.51071e+09
-0.247742,0.0595093,1.07715,-0.30426,5.78094,-9.88846,1.51071e+09
-0.181702,0.0750732,0.872437,-0.45639,2.28195,-5.47668,1.51071e+09
-0.183838,0.0436401,1.00854,-2.89047,19.0163,5.32455,1.51071e+09
-0.183838,0.0436401,1.00854,-2.89047,19.0163,5.32455,1.51071e+09
-0.193604,-0.00695801,0.966553,0.760651,20.0812,4.10751,1.51071e+09
-0.109985,-0.0133667,0.964844,0.30426,35.7506,3.65112,1.51071e+09
-0.109985,-0.0133667,0.964844,0.30426,35.7506,3.65112,1.51071e+09
-0.108887,-0.00323486,0.948975,1.36917,43.205,1.06491,1.51071e+09
-0.0378418,-0.0229492,1.00061,0.30426,66.3287,-1.36917,1.51071e+09
-0.0378418,-0.0229492,1.00061,0.30426,66.3287,-1.36917,1.51071e+09
-0.114685,0.0886841,0.901733,1.97769,65.416,-2.73834,1.51071e+09
-0.0412598,0.0585327,1.00574,-3.95538,80.7811,-3.19473,1.51071e+09
-0.0412598,0.0585327,1.00574,-3.95538,80.7811,-3.19473,1.51071e+09
-0.0280151,0.0280151,1.06848,-3.65112,82.7588,3.0426,1.51071e+09
-0.0980835,-0.0449829,1.12701,-0.608521,64.9596,4.41177,1.51071e+09
-0.0980835,-0.0449829,1.12701,-0.608521,64.9596,4.41177,1.51071e+09
-0.114136,0.000610352,1.06396,1.21704,35.5984,2.28195,1.51071e+09
-0.0680542,0.0170288,1.0249,0.15213,28.1441,2.28195,1.51071e+09
-0.0680542,0.0170288,1.0249,0.15213,28.1441,2.28195,1.51071e+09
-0.0522461,0.0125122,1.00623,0.15213,25.2536,-0,1.51071e+09
-0.0488892,0.00299072,1.02008,0.30426,28.1441,-0,1.51071e+09
-0.0488892,0.00299072,1.02008,0.30426,28.1441,-0,1.51071e+09
-0.0649414,0.0319824,1.03113,0.15213,28.9047,-3.0426,1.51071e+09
-0.0455933,0.0103149,1.0022,0.45639,29.3611,-5.78094,1.51071e+09
-0.0455933,0.0103149,1.0022,0.45639,29.3611,-5.78094,1.51071e+09
-0.0463867,-0.0567017,0.915161,-1.06491,42.14,-5.02029,1.51071e+09
-0.0515747,-0.0501099,0.929443,0.608521,66.3287,-8.82355,1.51071e+09
-0.0515747,-0.0501099,0.929443,0.608521,66.3287,-8.82355,1.51071e+09
-0.0567627,-0.0285645,0.862854,1.21704,96.7548,-6.38947,1.51071e+09
-0.0751343,0.0244141,0.842102,2.28195,147.566,-17.6471,1.51071e+09
-0.0751343,0.0244141,0.842102,2.28195,147.566,-17.6471,1.51071e+09
 0.184265,0.532043,1.58374,30.1218,86.7142,-11.1055,1.51071e+09
-0.00384521,0.00311279,1.03448,2.58621,2.12982,0.30426,1.51071e+09
-0.00384521,0.00311279,1.03448,2.58621,2.12982,0.30426,1.51071e+09
-0.0182495,0.0100098,1.03558,-0.15213,-0.15213,-0.15213,1.51071e+09
-0.00445557,0.010437,1.01532,0.15213,0.15213,-0,1.51071e+09
-0.00445557,0.010437,1.01532,0.15213,0.15213,-0,1.51071e+09
-0.00878906,0.0098877,1.00586,0.15213,0.15213,-0,1.51071e+09
-0.0065918,0.00744629,1.03271,0.30426,0.45639,-0,1.51071e+09
-0.0065918,0.00744629,1.03271,0.30426,0.45639,-0,1.51071e+09
-0.0078125,0.00915527,1.02283,-0,-0,0.15213,1.51071e+09
-0.0065918,0.0109863,1.01831,-0,-0,-0,1.51071e+09
-0.0065918,0.0109863,1.01831,-0,-0,-0,1.51071e+09
-0.0067749,0.0101929,1.01617,-0.30426,-0.15213,0.30426,1.51071e+09
-0.00579834,0.012085,1.01422,-0.30426,-0,0.15213,1.51071e+09
-0.00579834,0.012085,1.01422,-0.30426,-0,0.15213,1.51071e+09
-0.0067749,0.0140381,1.02045,-0.30426,-0.30426,-0,1.51071e+09
-0.00585938,0.0101318,1.01917,-0.30426,-0.15213,0.15213,1.51071e+09
-0.00585938,0.0101318,1.01917,-0.30426,-0.15213,0.15213,1.51071e+09
-0.00793457,0.0117188,1.01862,-0.760651,-0,-0.15213,1.51071e+09
-0.0101929,0.0130005,1.01239,-0.15213,0.15213,-0.15213,1.51071e+09
-0.0101929,0.0130005,1.01239,-0.15213,0.15213,-0.15213,1.51071e+09
-0.00457764,0.0105591,1.02356,-0,-0,-0.15213,1.51071e+09
-0.00640869,0.00946045,1.02118,0.30426,0.45639,-0.15213,1.51071e+09
-0.00640869,0.00946045,1.02118,0.30426,0.45639,-0.15213,1.51071e+09
-0.010498,0.00744629,1.02167,-0,-0,0.15213,1.51071e+09
-0.00421143,0.0141602,1.02234,-0.15213,-0,0.15213,1.51071e+09
-0.00421143,0.0141602,1.02234,-0.15213,-0,0.15213,1.51071e+09
-0.00872803,0.0134277,1.01886,-0.45639,-0.15213,0.15213,1.51071e+09
0.00823975,-0.00213623,1.05084,3.0426,2.12982,0.15213,1.51071e+09
0.00823975,-0.00213623,1.05084,3.0426,2.12982,0.15213,1.51071e+09
-0.00640869,0.00805664,1.01959,0.30426,0.30426,-0.15213,1.51071e+09
-0.00469971,0.00994873,1.0188,0.15213,0.30426,-0.15213,1.51071e+09
-0.00469971,0.00994873,1.0188,0.15213,0.30426,-0.15213,1.51071e+09
-0.00567627,0.0114136,1.0213,0.15213,0.15213,-0,1.51071e+09
-0.00549316,0.0116577,1.01801,0.30426,0.15213,-0.15213,1.51071e+09
-0.00549316,0.0116577,1.01801,0.30426,0.15213,-0.15213,1.51071e+09
-0.0065918,0.0112915,1.021,0.15213,0.608521,-0,1.51071e+09
-0.00592041,0.0119019,1.01697,0.15213,0.608521,-0.30426,1.51071e+09
-0.00592041,0.0119019,1.01697,0.15213,0.608521,-0.30426,1.51071e+09
-0.00921631,0.0115967,1.02045,-0.15213,0.30426,-0,1.51071e+09
-0.00793457,0.0101929,1.02148,0.15213,0.608521,0.15213,1.51071e+09
-0.00793457,0.0101929,1.02148,0.15213,0.608521,0.15213,1.51071e+09
-0.00823975,0.00756836,1.01929,-0,-0,0.15213,1.51071e+09
-0.00665283,0.00958252,1.01648,0.30426,0.15213,0.30426,1.51071e+09
-0.00665283,0.00958252,1.01648,0.30426,0.15213,0.30426,1.51071e+09
-0.010498,0.0119629,1.01917,0.15213,0.15213,-0.15213,1.51071e+09
-0.00683594,0.0111694,1.01874,-0,0.15213,-0,1.51071e+09
-0.00683594,0.0111694,1.01874,-0,0.15213,-0,1.51071e+09
-0.00756836,0.0133667,1.01935,0.15213,0.15213,-0,1.51071e+09
-0.00640869,0.0117188,1.01666,-0,-0,-0,1.51071e+09
-0.00640869,0.0117188,1.01666,-0,-0,-0,1.51071e+09
-0.00616455,0.00897217,1.01819,-0,-0,-0,1.51071e+09
-0.00482178,0.0102539,1.01794,0.15213,0.30426,0.15213,1.51071e+09
-0.00482178,0.0102539,1.01794,0.15213,0.30426,0.15213,1.51071e+09
-0.00646973,0.0125732,1.01599,0.15213,0.15213,0.15213,1.51071e+09
-0.00634766,0.0107422,1.01855,0.15213,0.30426,-0,1.51071e+09
-0.00634766,0.0107422,1.01855,0.15213,0.30426,-0,1.51071e+09
-0.00567627,0.0115356,1.02289,0.15213,0.15213,-0,1.51071e+09
-0.00860596,0.0114746,1.02191,0.15213,0.15213,0.30426,1.51071e+09
-0.00860596,0.0114746,1.02191,0.15213,0.15213,0.30426,1.51071e+09
-0.00762939,0.0106812,1.0177,-0,-0.15213,0.15213,1.51071e+09
-0.00769043,0.0109253,1.02686,-0.15213,-0,-0.15213,1.51071e+09
-0.00769043,0.0109253,1.02686,-0.15213,-0,-0.15213,1.51071e+09
-0.00726318,0.0119019,1.02112,0.15213,0.608521,-0,1.51071e+09
-0.00836182,0.0106812,1.01831,-0,-0,-0.15213,1.51071e+09
-0.00836182,0.0106812,1.01831,-0,-0,-0.15213,1.51071e+09
-0.00817871,0.0114746,1.01886,-0.15213,-0,0.15213,1.51071e+09
-0.00775146,0.00891113,1.02338,0.15213,0.15213,-0,1.51071e+09
-0.00775146,0.00891113,1.02338,0.15213,0.15213,-0,1.51071e+09
-0.00744629,0.00964355,1.01898,-0.15213,-0.15213,0.15213,1.51071e+09
-0.00762939,0.010498,1.01971,-0,0.15213,-0.15213,1.51071e+09
-0.00762939,0.010498,1.01971,-0,0.15213,-0.15213,1.51071e+09
-0.00695801,0.0126953,1.02234,0.30426,0.30426,0.15213,1.51071e+09
-0.00927734,0.0116577,1.01605,0.30426,0.45639,0.15213,1.51071e+09
-0.00927734,0.0116577,1.01605,0.30426,0.45639,0.15213,1.51071e+09
-0.00952148,0.012085,1.01819,0.15213,0.30426,0.15213,1.51071e+09
-0.0067749,0.010437,1.01801,0.15213,0.30426,0.30426,1.51071e+09
-0.0067749,0.010437,1.01801,0.15213,0.30426,0.30426,1.51071e+09
-0.0090332,0.0124512,1.01501,0.30426,0.15213,-0,1.51071e+09
-0.00598145,0.0142822,1.02167,-0,0.15213,0.15213,1.51071e+09
-0.00598145,0.0142822,1.02167,-0,0.15213,0.15213,1.51071e+09
-0.00561523,0.0107422,1.02185,0.30426,0.15213,0.15213,1.51071e+09
-0.0090332,0.0591431,1.02631,0.15213,0.30426,0.45639,1.51071e+09
-0.0090332,0.0591431,1.02631,0.15213,0.30426,0.45639,1.51071e+09
-0.00463867,0.0639648,1.02094,0.15213,0.45639,2.28195,1.51071e+09
-0.0020752,0.0738525,1.02167,0.15213,0.15213,2.73834,1.51071e+09
-0.0020752,0.0738525,1.02167,0.15213,0.15213,2.73834,1.51071e+09
-0.0057373,0.0435181,1.00934,0.15213,0.45639,2.89047,1.51071e+09
-0.00238037,0.0508423,1.0166,-0.15213,-0.15213,4.71603,1.51071e+09
-0.00238037,0.0508423,1.0166,-0.15213,-0.15213,4.71603,1.51071e+09
-0.00280762,0.0613403,1.01849,-0.45639,-0.30426,4.25964,1.51071e+09
0.00469971,0.0522461,1.01373,-0,-0.15213,5.32455,1.51071e+09
0.00469971,0.0522461,1.01373,-0,-0.15213,5.32455,1.51071e+09
-0.000183105,0.0443115,1.01331,0.15213,0.30426,4.25964,1.51071e+09
0.00714111,0.0440674,1.02417,-0.15213,0.15213,1.06491,1.51071e+09
0.00714111,0.0440674,1.02417,-0.15213,0.15213,1.06491,1.51071e+09
0.00231934,0.0172119,1.01807,-0.45639,-0.30426,-5.93307,1.51071e+09
-0.0264282,-0.0632935,1.01697,-0,0.30426,-11.1055,1.51071e+09
-0.0264282,-0.0632935,1.01697,-0,0.30426,-11.1055,1.51071e+09
-0.0140991,-0.0610352,1.01178,0.760651,0.760651,-13.6917,1.51071e+09
-0.00238037,-0.0546265,1.01434,-0,0.608521,-14.4524,1.51071e+09
-0.00238037,-0.0546265,1.01434,-0,0.608521,-14.4524,1.51071e+09
-0.00305176,-0.0499268,1.01862,-0,0.15213,-10.0406,1.51071e+09
-0.00921631,-0.0012207,1.01379,-0,0.30426,-8.82355,1.51071e+09
-0.00921631,-0.0012207,1.01379,-0,0.30426,-8.82355,1.51071e+09
-0.00915527,-0.0122681,1.026,0.760651,0.912781,-6.69373,1.51071e+09
-0.0264893,-0.0125732,1.01727,0.30426,0.608521,-5.32455,1.51071e+09
-0.0264893,-0.0125732,1.01727,0.30426,0.608521,-5.32455,1.51071e+09
-0.00823975,0.0140381,1.02069,0.30426,0.30426,-5.47668,1.51071e+09
0.00378418,0.0108643,1.01575,0.30426,0.15213,-5.78094,1.51071e+09
0.00378418,0.0108643,1.01575,0.30426,0.15213,-5.78094,1.51071e+09
-0.00537109,0.017395,1.01953,-0.30426,-0,-5.93307,1.51071e+09
-0.00109863,0.0162964,1.01965,-0,-0.30426,-5.02029,1.51071e+09
-0.00109863,0.0162964,1.01965,-0,-0.30426,-5.02029,1.51071e+09
-0.000732422,0.0202637,1.01917,-0.15213,0.15213,-6.23734,1.51071e+09
-0.0065918,0.0142212,1.01971,-0.30426,-0.15213,-6.08521,1.51071e+09
-0.0065918,0.0142212,1.01971,-0.30426,-0.15213,-6.08521,1.51071e+09
-0.00268555,0.0253906,1.02472,-0,0.15213,-6.69373,1.51071e+09
-0.00805664,0.024353,1.01422,-0.15213,-0,-9.43207,1.51071e+09
-0.00805664,0.024353,1.01422,-0.15213,-0,-9.43207,1.51071e+09
-0.00567627,0.0264282,1.02148,0.45639,0.760651,-12.6268,1.51071e+09
0.0195923,0.0426025,1.01849,2.28195,2.89047,-15.5173,1.51071e+09
0.0195923,0.0426025,1.01849,2.28195,2.89047,-15.5173,1.51071e+09
-0.0090332,0.00695801,1.01569,3.0426,3.19473,-15.5173,1.51071e+09
-0.00463867,0.00280762,1.01691,-0.15213,-0.15213,-13.5396,1.51071e+09
-0.00463867,0.00280762,1.01691,-0.15213,-0.15213,-13.5396,1.51071e+09
-0.00708008,0.0199585,1.01898,-1.21704,-0.760651,-15.8215,1.51071e+09
0.00189209,0.0220947,1.01752,-0.30426,-0,-19.1684,1.51071e+09
0.00189209,0.0220947,1.01752,-0.30426,-0,-19.1684,1.51071e+09
-0.0184326,0.0437012,1.02277,0.30426,0.30426,-24.7972,1.51071e+09
-0.00415039,0.0270996,1.02087,3.0426,3.80325,-24.9493,1.51071e+09
-0.00415039,0.0270996,1.02087,3.0426,3.80325,-24.9493,1.51071e+09
0.0201416,0.0142822,1.01587,0.912781,1.5213,-28.1441,1.51071e+09
0.0222168,0.0135498,1.02374,-0.760651,-0.30426,-25.1015,1.51071e+09
0.0222168,0.0135498,1.02374,-0.760651,-0.30426,-25.1015,1.51071e+09
-0.0115356,0.0165405,1.02679,-1.36917,-0.760651,-26.0143,1.51071e+09
0.0151978,0.0522461,1.02563,1.21704,1.67343,-28.7526,1.51071e+09
0.0151978,0.0522461,1.02563,1.21704,1.67343,-28.7526,1.51071e+09
0.0283203,0.0334473,0.994019,1.5213,2.12982,-35.2942,1.51071e+09
-0.00482178,0.0238647,1.01001,-0.15213,0.45639,-40.1624,1.51071e+09
-0.00482178,0.0238647,1.01001,-0.15213,0.45639,-40.1624,1.51071e+09
0.00939941,0.0197754,1.01221,0.15213,0.760651,-39.8581,1.51071e+09
0.00848389,0.0372314,1.02411,-0.30426,0.15213,-43.205,1.51071e+09
0.00848389,0.0372314,1.02411,-0.30426,0.15213,-43.205,1.51071e+09
0.0155029,0.0378418,1.02582,0.15213,1.21704,-47.7689,1.51071e+09
0.0245361,0.0493164,1.0166,-1.06491,-0.760651,-52.0285,1.51071e+09
0.0245361,0.0493164,1.0166,-1.06491,-0.760651,-52.0285,1.51071e+09
 0.026001,0.0471802,1.01263,-1.67343,-0.760651,-59.0265,1.51071e+09
0.000854492,0.0482788,1.01538,0.760651,1.97769,-62.5255,1.51071e+09
0.000854492,0.0482788,1.01538,0.760651,1.97769,-62.5255,1.51071e+09
0.0236816,0.0164185,1.00226,1.67343,2.89047,-66.1766,1.51071e+09
0.0586548,0.0527954,1.01593,0.760651,1.21704,-74.2395,1.51071e+09
0.0586548,0.0527954,1.01593,0.760651,1.21704,-74.2395,1.51071e+09
0.0302124,0.0357666,1.02899,-0.15213,2.43408,-89.9089,1.51071e+09
-0.024231,0.0492554,1.03772,-1.36917,-0.760651,-90.5174,1.51071e+09
-0.024231,0.0492554,1.03772,-1.36917,-0.760651,-90.5174,1.51071e+09
-0.0442505,0.0383301,1.03638,-1.36917,-0.15213,-81.6939,1.51071e+09
-0.0303345,0.0154419,1.00012,0.912781,1.82556,-70.4362,1.51071e+09
-0.0303345,0.0154419,1.00012,0.912781,1.82556,-70.4362,1.51071e+09
-0.0576782,0.00366211,1.0224,-0.45639,0.608521,-68.4586,1.51071e+09
-0.0755005,-0.0170288,1.03204,-1.36917,-0.760651,-53.0934,1.51071e+09
-0.0755005,-0.0170288,1.03204,-1.36917,-0.760651,-53.0934,1.51071e+09
-0.0654297,-0.0267334,1.01031,-1.21704,-0.30426,-39.8581,1.51071e+09
-0.0663452,-0.0723267,1.01935,-1.5213,-0.45639,-26.6228,1.51071e+09
-0.0663452,-0.0723267,1.01935,-1.5213,-0.45639,-26.6228,1.51071e+09
-0.0765991,-0.108154,1.01538,0.760651,1.67343,-17.7992,1.51071e+09
-0.0691528,-0.130432,1.0144,1.36917,1.67343,-7.91077,1.51071e+09
-0.0691528,-0.130432,1.0144,1.36917,1.67343,-7.91077,1.51071e+09
-0.0505981,-0.109741,1.00122,2.12982,2.43408,-2.73834,1.51071e+09
-0.00427246,0.0145264,1.0163,0.15213,0.45639,0.15213,1.51071e+09
-0.00427246,0.0145264,1.0163,0.15213,0.45639,0.15213,1.51071e+09
-0.00531006,0.0117188,1.01379,-0.15213,-0.30426,0.30426,1.51071e+09
-0.00738525,0.0140991,1.02277,-0,-0.30426,-0,1.51071e+09
-0.00738525,0.0140991,1.02277,-0,-0.30426,-0,1.51071e+09
-0.00457764,0.0131836,1.02161,0.15213,0.30426,-0,1.51071e+09
-0.00268555,0.0112305,1.02081,-0.30426,-0.45639,0.30426,1.51071e+09
-0.00268555,0.0112305,1.02081,-0.30426,-0.45639,0.30426,1.51071e+09
-0.00335693,0.012146,1.02161,-0.30426,-0.15213,0.15213,1.51071e+09
-0.00372314,0.012085,1.02258,0.15213,0.45639,-0,1.51071e+09
-0.00372314,0.012085,1.02258,0.15213,0.45639,-0,1.51071e+09
-0.0020752,0.0115356,1.01697,0.15213,0.15213,-0,1.51071e+09
-0.00317383,0.0131836,1.01917,-0.15213,-0,0.15213,1.51071e+09
-0.00317383,0.0131836,1.01917,-0.15213,-0,0.15213,1.51071e+09
-0.00671387,0.0150146,1.02051,-0,0.30426,-0.15213,1.51071e+09
-0.00335693,0.0118408,1.0188,0.30426,0.15213,0.15213,1.51071e+09
-0.00335693,0.0118408,1.0188,0.30426,0.15213,0.15213,1.51071e+09
-0.00653076,0.0111084,1.01709,0.15213,0.30426,-0,1.51071e+09
-0.00524902,0.00964355,1.02026,-0.30426,-0.15213,-0,1.51071e+09
-0.00524902,0.00964355,1.02026,-0.30426,-0.15213,-0,1.51071e+09
-0.00500488,0.00848389,1.01868,0.15213,0.15213,-0,1.51071e+09
-0.0045166,0.010376,1.01874,0.15213,0.15213,0.15213,1.51071e+09
-0.0045166,0.010376,1.01874,0.15213,0.15213,0.15213,1.51071e+09
-0.00671387,0.00866699,1.01721,-0,-0,0.15213,1.51071e+09
-0.00421143,0.0110474,1.02179,0.15213,0.30426,0.30426,1.51071e+09
-0.00421143,0.0110474,1.02179,0.15213,0.30426,0.30426,1.51071e+09
-0.00115967,0.0152588,1.01874,0.15213,0.30426,0.30426,1.51071e+09
-0.00238037,0.0125122,1.02344,-0,-0,-0.30426,1.51071e+09
-0.00238037,0.0125122,1.02344,-0,-0,-0.30426,1.51071e+09
-0.00378418,0.0151367,1.0155,0.15213,0.15213,-0.15213,1.51071e+09
-0.00524902,0.0163574,1.0213,0.15213,0.15213,0.30426,1.51071e+09
-0.00524902,0.0163574,1.0213,0.15213,0.15213,0.30426,1.51071e+09
-0.00378418,0.0144653,1.01929,-0,-0.30426,0.15213,1.51071e+09
-0.00402832,0.0146484,1.02252,-0,-0,-0,1.51071e+09
-0.00402832,0.0146484,1.02252,-0,-0,-0,1.51071e+09
-0.00543213,0.0108643,1.01807,0.15213,0.30426,-0.15213,1.51071e+09
-0.00268555,0.010437,1.01971,0.45639,0.30426,-0.15213,1.51071e+09
-0.00268555,0.010437,1.01971,0.45639,0.30426,-0.15213,1.51071e+09
-0.00952148,0.0116577,1.02148,-0,-0.15213,0.15213,1.51071e+09
-0.00360107,0.0109253,1.01801,0.30426,0.45639,0.30426,1.51071e+09
-0.00360107,0.0109253,1.01801,0.30426,0.45639,0.30426,1.51071e+09
-0.00598145,0.00939941,1.01172,-0,-0.30426,0.30426,1.51071e+09
-0.00512695,0.0126343,1.01917,0.15213,0.30426,0.30426,1.51071e+09
-0.00512695,0.0126343,1.01917,0.15213,0.30426,0.30426,1.51071e+09
-0.00561523,0.0131226,1.02136,0.15213,-0.15213,-0,1.51071e+09
-0.00170898,0.0114746,1.01581,0.15213,0.15213,0.15213,1.51071e+09
-0.00170898,0.0114746,1.01581,0.15213,0.15213,0.15213,1.51071e+09
-0.00274658,0.0128784,1.01849,-0,-0.30426,0.15213,1.51071e+09
-0.00146484,0.0123291,1.01794,-0,-0,-0,1.51071e+09
-0.00146484,0.0123291,1.01794,-0,-0,-0,1.51071e+09
-0.00177002,0.0133667,1.02264,0.15213,0.15213,-0,1.51071e+09
-0.0067749,0.0132446,1.02338,-0,-0,-0.30426,1.51071e+09
-0.0067749,0.0132446,1.02338,-0,-0,-0.30426,1.51071e+09
-0.00372314,0.0137939,1.01953,-0,-0,0.15213,1.51071e+09
-0.00457764,0.0101318,1.01587,-0,-0,-0,1.51071e+09
-0.00457764,0.0101318,1.01587,-0,-0,-0,1.51071e+09
-0.0078125,0.00811768,1.01733,0.15213,0.15213,-0,1.51071e+09
-0.00469971,0.0148315,1.02008,0.15213,0.15213,-0,1.51071e+09
-0.00469971,0.0148315,1.02008,0.15213,0.15213,-0,1.51071e+09
-0.00408936,0.0129395,1.01874,-0.15213,-0,0.15213,1.51071e+09
-0.00494385,0.00915527,1.01593,-0,0.15213,0.30426,1.51071e+09
-0.00494385,0.00915527,1.01593,-0,0.15213,0.30426,1.51071e+09
-0.00415039,0.010376,1.02148,-0,-0,0.30426,1.51071e+09
-0.00476074,0.012146,1.01831,-0,0.15213,-0.30426,1.51071e+09
-0.00476074,0.012146,1.01831,-0,0.15213,-0.30426,1.51071e+09
-0.0032959,0.00970459,1.0166,-0,-0,0.15213,1.51071e+09
-0.00506592,0.0119019,1.02173,0.15213,0.30426,0.30426,1.51071e+09
-0.00506592,0.0119019,1.02173,0.15213,0.30426,0.30426,1.51071e+09
-0.00402832,0.0105591,1.02209,-0,-0,0.30426,1.51071e+09
-0.00305176,0.0105591,1.01807,-0,-0.45639,-0.15213,1.51071e+09
-0.00305176,0.0105591,1.01807,-0,-0.45639,-0.15213,1.51071e+09
-0.00939941,0.0135498,1.01831,0.15213,0.30426,-0,1.51071e+09
-0.00506592,0.0148315,1.01892,-0,-0,-0,1.51071e+09
-0.00506592,0.0148315,1.01892,-0,-0,-0,1.51071e+09
-0.00463867,0.00842285,1.02039,-0,-0.15213,0.15213,1.51071e+09
-0.00671387,0.0105591,1.0224,-0.15213,-0,-0,1.51071e+09
-0.00671387,0.0105591,1.0224,-0.15213,-0,-0,1.51071e+09
-0.00390625,0.00952148,1.01965,-0,0.30426,-0,1.51071e+09
-0.00341797,0.0125122,1.01642,0.30426,0.15213,-0,1.51071e+09
-0.00341797,0.0125122,1.01642,0.30426,0.15213,-0,1.51071e+09
-0.000915527,0.0136719,1.0199,-0.15213,-0.45639,0.15213,1.51071e+09
-0.000244141,0.0130615,1.02527,0.15213,0.15213,-0,1.51071e+09
-0.000244141,0.0130615,1.02527,0.15213,0.15213,-0,1.51071e+09
-0.00457764,0.0114136,1.01801,-0,0.15213,0.30426,1.51071e+09
-0.00384521,0.0133667,1.02014,0.15213,0.15213,-0.30426,1.51071e+09
-0.00384521,0.0133667,1.02014,0.15213,0.15213,-0.30426,1.51071e+09
-0.00592041,0.0127563,1.01941,0.15213,0.15213,-0,1.51071e+09
-0.00415039,0.0106812,1.01776,-0.15213,-0,0.30426,1.51071e+09
-0.00415039,0.0106812,1.01776,-0.15213,-0,0.30426,1.51071e+09
-0.0055542,0.0140381,1.01654,0.15213,0.30426,-0,1.51071e+09
-0.0045166,0.0134277,1.01788,-0.15213,-0,0.15213,1.51071e+09
-0.0045166,0.0134277,1.01788,-0.15213,-0,0.15213,1.51071e+09
-0.0045166,0.0128784,1.02222,0.15213,0.30426,-0,1.51071e+09
-0.00372314,0.0132446,1.02203,0.30426,0.15213,0.15213,1.51071e+09
-0.00372314,0.0132446,1.02203,0.30426,0.15213,0.15213,1.51071e+09
-0.0065918,0.0123901,1.02069,-0,-0.15213,0.15213,1.51071e+09
-0.0055542,0.0136108,1.01685,0.15213,0.15213,-0,1.51071e+09
-0.0055542,0.0136108,1.01685,0.15213,0.15213,-0,1.51071e+09
-0.00494385,0.0108643,1.0238,0.15213,0.15213,0.30426,1.51071e+09
-0.00518799,0.0147705,1.02252,-0,0.30426,0.30426,1.51071e+09
-0.00518799,0.0147705,1.02252,-0,0.30426,0.30426,1.51071e+09
-0.00506592,0.00958252,1.01843,-0.15213,-0.30426,-0.15213,1.51071e+09
-0.00421143,0.0114136,1.01495,0.30426,0.608521,-0.15213,1.51071e+09
-0.00421143,0.0114136,1.01495,0.30426,0.608521,-0.15213,1.51071e+09
-0.00653076,0.00982666,1.02136,0.45639,0.45639,-0,1.51071e+09
-0.00457764,0.00799561,1.02118,0.15213,0.15213,-0,1.51071e+09
-0.00457764,0.00799561,1.02118,0.15213,0.15213,-0,1.51071e+09
-0.00610352,0.0136719,1.01813,-0,-0,0.15213,1.51071e+09
-0.00421143,0.0162964,1.02197,0.15213,0.30426,-0,1.51071e+09
-0.00421143,0.0162964,1.02197,0.15213,0.30426,-0,1.51071e+09
-0.000305176,0.0159302,1.0213,-0.15213,-0,0.15213,1.51071e+09
-0.00183105,0.0120239,1.01666,-0,-0.15213,0.15213,1.51071e+09
-0.00183105,0.0120239,1.01666,-0,-0.15213,0.15213,1.51071e+09
-0.00280762,0.0142822,1.02344,-0.15213,-0.15213,-0.15213,1.51071e+09
-0.00524902,0.0109863,1.01819,-0.30426,-0.15213,-0,1.51071e+09
-0.00524902,0.0109863,1.01819,-0.30426,-0.15213,-0,1.51071e+09
-0.00616455,0.0119629,1.02087,0.15213,0.15213,-0,1.51071e+09
-0.0065918,0.00952148,1.02069,0.15213,0.30426,-0.15213,1.51071e+09
-0.0065918,0.00952148,1.02069,0.15213,0.30426,-0.15213,1.51071e+09
-0.00518799,0.00994873,1.02216,0.15213,0.15213,-0,1.51071e+09
-0.00164795,0.00622559,1.02136,0.15213,0.30426,0.15213,1.51071e+09
-0.00164795,0.00622559,1.02136,0.15213,0.30426,0.15213,1.51071e+09
-0.00634766,0.0112915,1.02466,-0.30426,-0,0.608521,1.51071e+09
-0.00219727,0.0117188,1.02094,-0,-0.15213,-0,1.51071e+09
-0.00219727,0.0117188,1.02094,-0,-0.15213,-0,1.51071e+09
-0.00457764,0.0120239,1.01263,-0,-0.30426,0.15213,1.51071e+09
        0,0.0135498,1.01819,0.45639,0.30426,-0,1.51071e+09
        0,0.0135498,1.01819,0.45639,0.30426,-0,1.51071e+09
-0.0057373,0.0125122,1.01501,0.15213,0.15213,0.15213,1.51071e+09
-0.00335693,0.0147095,1.02228,-0,-0,0.15213,1.51071e+09
-0.00335693,0.0147095,1.02228,-0,-0,0.15213,1.51071e+09
-0.00421143,0.0115356,1.01318,-0,0.45639,0.15213,1.51071e+09
-0.00195312,0.0111694,1.0174,0.15213,0.30426,-0,1.51071e+09
-0.00195312,0.0111694,1.0174,0.15213,0.30426,-0,1.51071e+09
-0.0045166,0.012146,1.02258,-0,0.30426,0.15213,1.51071e+09
-0.0067749,0.0117188,1.0213,0.15213,0.45639,-0.30426,1.51071e+09
-0.0067749,0.0117188,1.0213,0.15213,0.45639,-0.30426,1.51071e+09
-0.00701904,0.0112305,1.02277,-0,-0.15213,-0,1.51071e+09
-0.00701904,0.00762939,1.021,-0,-0,-0,1.51071e+09
-0.00701904,0.00762939,1.021,-0,-0,-0,1.51071e+09
-0.003479,0.0122681,1.02057,0.30426,0.15213,-0.15213,1.51071e+09
-0.00567627,0.00927734,1.02319,-0,-0,-0,1.51071e+09
-0.00567627,0.00927734,1.02319,-0,-0,-0,1.51071e+09
-0.0055542,0.0123901,1.01929,-0,-0,0.30426,1.51071e+09
-0.00146484,0.0136108,1.01569,-0.15213,-0,0.15213,1.51071e+09
-0.00146484,0.0136108,1.01569,-0.15213,-0,0.15213,1.51071e+09
-0.000732422,0.0130615,1.02063,0.15213,0.15213,0.15213,1.51071e+09
-0.00531006,0.0126343,1.0202,-0.15213,-0,-0.15213,1.51071e+09
-0.00531006,0.0126343,1.0202,-0.15213,-0,-0.15213,1.51071e+09
-0.00402832,0.0117798,1.01776,-0.15213,0.15213,-0.30426,1.51071e+09
-0.00335693,0.00927734,1.02124,-0,0.15213,0.15213,1.51071e+09
-0.00335693,0.00927734,1.02124,-0,0.15213,0.15213,1.51071e+09
-0.0045166,0.0101929,1.0213,0.15213,0.30426,0.30426,1.51071e+09
-0.00769043,0.0106812,1.0199,0.15213,0.15213,0.15213,1.51071e+09
-0.00769043,0.0106812,1.0199,0.15213,0.15213,0.15213,1.51071e+09
-0.00378418,0.00933838,1.02002,-0,-0.30426,0.15213,1.51071e+09
-0.00634766,0.0139771,1.01807,0.15213,0.30426,0.15213,1.51071e+09
-0.00634766,0.0139771,1.01807,0.15213,0.30426,0.15213,1.51071e+09
-0.00567627,0.0101318,1.02075,-0.15213,-0.15213,0.15213,1.51071e+09
-0.00372314,0.0146484,1.02136,0.15213,0.15213,-0,1.51071e+09
-0.00372314,0.0146484,1.02136,0.15213,0.15213,-0,1.51071e+09
-0.00219727,0.0141602,1.01733,-0.15213,-0.15213,-0,1.51071e+09
-0.00592041,0.010437,1.02075,0.30426,0.45639,0.15213,1.51071e+09
-0.00592041,0.010437,1.02075,0.30426,0.45639,0.15213,1.51071e+09
-0.00543213,0.0131836,1.02234,-0.15213,-0,-0,1.51071e+09
-0.00762939,0.0123291,1.01892,-0,-0,-0,1.51071e+09
-0.00762939,0.0123291,1.01892,-0,-0,-0,1.51071e+09
-0.00366211,0.0123901,1.02057,-0,0.15213,0.15213,1.51071e+09
-0.00878906,0.00976562,1.01996,-0,-0.30426,-0,1.51071e+09
-0.00878906,0.00976562,1.01996,-0,-0.30426,-0,1.51071e+09
-0.00726318,0.0115356,1.01636,-0,-0,-0.15213,1.51071e+09
-0.000671387,0.0100098,1.02173,-1.06491,-0.912781,-0,1.51071e+09
-0.000671387,0.0100098,1.02173,-1.06491,-0.912781,-0,1.51071e+09
-0.0012207,0.0107422,1.01678,-3.34686,-3.49899,0.15213,1.51071e+09
-0.00793457,0.0155029,1.0177,-3.65112,-3.95538,0.15213,1.51071e+09
-0.00793457,0.0155029,1.0177,-3.65112,-3.95538,0.15213,1.51071e+09
-0.00518799,0.0113525,1.02216,-3.19473,-3.0426,-0,1.51071e+09
-0.0043335,0.00775146,1.02301,0.15213,0.30426,0.45639,1.51071e+09
-0.0043335,0.00775146,1.02301,0.15213,0.30426,0.45639,1.51071e+09
-0.00671387,0.0148315,1.02026,-0.30426,-0.15213,0.15213,1.51071e+09
-0.00543213,0.0142212,1.02307,-0.45639,-0.30426,0.15213,1.51071e+09
-0.00543213,0.0142212,1.02307,-0.45639,-0.30426,0.15213,1.51071e+09
-0.00494385,0.0133667,1.01917,-0.760651,-0.30426,-0.15213,1.51071e+09
-0.00720215,0.0132446,1.01575,-0.760651,-0.45639,-0,1.51071e+09
-0.00720215,0.0132446,1.01575,-0.760651,-0.45639,-0,1.51071e+09
-0.00878906,0.0102539,1.01892,-0.45639,-0.30426,0.15213,1.51071e+09
-0.00543213,0.00750732,1.03235,0.15213,0.30426,0.45639,1.51071e+09
-0.00543213,0.00750732,1.03235,0.15213,0.30426,0.45639,1.51071e+09
-0.00695801,0.0175171,1.02216,-0.912781,-0.45639,0.15213,1.51071e+09
0.0100708,0.0736694,1.01923,-1.67343,-0.760651,6.84586,1.51071e+09
0.0100708,0.0736694,1.01923,-1.67343,-0.760651,6.84586,1.51071e+09
0.0523071,0.0307007,1.08429,-8.21503,-1.21704,33.0122,1.51071e+09
-0.0438232,-0.0881958,1.1402,-42.14,-0.45639,31.4909,1.51071e+09
-0.0438232,-0.0881958,1.1402,-42.14,-0.45639,31.4909,1.51071e+09
0.00012207,-0.0515747,1.24152,-93.1036,2.12982,20.0812,1.51071e+09
0.0285645,-0.0549927,1.26892,-171.299,1.36917,23.7323,1.51071e+09
0.0285645,-0.0549927,1.26892,-171.299,1.36917,23.7323,1.51071e+09
0.0618896,-0.0352783,1.24609,-261.512,2.43408,29.9696,1.51071e+09
0.0285034,0.0410767,1.25623,-347.769,3.19473,35.5984,1.51071e+09
0.0285034,0.0410767,1.25623,-347.769,3.19473,35.5984,1.51071e+09
-0.0452271,0.195679,1.20386,-437.526,4.71603,35.4463,1.51071e+09
-0.0703735,0.259766,1.10345,-513.896,1.82556,-2.89047,1.51071e+09
-0.0703735,0.259766,1.10345,-513.896,1.82556,-2.89047,1.51071e+09
0.0462646,0.322876,1.01007,-570.64,-3.65112,-27.9919,1.51071e+09
 0.137268,0.386414,1.01416,-612.02,-0,-11.2576,1.51071e+09
 0.137268,0.386414,1.01416,-612.02,-0,-11.2576,1.51071e+09
 0.122314,0.470459,0.94812,-652.334,10.0406,17.1907,1.51071e+09
-0.0114746,0.492737,1.0415,-698.277,4.5639,17.7992,1.51071e+09
-0.0114746,0.492737,1.0415,-698.277,4.5639,17.7992,1.51071e+09
0.0516357,0.584045,0.680786,-743.916,17.7992,22.0589,1.51071e+09
0.0596924,0.617981,0.812927,-785.144,19.0163,20.2333,1.51071e+09
0.0596924,0.617981,0.812927,-785.144,19.0163,20.2333,1.51071e+09
 0.143616,0.6828,0.556946,-795.184,21.6025,15.0609,1.51071e+09
0.0631714,0.682495,0.532532,-780.123,-0,-4.25964,1.51071e+09
0.0631714,0.682495,0.532532,-780.123,-0,-4.25964,1.51071e+09
 0.027832,0.786499,0.609619,-725.204,-0.608521,-5.17242,1.51071e+09
-0.0617065,0.594482,0.270081,-662.07,-6.69373,-2.73834,1.51071e+09
-0.0617065,0.594482,0.270081,-662.07,-6.69373,-2.73834,1.51071e+09
-0.127808,0.667847,0.363342,-568.662,-28.9047,-18.2556,1.51071e+09
-0.119995,0.789795,0.479004,-455.325,-15.8215,-9.73633,1.51071e+09
-0.119995,0.789795,0.479004,-455.325,-15.8215,-9.73633,1.51071e+09
-0.175964,0.760925,0.546814,-368.155,-3.34686,-1.5213,1.51071e+09
-0.227722,0.885315,0.765137,-289.352,5.47668,3.95538,1.51071e+09
-0.227722,0.885315,0.765137,-289.352,5.47668,3.95538,1.51071e+09
-0.163452,0.855896,0.635925,-234.433,-7.30225,-1.36917,1.51071e+09
-0.0445557,0.815002,0.602539,-224.848,-0,0.760651,1.51071e+09
-0.0445557,0.815002,0.602539,-224.848,-0,0.760651,1.51071e+09
 0.146423,0.852905,0.51825,-240.67,13.8438,5.78094,1.51071e+09
 0.133911,0.898682,0.447632,-236.106,-5.78094,-2.12982,1.51071e+09
 0.133911,0.898682,0.447632,-236.106,-5.78094,-2.12982,1.51071e+09
0.000732422,0.927551,0.351624,-227.587,-0.30426,0.608521,1.51071e+09
0.00634766,0.942139,0.342346,-237.323,1.06491,1.21704,1.51071e+09
0.00634766,0.942139,0.342346,-237.323,1.06491,1.21704,1.51071e+09
0.0983887,0.956238,0.277771,-251.015,7.75864,2.89047,1.51071e+09
0.0713501,0.972534,0.253479,-261.664,13.0832,3.95538,1.51071e+09
0.0713501,0.972534,0.253479,-261.664,13.0832,3.95538,1.51071e+09
-0.0325928,0.968384,0.222473,-275.203,12.9311,3.65112,1.51071e+09
-0.0895996,0.984741,0.18634,-265.315,2.89047,1.36917,1.51071e+09
-0.0895996,0.984741,0.18634,-265.315,2.89047,1.36917,1.51071e+09
-0.0581665,0.984192,0.187256,-250.863,-7.45438,-0.912781,1.51071e+09
0.00860596,0.989197,0.114258,-247.516,-13.3875,-1.5213,1.51071e+09
0.00860596,0.989197,0.114258,-247.516,-13.3875,-1.5213,1.51071e+09
0.0292358,0.969543,0.0838013,-252.688,-35.4463,-4.25964,1.51071e+09
0.00274658,1.00012,0.103088,-258.773,-46.0954,-4.71603,1.51071e+09
0.00274658,1.00012,0.103088,-258.773,-46.0954,-4.71603,1.51071e+09
-0.0554199,0.972229,0.140198,-265.923,-33.7729,-1.82556,1.51071e+09
0.0418701,1.01025,0.0740356,-280.224,5.62881,5.62881,1.51071e+09
0.0418701,1.01025,0.0740356,-280.224,5.62881,5.62881,1.51071e+09
-0.113403,1.30505,-0.06073,-257.556,5.02029,-20.8418,1.51071e+09
0.000305176,0.967224,-0.147034,-188.337,6.5416,2.43408,1.51071e+09
0.000305176,0.967224,-0.147034,-188.337,6.5416,2.43408,1.51071e+09
0.00860596,1.03741,-0.173523,-137.221,7.15012,0.608521,1.51071e+09
-0.0189819,1.01215,-0.132935,-97.5154,30.8824,-1.67343,1.51071e+09
-0.0189819,1.01215,-0.132935,-97.5154,30.8824,-1.67343,1.51071e+09
-0.0458984,1.0238,-0.140442,-56.2881,51.42,-2.73834,1.51071e+09
-0.0336914,1.0285,-0.119995,-10.3448,70.8926,-3.19473,1.51071e+09
-0.0336914,1.0285,-0.119995,-10.3448,70.8926,-3.19473,1.51071e+09
-0.0141602,1.02637,-0.125488,35.7506,80.3247,-4.86816,1.51071e+09
0.000488281,1.01105,-0.127808,73.0225,77.5864,-4.10751,1.51071e+09
0.000488281,1.01105,-0.127808,73.0225,77.5864,-4.10751,1.51071e+09
0.00909424,1.02222,-0.0556641,91.7345,72.4139,-2.43408,1.51071e+09
0.0301514,1.01746,-0.0358276,97.6675,63.8947,0.30426,1.51071e+09
0.0301514,1.01746,-0.0358276,97.6675,63.8947,0.30426,1.51071e+09
-0.00238037,1.0166,0.00634766,92.0387,53.3977,-0.30426,1.51071e+09
0.00909424,1.01434,0.00341797,85.1929,41.3794,-1.5213,1.51071e+09
-0.0145874,1.06873,0.0129395,80.1726,34.6857,-1.67343,1.51071e+09
-0.0145874,1.06873,0.0129395,80.1726,34.6857,-1.67343,1.51071e+09
0.0288696,1.01605,0.0907593,51.8764,6.84586,4.71603,1.51071e+09
0.0288696,1.01605,0.0907593,51.8764,6.84586,4.71603,1.51071e+09
0.0136719,1.01581,0.0700684,35.2942,3.95538,2.12982,1.51071e+09
-0.00524902,0.999573,0.0318604,28.2962,1.21704,1.82556,1.51071e+09
-0.00579834,1.00244,0.0425415,20.8418,3.80325,0.912781,1.51071e+09
-0.00579834,1.00244,0.0425415,20.8418,3.80325,0.912781,1.51071e+09
-0.0125122,1.00232,0.0470581,8.97568,8.82355,0.45639,1.51071e+09
 0.020874,1.01929,0.0735474,-1.06491,12.6268,0.30426,1.51071e+09
 0.020874,1.01929,0.0735474,-1.06491,12.6268,0.30426,1.51071e+09
0.000915527,1.00879,0.0496216,-0.30426,1.82556,0.15213,1.51071e+09
0.00244141,1.01208,0.0375977,-3.49899,0.45639,0.45639,1.51071e+09
0.00628662,1.01471,0.0315552,-5.93307,-0,-0,1.51071e+09
0.00628662,1.01471,0.0315552,-5.93307,-0,-0,1.51071e+09
0.00219727,1.01666,0.022583,-6.08521,0.15213,0.15213,1.51071e+09
0.00146484,1.0177,0.0261841,-5.62881,0.15213,-0.30426,1.51071e+09
0.00146484,1.0177,0.0261841,-5.62881,0.15213,-0.30426,1.51071e+09
-0.0045166,1.01575,0.0265503,-4.86816,0.30426,-0.45639,1.51071e+09
-0.00317383,1.01337,0.0263672,-4.5639,-0.15213,-0,1.51071e+09
-0.00317383,1.01337,0.0263672,-4.5639,-0.15213,-0,1.51071e+09
-0.00195312,1.01801,0.0271606,-5.32455,-0.15213,-0,1.51071e+09
-0.00128174,1.01904,0.0204468,-4.25964,0.30426,-0,1.51071e+09
-0.00128174,1.01904,0.0204468,-4.25964,0.30426,-0,1.51071e+09
-0.00292969,1.01208,0.0186768,-3.0426,-0,-0.15213,1.51071e+09
-0.00012207,1.01624,0.0166016,-1.06491,-0.15213,-0,1.51071e+09
-0.00012207,1.01624,0.0166016,-1.06491,-0.15213,-0,1.51071e+09
-0.00170898,1.01373,0.0216675,0.45639,0.15213,-0,1.51071e+09
0.000427246,1.01471,0.0247192,0.45639,0.30426,0.30426,1.51071e+09
0.000427246,1.01471,0.0247192,0.45639,0.30426,0.30426,1.51071e+09
-0.00109863,1.01569,0.020813,-0,-0,0.15213,1.51071e+09
-0.000732422,1.01862,0.0199585,0.608521,-0,0.30426,1.51071e+09
-0.000732422,1.01862,0.0199585,0.608521,-0,0.30426,1.51071e+09
0.00140381,1.01483,0.0166016,1.36917,-0.15213,0.15213,1.51071e+09
0.000305176,1.01593,0.0228882,1.97769,0.15213,0.15213,1.51071e+09
0.000305176,1.01593,0.0228882,1.97769,0.15213,0.15213,1.51071e+09
0.00012207,1.01691,0.0284424,2.43408,0.15213,0.15213,1.51071e+09
-0.000305176,1.01685,0.0267944,1.67343,-0,0.30426,1.51071e+09
-0.000305176,1.01685,0.0267944,1.67343,-0,0.30426,1.51071e+09
-0.00366211,1.01318,0.0254517,1.5213,0.15213,-0,1.51071e+09
-0.00286865,1.01447,0.0258789,2.12982,0.30426,0.30426,1.51071e+09
-0.000549316,1.01465,0.0275269,2.43408,0.45639,0.15213,1.51071e+09
-0.000549316,1.01465,0.0275269,2.43408,0.45639,0.15213,1.51071e+09
0.0020752,1.01398,0.0298462,1.97769,-0,-0,1.51071e+09
0.0020752,1.01398,0.0298462,1.97769,-0,-0,1.51071e+09
-0.00195312,1.01648,0.0269775,0.760651,0.15213,0.30426,1.51071e+09
-0.000488281,1.01691,0.0196533,0.45639,0.15213,0.45639,1.51071e+09
-0.000488281,1.01691,0.0196533,0.45639,0.15213,0.45639,1.51071e+09
-0.00262451,1.01776,0.0172729,3.0426,0.15213,0.45639,1.51071e+09
-0.00262451,1.01697,0.0264282,5.47668,0.15213,0.608521,1.51071e+09
-0.0010376,1.01404,0.0269165,6.38947,0.15213,0.45639,1.51071e+09
-0.0010376,1.01404,0.0269165,6.38947,0.15213,0.45639,1.51071e+09
0.00158691,1.01355,0.0288696,5.17242,0.45639,0.30426,1.51071e+09
0.00158691,1.01355,0.0288696,5.17242,0.45639,0.30426,1.51071e+09
-0.00439453,1.01245,0.0352173,2.73834,0.45639,-0,1.51071e+09
-0.0100098,1.01202,0.0258789,-0.760651,2.28195,0.30426,1.51071e+09
-0.0100098,1.01202,0.0258789,-0.760651,2.28195,0.30426,1.51071e+09
-0.0043335,1.01691,0.0215454,-5.78094,10.497,0.15213,1.51071e+09
0.00457764,1.02228,0.0282593,0.15213,4.25964,0.45639,1.51071e+09
0.00457764,1.02228,0.0282593,0.15213,4.25964,0.45639,1.51071e+09
-0.000976562,1.01385,0.0281982,2.73834,0.912781,0.30426,1.51071e+09
-0.000549316,1.00897,0.0340576,1.21704,0.760651,0.30426,1.51071e+09
-0.000549316,1.00897,0.0340576,1.21704,0.760651,0.30426,1.51071e+09
-0.000427246,1.02136,0.0150146,0.15213,1.21704,0.15213,1.51071e+09
-0.000183105,1.01508,0.0214844,1.97769,0.912781,0.30426,1.51071e+09
-0.00695801,1.0127,0.0348511,2.43408,1.06491,-0,1.51071e+09
-0.00695801,1.0127,0.0348511,2.43408,1.06491,-0,1.51071e+09
-0.00830078,1.00873,0.0334473,-1.21704,3.95538,0.45639,1.51071e+09
-0.00830078,1.00873,0.0334473,-1.21704,3.95538,0.45639,1.51071e+09
-0.00421143,1.01428,0.0301514,-5.32455,6.5416,-0,1.51071e+09
-0.00128174,1.01324,0.0214844,-6.99799,8.36716,0.30426,1.51071e+09
-0.00128174,1.01324,0.0214844,-6.99799,8.36716,0.30426,1.51071e+09
0.00341797,1.01617,0.0275879,-6.84586,10.1927,0.45639,1.51071e+09
0.00408936,1.01776,0.0182495,-2.73834,6.23734,0.608521,1.51071e+09
0.00408936,1.01776,0.0182495,-2.73834,6.23734,0.608521,1.51071e+09
-0.00311279,1.01733,0.0151978,0.30426,4.71603,0.30426,1.51071e+09
-0.00860596,1.01117,0.0117798,-0,7.91077,0.45639,1.51071e+09
-0.00860596,1.01117,0.0117798,-0,7.91077,0.45639,1.51071e+09
0.00152588,1.01794,0.0283203,1.06491,8.36716,0.608521,1.51071e+09
-0.003479,1.01599,0.026123,5.17242,5.78094,0.45639,1.51071e+09
-0.00598145,1.01099,0.0232544,3.0426,7.75864,0.15213,1.51071e+09
-0.00598145,1.01099,0.0232544,3.0426,7.75864,0.15213,1.51071e+09
0.00219727,1.01648,0.0353394,-0.608521,9.43207,0.30426,1.51071e+09
0.00219727,1.01648,0.0353394,-0.608521,9.43207,0.30426,1.51071e+09
0.00421143,1.01648,0.046814,-0.760651,5.78094,0.30426,1.51071e+09
-0.000549316,1.01245,0.0423584,-1.5213,0.760651,-0,1.51071e+09
-0.000549316,1.01245,0.0423584,-1.5213,0.760651,-0,1.51071e+09
-0.00384521,1.01007,0.038147,-5.17242,-0.15213,-0.15213,1.51071e+09
-0.00445557,1.0127,0.0375366,-8.0629,-0,-0,1.51071e+09
-0.00445557,1.0127,0.0375366,-8.0629,-0,-0,1.51071e+09
-0.00439453,1.01556,0.0286865,-9.73633,-0,-0.15213,1.51071e+09
0.000610352,1.01483,0.0177612,-9.5842,-0,-0.15213,1.51071e+09
0.000610352,1.01483,0.0177612,-9.5842,-0,-0.15213,1.51071e+09
-0.000793457,1.01648,0.0164185,-9.12781,0.15213,-0.45639,1.51071e+09
-0.0012207,1.01544,0.0200195,-7.91077,0.15213,-0.45639,1.51071e+09
-0.0012207,1.01544,0.0200195,-7.91077,0.15213,-0.45639,1.51071e+09
-0.00567627,1.01898,0.0153809,-6.99799,0.30426,-0.45639,1.51071e+09
-0.00323486,1.01379,0.0139771,-5.93307,1.82556,-0.45639,1.51071e+09
-0.00183105,1.01422,0.00756836,-7.60651,3.49899,-0.30426,1.51071e+09
-0.00183105,1.01422,0.00756836,-7.60651,3.49899,-0.30426,1.51071e+09
0.00146484,1.01593,0.00811768,-9.88846,7.45438,-0.30426,1.51071e+09
0.00146484,1.01593,0.00811768,-9.88846,7.45438,-0.30426,1.51071e+09
0.00286865,1.0213,0.00830078,-6.5416,7.15012,-0,1.51071e+09
0.000793457,1.0202,0.0146484,1.06491,0.912781,0.608521,1.51071e+09
0.000793457,1.0202,0.0146484,1.06491,0.912781,0.608521,1.51071e+09
-0.00262451,1.0152,0.0212402,3.34686,0.45639,0.45639,1.51071e+09
-0.00317383,1.01233,0.0248413,1.97769,0.608521,0.30426,1.51071e+09
-0.00158691,1.0174,0.0213623,0.760651,0.30426,0.30426,1.51071e+09
-0.00158691,1.0174,0.0213623,0.760651,0.30426,0.30426,1.51071e+09
0.00134277,1.01624,0.0268555,-0.760651,-0,0.15213,1.51071e+09
0.00134277,1.01624,0.0268555,-0.760651,-0,0.15213,1.51071e+09
-0.00201416,1.01416,0.0206909,-2.28195,-0,-0,1.51071e+09
-0.00360107,1.01239,0.0205688,-3.49899,-0.15213,0.15213,1.51071e+09
-0.00360107,1.01239,0.0205688,-3.49899,-0.15213,0.15213,1.51071e+09
-0.00268555,1.01587,0.0197144,-4.86816,0.30426,-0.15213,1.51071e+09
0.000854492,1.01471,0.0157471,-4.71603,-0,-0.15213,1.51071e+09
-6.10352e-05,1.01575,0.0129395,-2.89047,0.15213,-0.15213,1.51071e+09
-6.10352e-05,1.01575,0.0129395,-2.89047,0.15213,-0.15213,1.51071e+09
 0.003479,1.01624,0.010376,-1.21704,-0,0.15213,1.51071e+09
 0.003479,1.01624,0.010376,-1.21704,-0,0.15213,1.51071e+09
0.000854492,1.01532,0.0162964,-0.45639,0.45639,-0,1.51071e+09
0.00213623,1.01447,0.0163574,-2.12982,-0.30426,-0,1.51071e+09
0.00213623,1.01447,0.0163574,-2.12982,-0.30426,-0,1.51071e+09
-0.0012207,1.01746,0.0125732,-2.28195,0.15213,-0,1.51071e+09
-0.00408936,1.01581,0.0150757,-1.82556,-0,-0,1.51071e+09
-0.00408936,1.01581,0.0150757,-1.82556,-0,-0,1.51071e+09
-0.00384521,1.01501,0.0123291,-0.45639,-0,-0,1.51071e+09
-0.000915527,1.01678,0.0112305,0.760651,0.45639,0.30426,1.51071e+09
0.000305176,1.01569,0.0158081,1.06491,0.30426,0.30426,1.51071e+09
0.000305176,1.01569,0.0158081,1.06491,0.30426,0.30426,1.51071e+09
0.000854492,1.01508,0.0189819,-0.45639,-0.30426,0.30426,1.51071e+09
0.000854492,1.01508,0.0189819,-0.45639,-0.30426,0.30426,1.51071e+09
0.000305176,1.01569,0.0206299,-1.5213,-0,-0,1.51071e+09
0.00115967,1.01642,0.0181274,-1.5213,-0,-0,1.51071e+09
0.00115967,1.01642,0.0181274,-1.5213,-0,-0,1.51071e+09
-0.000793457,1.01685,0.0143433,-1.67343,0.30426,-0,1.51071e+09
0.0010376,1.01257,0.0126343,-1.97769,-0,0.15213,1.51071e+09
0.0010376,1.01257,0.0126343,-1.97769,-0,0.15213,1.51071e+09
-0.000671387,1.01691,0.0110474,-1.21704,0.15213,0.30426,1.51071e+09
-0.00109863,1.01636,0.0123291,-1.06491,0.15213,-0,1.51071e+09
-0.00109863,1.01636,0.0123291,-1.06491,0.15213,-0,1.51071e+09
-0.0012207,1.01483,0.0125732,-0.608521,-0.608521,0.30426,1.51071e+09
-0.00213623,1.01385,0.0108643,0.15213,0.15213,-0.15213,1.51071e+09
-0.00213623,1.01385,0.0108643,0.15213,0.15213,-0.15213,1.51071e+09
-0.00183105,1.01605,0.0110474,-0.30426,-0,0.15213,1.51071e+09
-0.000610352,1.01678,0.0130615,-0.912781,0.45639,0.30426,1.51071e+09
-0.00354004,1.01318,0.0111084,-1.06491,0.15213,0.15213,1.51071e+09
-0.00354004,1.01318,0.0111084,-1.06491,0.15213,0.15213,1.51071e+09
0.000244141,1.01624,0.0125732,-0,-0,0.15213,1.51071e+09
0.000244141,1.01624,0.0125732,-0,-0,0.15213,1.51071e+09
-0.000427246,1.01654,0.00976562,1.06491,0.30426,0.30426,1.51071e+09
-0.00152588,1.0166,0.0100708,1.5213,0.15213,-0,1.51071e+09
-0.00152588,1.0166,0.0100708,1.5213,0.15213,-0,1.51071e+09
-0.000732422,1.01233,0.015686,1.21704,0.15213,0.30426,1.51071e+09
0.00256348,1.01593,0.0144653,0.30426,-0,0.30426,1.51071e+09
0.000854492,1.01721,0.0133667,-0,0.15213,0.30426,1.51071e+09
0.000854492,1.01721,0.0133667,-0,0.15213,0.30426,1.51071e+09
0.000366211,1.01556,0.0134888,0.45639,0.30426,0.15213,1.51071e+09
0.000366211,1.01556,0.0134888,0.45639,0.30426,0.15213,1.51071e+09
0.000549316,1.0152,0.012146,0.608521,0.30426,0.30426,1.51071e+09
-0.00146484,1.01331,0.0136108,0.15213,0.15213,0.15213,1.51071e+09
-0.00146484,1.01331,0.0136108,0.15213,0.15213,0.15213,1.51071e+09
-0.00115967,1.01691,0.0169678,-0.45639,-0.30426,0.15213,1.51071e+09
-0.00256348,1.01624,0.0175171,-1.5213,-0,0.15213,1.51071e+09
-0.00427246,1.01379,0.0137939,-0.608521,0.15213,0.15213,1.51071e+09
-0.00427246,1.01379,0.0137939,-0.608521,0.15213,0.15213,1.51071e+09
-0.00109863,1.01532,0.0158081,1.21704,0.30426,0.30426,1.51071e+09
-0.00109863,1.01532,0.0158081,1.21704,0.30426,0.30426,1.51071e+09
-0.00457764,1.01068,0.0145264,2.12982,0.30426,0.45639,1.51071e+09
0.00231934,1.01904,0.0149536,0.912781,-0,0.15213,1.51071e+09
0.00231934,1.01904,0.0149536,0.912781,-0,0.15213,1.51071e+09
-0.0020752,1.01611,0.0131836,0.15213,0.15213,0.15213,1.51071e+09
0.000488281,1.0166,0.0111084,0.15213,0.15213,-0,1.51071e+09
-0.00341797,1.01624,0.0115967,0.45639,0.45639,-0,1.51071e+09
-0.00341797,1.01624,0.0115967,0.45639,0.45639,-0,1.51071e+09
-0.00152588,1.01404,0.0164795,0.608521,0.30426,-0,1.51071e+09
-0.00152588,1.01404,0.0164795,0.608521,0.30426,-0,1.51071e+09
-0.00323486,1.01605,0.0181274,0.15213,0.30426,0.15213,1.51071e+09
-0.000610352,1.01465,0.0159302,-0.912781,0.15213,0.30426,1.51071e+09
-0.000610352,1.01465,0.0159302,-0.912781,0.15213,0.30426,1.51071e+09
-0.000549316,1.01385,0.0144653,-1.36917,-0,-0,1.51071e+09
0.00128174,1.01697,0.0159912,-0.912781,0.30426,-0.15213,1.51071e+09
0.00152588,1.01733,0.0103149,-0.912781,-0.15213,0.15213,1.51071e+09
0.00152588,1.01733,0.0103149,-0.912781,-0.15213,0.15213,1.51071e+09
-0.00335693,1.01556,0.0150757,-0,-0.15213,0.15213,1.51071e+09
-0.00335693,1.01556,0.0150757,-0,-0.15213,0.15213,1.51071e+09
-0.000549316,1.01569,0.0134888,0.912781,0.45639,0.15213,1.51071e+09
0.00189209,1.01526,0.0186768,0.760651,0.45639,-0,1.51071e+09
0.00189209,1.01526,0.0186768,0.760651,0.45639,-0,1.51071e+09
-0.000244141,1.01239,0.0183105,-0.45639,0.15213,0.15213,1.51071e+09
-0.000549316,1.01556,0.0145874,-1.06491,-0.15213,0.15213,1.51071e+09
-0.00012207,1.01465,0.0134888,-1.21704,-0.15213,0.15213,1.51071e+09
-0.00012207,1.01465,0.0134888,-1.21704,-0.15213,0.15213,1.51071e+09
-0.00134277,1.0166,0.0126343,-0.608521,0.15213,-0.15213,1.51071e+09
-0.00134277,1.0166,0.0126343,-0.608521,0.15213,-0.15213,1.51071e+09
-0.000244141,1.01361,0.0133057,-0,-0.15213,0.30426,1.51071e+09
-0.00476074,1.01453,0.0200195,0.15213,-0,-0.15213,1.51071e+09
-0.00476074,1.01453,0.0200195,0.15213,-0,-0.15213,1.51071e+09
-0.00512695,1.01447,0.0125122,0.30426,0.45639,0.15213,1.51071e+09
-0.00152588,1.01007,0.010437,0.30426,0.15213,0.15213,1.51071e+09
-0.00152588,1.01007,0.010437,0.30426,0.15213,0.15213,1.51071e+09
-0.00195312,1.00977,0.00970459,0.608521,0.15213,0.30426,1.51071e+09
0.00299072,1.01715,0.0140381,0.30426,0.30426,-0,1.51071e+09
0.00299072,1.01715,0.0140381,0.30426,0.30426,-0,1.51071e+09
0.00335693,1.01294,0.0166626,0.45639,-0,0.15213,1.51071e+09
0.00012207,1.01355,0.0166626,-0,-0.15213,0.15213,1.51071e+09
0.00012207,1.01355,0.0166626,-0,-0.15213,0.15213,1.51071e+09
-0.00408936,1.01245,0.0100098,-0.760651,0.15213,-0,1.51071e+09
-0.000305176,1.01355,0.00976562,-1.21704,0.15213,-0,1.51071e+09
-0.000305176,1.01355,0.00976562,-1.21704,0.15213,-0,1.51071e+09
-0.000366211,1.01495,0.00756836,-0.912781,-0,0.15213,1.51071e+09
-0.00134277,1.0141,0.0115967,0.760651,0.30426,0.30426,1.51071e+09
-0.00134277,1.0141,0.0115967,0.760651,0.30426,0.30426,1.51071e+09
-0.00427246,1.01355,0.0154419,1.5213,-0,0.30426,1.51071e+09
-0.00518799,1.01782,0.0195312,1.21704,-0,0.45639,1.51071e+09
-0.00518799,1.01782,0.0195312,1.21704,-0,0.45639,1.51071e+09
-0.00427246,1.01758,0.0221558,0.30426,0.45639,0.15213,1.51071e+09
0.00201416,1.01733,0.0136719,-0.45639,0.30426,0.15213,1.51071e+09
0.00201416,1.01733,0.0136719,-0.45639,0.30426,0.15213,1.51071e+09
0.00518799,1.01569,0.0130005,0.15213,0.45639,0.15213,1.51071e+09
0.00335693,1.01617,0.0108032,0.30426,-0,0.15213,1.51071e+09
0.00335693,1.01617,0.0108032,0.30426,-0,0.15213,1.51071e+09
0.00189209,1.01434,0.0174561,-0.30426,-0,0.15213,1.51071e+09
-0.00213623,1.0141,0.0178223,-1.97769,-0,-0.15213,1.51071e+09
-0.00213623,1.0141,0.0178223,-1.97769,-0,-0.15213,1.51071e+09
-0.00634766,1.01337,0.00811768,-3.0426,0.15213,-0,1.51071e+09
-0.00323486,1.01715,0.00628662,-0.912781,-0,-0,1.51071e+09
-0.00323486,1.01715,0.00628662,-0.912781,-0,-0,1.51071e+09
-0.00268555,1.01721,0.0116577,0.608521,0.30426,0.30426,1.51071e+09
-0.00378418,1.01562,0.0145264,0.912781,0.30426,0.30426,1.51071e+09
-0.00378418,1.01562,0.0145264,0.912781,0.30426,0.30426,1.51071e+09
-0.00152588,1.01593,0.00671387,2.73834,-0.15213,0.45639,1.51071e+09
-0.00152588,1.01636,0.0130615,5.02029,0.30426,1.06491,1.51071e+09
-0.00152588,1.01636,0.0130615,5.02029,0.30426,1.06491,1.51071e+09
-0.00372314,1.01276,0.0201416,5.47668,0.30426,0.608521,1.51071e+09
0.0020752,1.01447,0.0233765,4.71603,-0,0.30426,1.51071e+09
0.0020752,1.01447,0.0233765,4.71603,-0,0.30426,1.51071e+09
-0.000427246,1.01556,0.0151367,3.80325,0.15213,0.760651,1.51071e+09
0.0012207,1.01819,0.0162964,3.65112,0.30426,0.45639,1.51071e+09
0.0012207,1.01819,0.0162964,3.65112,0.30426,0.45639,1.51071e+09
-0.00311279,1.0108,0.0211792,2.89047,0.45639,0.45639,1.51071e+09
-0.0012207,1.0163,0.0210571,1.06491,0.15213,-0,1.51071e+09
-0.0012207,1.0163,0.0210571,1.06491,0.15213,-0,1.51071e+09
-0.00286865,1.01318,0.020752,-1.21704,-0,0.15213,1.51071e+09
-0.00732422,1.02051,0.0170898,-2.43408,-0,-0,1.51071e+09
-0.00732422,1.02051,0.0170898,-2.43408,-0,-0,1.51071e+09
-0.00408936,1.01843,0.0206909,-1.67343,0.15213,0.15213,1.51071e+09
-0.000183105,1.01416,0.0171509,-0.30426,-0.15213,0.15213,1.51071e+09
-0.000183105,1.01416,0.0171509,-0.30426,-0.15213,0.15213,1.51071e+09
-0.00390625,1.01746,0.020874,1.67343,0.15213,0.30426,1.51071e+09
-0.00158691,1.01312,0.0251465,1.5213,-0.15213,0.608521,1.51071e+09
-0.00158691,1.01312,0.0251465,1.5213,-0.15213,0.608521,1.51071e+09
-0.000732422,1.01733,0.0192261,1.36917,-0,0.15213,1.51071e+09
-0.000793457,1.01208,0.0233765,0.608521,0.15213,0.30426,1.51071e+09
-0.000793457,1.01208,0.0233765,0.608521,0.15213,0.30426,1.51071e+09
-0.00189209,1.01202,0.0180054,-1.5213,-0.45639,-0,1.51071e+09
-0.000854492,1.01715,0.0137329,-2.43408,0.15213,0.30426,1.51071e+09
-0.000732422,1.01233,0.0109863,-2.89047,-0,-0,1.51071e+09
-0.000732422,1.01233,0.0109863,-2.89047,-0,-0,1.51071e+09
0.00250244,1.01636,0.0115356,-2.28195,0.30426,-0.15213,1.51071e+09
0.00250244,1.01636,0.0115356,-2.28195,0.30426,-0.15213,1.51071e+09
0.0045166,1.01788,0.0117798,-1.06491,-0,-0,1.51071e+09
0.0022583,1.01648,0.0186768,-0.30426,0.45639,0.15213,1.51071e+09
0.0022583,1.01648,0.0186768,-0.30426,0.45639,0.15213,1.51071e+09
-0.00372314,1.0166,0.0222168,-1.06491,0.15213,0.15213,1.51071e+09
-0.00250244,1.01733,0.0120239,-0.608521,-0.15213,-0.15213,1.51071e+09
-0.00250244,1.01733,0.0120239,-0.608521,-0.15213,-0.15213,1.51071e+09
-0.00549316,1.01855,0.00927734,1.97769,0.30426,0.45639,1.51071e+09
-0.00646973,1.01367,0.0162354,3.65112,0.30426,0.45639,1.51071e+09
-0.00646973,1.01367,0.0162354,3.65112,0.30426,0.45639,1.51071e+09
-0.00280762,1.01276,0.0184326,3.65112,0.15213,0.45639,1.51071e+09
-0.00512695,1.01758,0.0182495,2.43408,-0,0.45639,1.51071e+09
-0.00512695,1.01758,0.0182495,2.43408,-0,0.45639,1.51071e+09
-0.00152588,1.01569,0.00134277,2.89047,-0,0.608521,1.51071e+09
0.00268555,1.02203,-0.00390625,7.45438,0.15213,0.760651,1.51071e+09
0.00268555,1.02203,-0.00390625,7.45438,0.15213,0.760651,1.51071e+09
 0.003479,1.02533,-0.00292969,14.9088,0.30426,1.36917,1.51071e+09
0.00341797,1.01794,-0.000915527,22.6674,0.15213,1.67343,1.51071e+09
0.00341797,1.01794,-0.000915527,22.6674,0.15213,1.67343,1.51071e+09
0.00469971,1.02368,0.00469971,28.4483,0.15213,1.67343,1.51071e+09
-0.00354004,1.03113,0.00787354,35.1421,0.15213,0.912781,1.51071e+09
-0.00354004,1.03113,0.00787354,35.1421,0.15213,0.912781,1.51071e+09
-0.00463867,1.04547,-0.0545654,49.138,-0.45639,-0.30426,1.51071e+09
-0.00274658,1.06201,-0.0872803,83.3673,-0,-1.21704,1.51071e+09
-0.00274658,1.06201,-0.0872803,83.3673,-0,-1.21704,1.51071e+09
-0.00701904,1.06128,-0.0915527,129.006,-0.912781,-1.67343,1.51071e+09
-0.0057373,1.05481,-0.0687866,176.015,-0.30426,-1.5213,1.51071e+09
-0.0057373,1.05481,-0.0687866,176.015,-0.30426,-1.5213,1.51071e+09
-0.00933838,1.04266,-0.0368042,219.828,-0.45639,-0.15213,1.51071e+09
0.00195312,1.03912,-0.022583,262.729,-0.760651,-0.30426,1.51071e+09
0.00732422,1.03284,-0.0162354,312.475,-3.49899,-0.912781,1.51071e+09
0.00732422,1.03284,-0.0162354,312.475,-3.49899,-0.912781,1.51071e+09
0.00598145,1.01593,0.0539551,372.415,-13.8438,-2.89047,1.51071e+09
0.00598145,1.01593,0.0539551,372.415,-13.8438,-2.89047,1.51071e+09
-0.00335693,0.973694,0.090332,433.419,-24.493,-5.78094,1.51071e+09
-0.00921631,0.958496,0.161926,482.253,-31.6431,-9.12781,1.51071e+09
-0.00921631,0.958496,0.161926,482.253,-31.6431,-9.12781,1.51071e+09
-0.0323486,0.927246,0.244629,534.89,-14.3002,-5.78094,1.51071e+09
-0.0671387,0.796082,0.321899,594.068,10.9534,3.95538,1.51071e+09
-0.0671387,0.796082,0.321899,594.068,10.9534,3.95538,1.51071e+09
-0.0709839,0.682922,0.436768,660.701,42.9007,22.9716,1.51071e+09
-0.0479736,0.734009,0.494263,691.584,71.0448,40.7709,1.51071e+09
-0.0479736,0.734009,0.494263,691.584,71.0448,40.7709,1.51071e+09
0.000671387,0.664612,0.576111,677.74,76.5215,53.2455,1.51071e+09
0.0609741,0.661804,0.651733,666.026,63.7425,53.2455,1.51071e+09
0.0609741,0.661804,0.651733,666.026,63.7425,53.2455,1.51071e+09
0.0712891,0.638245,0.713867,659.788,70.7405,65.2638,1.51071e+09
-0.00524902,0.513367,0.761292,660.093,48.3774,52.637,1.51071e+09
-0.00524902,0.513367,0.761292,660.093,48.3774,52.637,1.51071e+09
0.00128174,0.48407,0.872559,664.2,19.6248,26.4706,1.51071e+09
-0.020813,0.363403,0.699036,684.281,1.5213,5.47668,1.51071e+09
-0.020813,0.363403,0.699036,684.281,1.5213,5.47668,1.51071e+09
0.0425415,0.401062,0.794189,698.582,1.97769,3.19473,1.51071e+09
-0.0360107,0.369873,0.859558,711.208,8.67142,21.4503,1.51071e+09
-0.0360107,0.369873,0.859558,711.208,8.67142,21.4503,1.51071e+09
0.00463867,0.278625,0.805786,721.401,13.3875,45.1826,1.51071e+09
0.0177002,0.29303,0.992371,723.531,11.1055,45.0305,1.51071e+09
0.0177002,0.29303,0.992371,723.531,11.1055,45.0305,1.51071e+09
0.00750732,0.09375,0.9328,716.077,5.32455,40.6187,1.51071e+09
0.0142212,0.0862427,0.960388,702.537,0.15213,30.8824,1.51071e+09
0.0142212,0.0862427,0.960388,702.537,0.15213,30.8824,1.51071e+09
0.00164795,-0.0212402,0.993774,691.127,-3.19473,3.65112,1.51071e+09
-0.298035,0.330811,1.99994,356.137,-229.26,3.34686,1.51071e+09
-0.298035,0.330811,1.99994,356.137,-229.26,3.34686,1.51071e+09
-0.105652,-0.504578,-0.272156,-4.5639,-96.1462,-87.3227,1.51071e+09
0.0604248,-0.25116,0.0919189,22.0589,179.97,-61.0042,1.51071e+09
0.0604248,-0.25116,0.0919189,22.0589,179.97,-61.0042,1.51071e+09
0.00610352,-0.21759,-0.895874,-83.8237,44.8784,-2.12982,1.51071e+09
-0.220459,0.174316,1.30597,63.134,-54.919,27.6877,1.51071e+09
-0.220459,0.174316,1.30597,63.134,-54.919,27.6877,1.51071e+09
-0.0998535,0.0145264,0.143005,2.58621,-8.67142,19.929,1.51071e+09
0.00708008,0.153931,1.09357,1.5213,1.06491,33.3165,1.51071e+09
0.00708008,0.153931,1.09357,1.5213,1.06491,33.3165,1.51071e+09
0.0424194,0.0353394,0.893738,-0.15213,1.21704,26.1664,1.51071e+09
0.0213623,0.0727539,1.0191,0.30426,1.82556,16.7343,1.51071e+09
0.0213623,0.0727539,1.0191,0.30426,1.82556,16.7343,1.51071e+09
0.00341797,0.0667725,1.04352,0.912781,0.15213,12.6268,1.51071e+09
0.0222168,0.0540161,0.983154,0.760651,-0,8.97568,1.51071e+09
0.0222168,0.0540161,0.983154,0.760651,-0,8.97568,1.51071e+09
-0.00726318,0.0513916,1.07343,1.67343,-0.45639,6.23734,1.51071e+09
-0.0236816,0.0361328,1.0127,0.15213,-0.15213,7.75864,1.51071e+09
-0.0236816,0.0361328,1.0127,0.15213,-0.15213,7.75864,1.51071e+09
0.0270996,0.0695801,0.976135,-0.912781,1.21704,6.5416,1.51071e+09
-0.0022583,0.0529175,1.05463,0.15213,0.760651,0.45639,1.51071e+09
-0.0022583,0.0529175,1.05463,0.15213,0.760651,0.45639,1.51071e+09
-0.00982666,0.0528564,0.974976,-0.608521,0.15213,0.15213,1.51071e+09
-0.0057373,0.0523071,1.03174,1.06491,-0.760651,0.30426,1.51071e+09
-0.0057373,0.0523071,1.03174,1.06491,-0.760651,0.30426,1.51071e+09
-0.00421143,0.0516968,1.03308,1.06491,-1.06491,0.15213,1.51071e+09
-0.00946045,0.0383301,0.998718,3.19473,-3.95538,1.97769,1.51071e+09
-0.00946045,0.0383301,0.998718,3.19473,-3.95538,1.97769,1.51071e+09
-0.0179443,0.0588989,1.03931,-2.12982,2.43408,1.36917,1.51071e+09
0.0308838,0.0388184,0.975342,-3.80325,4.10751,1.36917,1.51071e+09
0.0308838,0.0388184,0.975342,-3.80325,4.10751,1.36917,1.51071e+09
-0.00396729,0.0689697,1.03351,-2.89047,2.73834,2.89047,1.51071e+09
-0.00189209,0.0316772,1.02863,-0.608521,0.45639,0.15213,1.51071e+09
-0.00189209,0.0316772,1.02863,-0.608521,0.45639,0.15213,1.51071e+09
-0.00250244,0.00646973,0.991211,-0,0.30426,1.21704,1.51071e+09
-0.0221558,0.0442505,1.03064,1.67343,-1.21704,2.89047,1.51071e+09
-0.0221558,0.0442505,1.03064,1.67343,-1.21704,2.89047,1.51071e+09
-0.0196533,0.0842285,1.01611,-0.912781,1.36917,5.62881,1.51071e+09
-0.00280762,0.055603,0.998718,1.67343,-1.21704,3.65112,1.51071e+09
-0.00280762,0.055603,0.998718,1.67343,-1.21704,3.65112,1.51071e+09
-0.0194092,0.0387573,1.03265,4.10751,-3.19473,5.02029,1.51071e+09
-0.0169067,0.0442505,1.01831,4.71603,-5.17242,9.73633,1.51071e+09
-0.0150757,0.0617065,1.01184,7.91077,-7.75864,14.3002,1.51071e+09
-0.0150757,0.0617065,1.01184,7.91077,-7.75864,14.3002,1.51071e+09
-0.00634766,0.0892334,1.02661,5.93307,-5.93307,11.8661,1.51071e+09
-0.00634766,0.0892334,1.02661,5.93307,-5.93307,11.8661,1.51071e+09
-0.00146484,0.0775146,1.005,5.78094,-6.23734,7.91077,1.51071e+09
0.0130615,0.0767212,1.02759,11.2576,-12.0183,4.86816,1.51071e+09
0.0130615,0.0767212,1.02759,11.2576,-12.0183,4.86816,1.51071e+09
-0.00610352,0.0502319,1.02515,14.7566,-16.5822,0.912781,1.51071e+09
-0.0130615,0.0516968,1.0094,20.994,-23.7323,1.21704,1.51071e+09
-0.0130615,0.0516968,1.0094,20.994,-23.7323,1.21704,1.51071e+09
-0.0633545,0.0365601,1.02869,25.1015,-27.9919,3.49899,1.51071e+09
-0.0423584,0.0154419,1.00836,24.1887,-26.6228,12.4747,1.51071e+09
-0.0423584,0.0154419,1.00836,24.1887,-26.6228,12.4747,1.51071e+09
-0.0269775,0.0211182,1.00299,16.7343,-18.2556,11.8661,1.51071e+09
-0.00891113,0.0345459,1.00989,5.17242,-5.47668,6.99799,1.51071e+09
-0.00891113,0.0345459,1.00989,5.17242,-5.47668,6.99799,1.51071e+09
-0.0333252,0.0321655,1.00763,-4.41177,5.93307,0.15213,1.51071e+09
-0.0205078,0.0361328,1.03217,-6.5416,8.0629,0.30426,1.51071e+09
-0.0170288,0.0432129,1.02142,-4.10751,4.5639,0.30426,1.51071e+09
-0.0170288,0.0432129,1.02142,-4.10751,4.5639,0.30426,1.51071e+09
-0.0150146,0.0421143,1.01929,1.06491,-1.06491,0.608521,1.51071e+09
-0.0150146,0.0421143,1.01929,1.06491,-1.06491,0.608521,1.51071e+09
-0.0194702,0.0413818,1.02643,4.5639,-5.02029,0.30426,1.51071e+09
-0.0262451,0.0354614,1.01727,6.08521,-6.69373,0.45639,1.51071e+09
-0.0262451,0.0354614,1.01727,6.08521,-6.69373,0.45639,1.51071e+09
-0.0296021,0.0301514,1.01746,5.47668,-5.78094,0.608521,1.51071e+09
-0.0305176,0.0265503,1.02209,2.12982,-2.28195,0.608521,1.51071e+09
-0.0303345,0.031189,1.01373,-0,0.30426,0.45639,1.51071e+09
-0.0303345,0.031189,1.01373,-0,0.30426,0.45639,1.51071e+09
-0.0261841,0.0341187,1.02173,-2.12982,2.43408,0.608521,1.51071e+09
-0.0261841,0.0341187,1.02173,-2.12982,2.43408,0.608521,1.51071e+09
-0.0178833,0.036438,1.02032,-1.97769,2.28195,0.15213,1.51071e+09
-0.0213013,0.039917,1.01703,1.21704,-1.5213,0.45639,1.51071e+09
-0.0213013,0.039917,1.01703,1.21704,-1.5213,0.45639,1.51071e+09
-0.0280762,0.0343628,1.02112,2.73834,-2.73834,0.760651,1.51071e+09
-0.0300293,0.0308838,1.01404,1.5213,-1.82556,0.30426,1.51071e+09
-0.0300293,0.0308838,1.01404,1.5213,-1.82556,0.30426,1.51071e+09
-0.038269,0.0322266,1.01361,-0.30426,0.760651,0.30426,1.51071e+09
-0.0281372,0.0305176,1.01892,-3.34686,4.41177,1.67343,1.51071e+09
-0.0281372,0.0305176,1.01892,-3.34686,4.41177,1.67343,1.51071e+09
-0.0132446,0.031311,1.02417,-4.5639,6.08521,1.36917,1.51071e+09
-0.0182495,0.0396729,1.02496,-2.58621,2.89047,0.45639,1.51071e+09
-0.0182495,0.0396729,1.02496,-2.58621,2.89047,0.45639,1.51071e+09
-0.0223999,0.0355835,1.01965,-0,-0.608521,0.45639,1.51071e+09
-0.0233154,0.0349731,1.02039,1.06491,-1.06491,0.608521,1.51071e+09
-0.0233154,0.0349731,1.02039,1.06491,-1.06491,0.608521,1.51071e+09
-0.0273438,0.0350342,1.0188,0.912781,-1.21704,0.30426,1.51071e+09
-0.0286255,0.0317383,1.01471,-0.760651,1.06491,0.30426,1.51071e+09
-0.0286255,0.0317383,1.01471,-0.760651,1.06491,0.30426,1.51071e+09
-0.0232544,0.0360718,1.02142,-1.97769,2.12982,0.30426,1.51071e+09
-0.0270996,0.0365601,1.0163,-1.06491,1.06491,0.15213,1.51071e+09
-0.0241089,0.0361328,1.01282,-0,0.15213,0.45639,1.51071e+09
-0.0241089,0.0361328,1.01282,-0,0.15213,0.45639,1.51071e+09
-0.0240479,0.0342407,1.01416,-1.67343,1.67343,0.608521,1.51071e+09
-0.0240479,0.0342407,1.01416,-1.67343,1.67343,0.608521,1.51071e+09
-0.0214233,0.0355835,1.01038,-2.58621,3.19473,0.30426,1.51071e+09
-0.0229492,0.0376587,1.01733,-2.58621,3.0426,0.45639,1.51071e+09
-0.0229492,0.0376587,1.01733,-2.58621,3.0426,0.45639,1.51071e+09
-0.0247803,0.0327759,1.02252,-3.34686,4.41177,0.30426,1.51071e+09
-0.0231934,0.0358887,1.01709,-3.80325,4.41177,0.30426,1.51071e+09
-0.0231934,0.0358887,1.01709,-3.80325,4.41177,0.30426,1.51071e+09
-0.0228271,0.0392456,1.02374,-3.34686,4.10751,0.45639,1.51071e+09
-0.0269165,0.0388184,1.02057,-3.49899,4.10751,0.45639,1.51071e+09
-0.0269165,0.0388184,1.02057,-3.49899,4.10751,0.45639,1.51071e+09
-0.0228271,0.038208,1.01764,-3.49899,3.95538,0.30426,1.51071e+09
-0.0222168,0.0369873,1.02246,-3.19473,4.10751,0.15213,1.51071e+09
-0.0222168,0.0369873,1.02246,-3.19473,4.10751,0.15213,1.51071e+09
-0.0232544,0.0396118,1.01727,-2.89047,3.34686,0.15213,1.51071e+09
-0.0219116,0.0328979,1.02545,-3.19473,4.10751,0.30426,1.51071e+09
-0.0219116,0.0328979,1.02545,-3.19473,4.10751,0.30426,1.51071e+09
-0.0219727,0.0333862,1.02325,-5.02029,6.08521,0.45639,1.51071e+09
-0.0256348,0.0372925,1.01575,-8.21503,9.12781,-0,1.51071e+09
-0.0256348,0.0372925,1.01575,-8.21503,9.12781,-0,1.51071e+09
-0.0169067,0.041626,1.01648,-9.73633,11.5619,0.30426,1.51071e+09
-0.0178223,0.043335,1.02167,-9.88846,11.1055,0.608521,1.51071e+09
-0.0148926,0.0413208,1.02545,-10.0406,11.8661,0.15213,1.51071e+09
-0.0148926,0.0413208,1.02545,-10.0406,11.8661,0.15213,1.51071e+09
-0.0123901,0.0500488,1.0188,-8.82355,9.73633,0.45639,1.51071e+09
-0.0123901,0.0500488,1.0188,-8.82355,9.73633,0.45639,1.51071e+09
-0.0144653,0.0460205,1.01953,-6.5416,7.60651,0.30426,1.51071e+09
-0.0123291,0.0453491,1.01648,-5.32455,6.23734,0.30426,1.51071e+09
-0.0123291,0.0453491,1.01648,-5.32455,6.23734,0.30426,1.51071e+09
-0.0129395,0.0444336,1.02344,-5.62881,5.93307,0.30426,1.51071e+09
-0.0119019,0.0456543,1.01514,-6.38947,7.30225,0.30426,1.51071e+09
-0.0119019,0.0456543,1.01514,-6.38947,7.30225,0.30426,1.51071e+09
-0.0100098,0.0463867,1.01569,-7.30225,8.36716,0.30426,1.51071e+09
-0.0140991,0.046936,1.01593,-7.91077,8.82355,0.15213,1.51071e+09
-0.0140991,0.046936,1.01593,-7.91077,8.82355,0.15213,1.51071e+09
-0.0117798,0.0471191,1.01483,-9.5842,11.1055,-0,1.51071e+09
0.0831299,0.1203,1.1723,-9.43207,11.5619,-0,1.51071e+09
0.0831299,0.1203,1.1723,-9.43207,11.5619,-0,1.51071e+09
-0.0244141,0.0613403,0.975525,0.30426,-0.760651,0.45639,1.51071e+09
-0.00244141,0.0617676,1.00415,-0.608521,0.608521,0.45639,1.51071e+09
-0.00244141,0.0617676,1.00415,-0.608521,0.608521,0.45639,1.51071e+09
-0.0149536,0.0441895,1.02838,-0.30426,0.15213,0.45639,1.51071e+09
-0.0182495,0.0447388,1.03577,0.45639,-0.760651,0.45639,1.51071e+09
-0.0182495,0.0447388,1.03577,0.45639,-0.760651,0.45639,1.51071e+09
-0.0178223,0.0401001,1.02411,0.45639,-0.30426,0.608521,1.51071e+09
-0.0098877,0.0488281,1.01801,0.15213,0.15213,0.15213,1.51071e+09
-0.0098877,0.0488281,1.01801,0.15213,0.15213,0.15213,1.51071e+09
-0.0110474,0.0480347,1.02594,-0,-0,0.45639,1.51071e+09
-0.00732422,0.052002,1.02509,0.15213,0.15213,0.30426,1.51071e+09
-0.00732422,0.052002,1.02509,0.15213,0.15213,0.30426,1.51071e+09
-0.00769043,0.0479126,1.01648,-0.15213,-0.15213,0.15213,1.51071e+09
-0.0090332,0.050415,1.02472,0.15213,0.30426,0.30426,1.51071e+09
-0.0090332,0.050415,1.02472,0.15213,0.30426,0.30426,1.51071e+09
-0.00823975,0.0509644,1.01581,0.15213,0.15213,0.30426,1.51071e+09
-0.00488281,0.0532227,1.02124,-0.15213,0.30426,0.45639,1.51071e+09
-0.00488281,0.0532227,1.02124,-0.15213,0.30426,0.45639,1.51071e+09
-0.010437,0.0485229,1.01819,-0.30426,-0,0.30426,1.51071e+09
-0.00836182,0.0512085,1.02032,0.15213,0.30426,0.30426,1.51071e+09
-0.00836182,0.0512085,1.02032,0.15213,0.30426,0.30426,1.51071e+09
-0.00726318,0.0495605,1.01093,-0.30426,-0.15213,0.30426,1.51071e+09
-0.00604248,0.052124,1.01825,-0,-0,0.15213,1.51071e+09
-0.00604248,0.052124,1.01825,-0,-0,0.15213,1.51071e+09
-0.00738525,0.0527344,1.02142,0.15213,0.15213,0.15213,1.51071e+09
-0.00518799,0.0533447,1.01843,-0,0.30426,0.15213,1.51071e+09
-0.0112915,0.0498657,1.01831,-0.15213,-0,0.608521,1.51071e+09
-0.0112915,0.0498657,1.01831,-0.15213,-0,0.608521,1.51071e+09
-0.00750732,0.0457764,1.0177,-0.15213,0.45639,0.30426,1.51071e+09
-0.00750732,0.0457764,1.0177,-0.15213,0.45639,0.30426,1.51071e+09
-0.00653076,0.0501099,1.01874,-0.30426,-0,0.608521,1.51071e+09
-0.00537109,0.0500488,1.01398,0.15213,0.15213,0.15213,1.51071e+09
-0.00537109,0.0500488,1.01398,0.15213,0.15213,0.15213,1.51071e+09
-0.00836182,0.0524292,1.01697,-0,-0,0.30426,1.51071e+09
-0.0119019,0.0508423,1.01941,-0.15213,-0,0.15213,1.51071e+09
-0.0119019,0.0508423,1.01941,-0.15213,-0,0.15213,1.51071e+09
-0.00866699,0.0518188,1.01636,-0,0.15213,0.30426,1.51071e+09
-0.00872803,0.050354,1.01923,0.15213,0.15213,0.45639,1.51071e+09
-0.00872803,0.050354,1.01923,0.15213,0.15213,0.45639,1.51071e+09
-0.0090332,0.0507812,1.01788,-0,-0.15213,0.608521,1.51071e+09
-0.00524902,0.0531616,1.0166,0.15213,0.30426,0.30426,1.51071e+09
-0.00524902,0.0531616,1.0166,0.15213,0.30426,0.30426,1.51071e+09
-0.00775146,0.0553589,1.01501,-0.30426,-0,0.15213,1.51071e+09
-0.0100708,0.0524292,1.02362,-0,-0.15213,0.15213,1.51071e+09
-0.0100708,0.0524292,1.02362,-0,-0.15213,0.15213,1.51071e+09
-0.00933838,0.0490723,1.01953,0.15213,0.15213,0.15213,1.51071e+09
-0.0088501,0.0524902,1.01331,-0,0.15213,0.30426,1.51071e+09
-0.0088501,0.0524902,1.01331,-0,0.15213,0.30426,1.51071e+09
-0.00982666,0.052002,1.01898,0.15213,0.15213,0.30426,1.51071e+09
-0.00537109,0.0509033,1.021,-0,0.15213,0.15213,1.51071e+09
-0.00537109,0.0509033,1.021,-0,0.15213,0.15213,1.51071e+09
-0.00744629,0.0507202,1.01984,-0.15213,-0,0.608521,1.51071e+09
-0.00836182,0.0530396,1.02277,-0.15213,-0.30426,0.45639,1.51071e+09
-0.00836182,0.0530396,1.02277,-0.15213,-0.30426,0.45639,1.51071e+09
-0.0127563,0.0494385,1.02155,0.30426,0.30426,-0.15213,1.51071e+09
-0.00695801,0.0532837,1.02228,-0,-0,0.15213,1.51071e+09
-0.00695801,0.0532837,1.02228,-0,-0,0.15213,1.51071e+09
-0.00756836,0.0496826,1.01727,-0.15213,-0,0.30426,1.51071e+09
-0.0022583,0.0523682,1.02136,-0,-0,0.30426,1.51071e+09
-0.0022583,0.0523682,1.02136,-0,-0,0.30426,1.51071e+09
-0.00579834,0.0508423,1.0199,0.15213,0.15213,0.30426,1.51071e+09
-0.0103149,0.0482788,1.02032,-0.15213,-0,0.15213,1.51071e+09
-0.0103149,0.0482788,1.02032,-0.15213,-0,0.15213,1.51071e+09
-0.0109863,0.0480957,1.01434,-0,-0,0.15213,1.51071e+09
-0.012146,0.0516357,1.01666,-0,-0,0.608521,1.51071e+09
-0.012146,0.0516357,1.01666,-0,-0,0.608521,1.51071e+09
-0.0100708,0.0518799,1.01758,0.15213,0.45639,0.45639,1.51071e+09
-0.00689697,0.0508423,1.02069,0.30426,0.30426,0.30426,1.51071e+09
-0.00689697,0.0508423,1.02069,0.30426,0.30426,0.30426,1.51071e+09
-0.00726318,0.0527954,1.02167,0.15213,0.15213,0.30426,1.51071e+09
-0.00628662,0.0494385,1.01422,-0,-0,0.45639,1.51071e+09
-0.00628662,0.0494385,1.01422,-0,-0,0.45639,1.51071e+09
-0.00805664,0.0479126,1.01843,-0.15213,-0.15213,0.45639,1.51071e+09
-0.0100098,0.0517578,1.01935,-0.15213,-0,0.15213,1.51071e+09
-0.0100098,0.0517578,1.01935,-0.15213,-0,0.15213,1.51071e+09
-0.00872803,0.0502319,1.01837,-0,-0,0.45639,1.51071e+09
-0.00744629,0.0527954,1.01373,-0,0.15213,0.45639,1.51071e+09
-0.00744629,0.0527954,1.01373,-0,0.15213,0.45639,1.51071e+09
-0.0057373,0.0531616,1.02112,-0.15213,-0,0.15213,1.51071e+09
-0.0106201,0.0462036,1.02124,0.15213,0.15213,0.30426,1.51071e+09
-0.0106201,0.0462036,1.02124,0.15213,0.15213,0.30426,1.51071e+09
-0.0117188,0.050415,1.01654,-0,-0.15213,0.30426,1.51071e+09
-0.00958252,0.0526123,1.0163,-0,0.15213,0.760651,1.51071e+09
-0.00958252,0.0526123,1.0163,-0,0.15213,0.760651,1.51071e+09
-0.00946045,0.0501099,1.02087,0.15213,0.30426,-0,1.51071e+09
-0.00769043,0.0546265,1.02057,-0.15213,-0.15213,0.30426,1.51071e+09
-0.00769043,0.0546265,1.02057,-0.15213,-0.15213,0.30426,1.51071e+09
-0.00469971,0.0526123,1.01367,0.15213,0.15213,0.15213,1.51071e+09
-0.00488281,0.0514526,1.01941,-0,0.15213,0.15213,1.51071e+09
-0.00488281,0.0514526,1.01941,-0,0.15213,0.15213,1.51071e+09
-0.00726318,0.0507202,1.02032,-0,-0.30426,0.608521,1.51071e+09
-0.00732422,0.0507202,1.01849,0.15213,0.608521,0.30426,1.51071e+09
-0.00732422,0.0507202,1.01849,0.15213,0.608521,0.30426,1.51071e+09
-0.00354004,0.050293,1.01569,0.30426,0.30426,0.30426,1.51071e+09
-0.010437,0.0500488,1.01904,0.15213,0.15213,0.30426,1.51071e+09
-0.010437,0.0500488,1.01904,0.15213,0.15213,0.30426,1.51071e+09
