accl_x,accel_y,accel_z,gyro_x,gyro_y,gyro_z,time
0,0,0,0,0,0,0
-0.0620728,-0.110107,1.01929,-0.305176,-0.0610352,-0.0610352,0
-0.0620728,-0.110107,1.01929,-0.305176,-0.0610352,-0.0610352,0
-0.0617676,-0.109009,1.01782,-0.0610352,-0.305176,0.12207,0
-0.0608521,-0.110901,1.02344,-0.12207,0.0610352,0.0610352,0
-0.0608521,-0.110901,1.02344,-0.12207,0.0610352,0.0610352,0
-0.0603027,-0.112,1.02332,-0.0610352,-0.244141,0.183105,0
-0.0626221,-0.104736,1.01721,0.0610352,-0.12207,0.0610352,0
-0.0626221,-0.104736,1.01721,0.0610352,-0.12207,0.0610352,0
-0.0603027,-0.107666,1.02039,-0.305176,-0.12207,0.0610352,0
-0.0617676,-0.107483,1.02094,-0.12207,-0.305176,0.0610352,0
-0.0617676,-0.107483,1.02094,-0.12207,-0.305176,0.0610352,0
-0.0576782,-0.108826,1.01843,-0.0610352,-0.183105,0.0610352,0
-0.059082,-0.106934,1.02112,-0.183105,-0.12207,0,0
-0.0588989,-0.10791,1.02563,-0.12207,-0.0610352,0.0610352,0
-0.0588989,-0.10791,1.02563,-0.12207,-0.0610352,0.0610352,0
-0.0599365,-0.110535,1.02191,-0.0610352,-0.183105,0.12207,0
-0.0633545,-0.10614,1.02142,-0.0610352,-0.183105,0.0610352,0
-0.0633545,-0.10614,1.02142,-0.0610352,-0.183105,0.0610352,0
-0.0601196,-0.10376,1.02313,-0.183105,-0.244141,0.0610352,0
-0.0574341,-0.111023,1.01593,0,0,0.183105,0
-0.0574341,-0.111023,1.01593,0,0,0.183105,0
-0.0632324,-0.107422,1.01886,0,-0.12207,0,0
-0.057251,-0.107361,1.02032,-0.12207,-0.12207,0.183105,0
-0.057251,-0.107361,1.02032,-0.12207,-0.12207,0.183105,0
-0.0614014,-0.109985,1.02008,-0.0610352,-0.244141,0.12207,0
-0.0594482,-0.109863,1.0213,-0.12207,-0.0610352,0,0
-0.0594482,-0.109863,1.0213,-0.12207,-0.0610352,0,0
-0.0616455,-0.108765,1.01807,-0.12207,-0.183105,0.0610352,0
-0.0584106,-0.11084,1.02539,-0.12207,-0.366211,0,0
-0.0584106,-0.11084,1.02539,-0.12207,-0.366211,0,0
-0.0613403,-0.108948,1.02435,-0.183105,0,0,0
-0.0593262,-0.111145,1.02429,-0.0610352,-0.183105,0.12207,0
-0.0593262,-0.111145,1.02429,-0.0610352,-0.183105,0.12207,0
-0.0609131,-0.10675,1.02112,-0.12207,-0.12207,-0.0610352,0
-0.062439,-0.11322,1.02533,-0.0610352,-0.0610352,0.0610352,0
-0.0617676,-0.108337,1.02563,-0.12207,-0.12207,0.0610352,0
-0.0617676,-0.108337,1.02563,-0.12207,-0.12207,0.0610352,0
-0.0593262,-0.108643,1.02399,-0.183105,-0.0610352,0.244141,0
-0.0601807,-0.107483,1.01294,0.0610352,-0.244141,0.183105,0
-0.0601807,-0.107483,1.01294,0.0610352,-0.244141,0.183105,0
-0.0593262,-0.108704,1.02063,-0.183105,-0.12207,0.12207,0
-0.0585938,-0.108765,1.02606,-0.244141,-0.0610352,0.183105,0
-0.0585938,-0.108765,1.02606,-0.244141,-0.0610352,0.183105,0
-0.0600586,-0.110046,1.01709,0.0610352,-0.244141,0.12207,0
-0.0595093,-0.109253,1.02014,-0.12207,0,0,0
-0.0595093,-0.109253,1.02014,-0.12207,0,0,0
-0.0599365,-0.108521,1.01599,-0.305176,-0.0610352,0.12207,0
-0.0626831,-0.106934,1.01666,0.12207,-0.366211,0.12207,0
-0.0626831,-0.106934,1.01666,0.12207,-0.366211,0.12207,0
-0.0584717,-0.107788,1.0235,-0.12207,-0.0610352,0.0610352,0
-0.0581055,-0.112488,1.01941,-0.12207,-0.12207,0.0610352,0
-0.0581055,-0.112488,1.01941,-0.12207,-0.12207,0.0610352,0
-0.0570679,-0.107544,1.02313,-0.12207,0,0.0610352,0
-0.0623169,-0.110352,1.02167,0,0,0.0610352,0
-0.0623169,-0.110352,1.02167,0,0,0.0610352,0
-0.0592651,-0.110413,1.02222,-0.12207,-0.0610352,0.0610352,0
-0.0581055,-0.111145,1.01624,-0.12207,-0.12207,0.0610352,0
-0.0591431,-0.109375,1.01941,-0.0610352,-0.244141,0.0610352,0
-0.0591431,-0.109375,1.01941,-0.0610352,-0.244141,0.0610352,0
-0.0598755,-0.110291,1.02191,-0.244141,-0.183105,0.12207,0
-0.0634155,-0.108582,1.01581,-0.0610352,-0.0610352,0.12207,0
-0.0634155,-0.108582,1.01581,-0.0610352,-0.0610352,0.12207,0
-0.0639038,-0.109131,1.02441,-0.0610352,-0.183105,0,0
-0.0598145,-0.108276,1.0235,-0.12207,0.0610352,0.0610352,0
-0.0598145,-0.108276,1.0235,-0.12207,0.0610352,0.0610352,0
-0.060791,-0.105896,1.01874,-0.0610352,-0.244141,0,0
-0.0599976,-0.110291,1.01892,-0.0610352,-0.183105,0.183105,0
-0.0599976,-0.110291,1.01892,-0.0610352,-0.183105,0.183105,0
-0.0593872,-0.109436,1.021,-0.0610352,-0.183105,0.12207,0
-0.0594482,-0.107666,1.02338,-0.0610352,-0.183105,0.0610352,0
-0.0594482,-0.107666,1.02338,-0.0610352,-0.183105,0.0610352,0
-0.0570068,-0.109009,1.02191,-0.12207,-0.183105,0.12207,0
-0.0581665,-0.110474,1.01959,-0.0610352,-0.12207,0.12207,0
-0.0581665,-0.110474,1.01959,-0.0610352,-0.12207,0.12207,0
-0.0604248,-0.112549,1.02557,-0.305176,0,0,0
-0.0609741,-0.111389,1.01855,-0.0610352,0,0.12207,0
-0.0609741,-0.111389,1.01855,-0.0610352,0,0.12207,0
-0.0635986,-0.106628,1.01526,0,-0.244141,-0.0610352,0
-0.0628052,-0.107605,1.01904,-0.244141,0,-0.0610352,0
-0.0628052,-0.107605,1.01904,-0.244141,0,-0.0610352,0
-0.0591431,-0.114807,1.01471,-0.305176,-0.12207,0.0610352,0
-0.0599976,-0.108643,1.02191,-0.0610352,-0.305176,-0.0610352,0
-0.0599976,-0.108643,1.02191,-0.0610352,-0.305176,-0.0610352,0
-0.0567017,-0.109619,1.02881,-0.305176,-0.12207,0.183105,0
-0.0553589,-0.110352,1.01544,-0.0610352,-0.183105,0.0610352,0
-0.0553589,-0.110352,1.01544,-0.0610352,-0.183105,0.0610352,0
-0.0588379,-0.106812,1.0213,-0.12207,-0.183105,0.12207,0
-0.0584106,-0.110962,1.02246,-0.244141,-0.0610352,0,0
-0.0639648,-0.110596,1.01874,0,-0.183105,0.0610352,0
-0.0639648,-0.110596,1.01874,0,-0.183105,0.0610352,0
-0.0567627,-0.117188,1.02094,0,0,0.0610352,0
-0.0574341,-0.10791,1.01996,0,-0.244141,0,0
-0.0574341,-0.10791,1.01996,0,-0.244141,0,0
-0.0526733,-0.104431,1.0177,-0.12207,-0.12207,0.12207,0
-0.0552979,-0.103271,1.02936,-0.183105,0,-0.0610352,0
-0.0552979,-0.103271,1.02936,-0.183105,0,-0.0610352,0
-0.0634766,-0.0933838,1.0199,0.0610352,-0.244141,0.0610352,0
-0.0640869,-0.10376,1.02344,-0.183105,-0.0610352,0,0
-0.0640869,-0.10376,1.02344,-0.183105,-0.0610352,0,0
-0.0706177,-0.107544,1.0249,-0.183105,-0.0610352,0.0610352,0
-0.0736694,-0.105042,1.02509,0,-0.244141,-0.12207,0
-0.0736694,-0.105042,1.02509,0,-0.244141,-0.12207,0
-0.0669556,-0.106628,1.01642,-0.0610352,-0.305176,0.12207,0
-0.0639038,-0.113342,1.00787,-0.12207,-0.183105,-0.0610352,0
-0.0639038,-0.113342,1.00787,-0.12207,-0.183105,-0.0610352,0
-0.0646362,-0.121277,1.03223,-0.305176,0.12207,0,0
-0.0546265,-0.12146,1.02118,0,-0.12207,0,0
-0.0546265,-0.12146,1.02118,0,-0.12207,0,0
-0.0505981,-0.107666,1.00958,0.183105,-0.183105,0,0
-0.0502319,-0.108948,1.02509,-0.427246,0.427246,0.0610352,0
-0.0600586,-0.106018,1.02814,0.0610352,-0.12207,0.0610352,0
-0.0600586,-0.106018,1.02814,0.0610352,-0.12207,0.0610352,0
-0.0579224,-0.107483,1.02844,0,-0.183105,0.0610352,0
-0.0608521,-0.109314,1.01801,-0.0610352,-0.12207,0.0610352,0
-0.0608521,-0.109314,1.01801,-0.0610352,-0.12207,0.0610352,0
-0.0682983,-0.106323,1.02289,-0.305176,-0.244141,0.0610352,0
-0.0632935,-0.11084,1.02551,0,-0.244141,0.0610352,0
-0.0632935,-0.11084,1.02551,0,-0.244141,0.0610352,0
-0.0630493,-0.112976,1.01501,-0.0610352,-0.244141,0.0610352,0
-0.0604858,-0.117249,1.0166,-0.244141,-0.0610352,0.183105,0
-0.0604858,-0.117249,1.0166,-0.244141,-0.0610352,0.183105,0
-0.0565186,-0.11615,1.02417,-0.0610352,-0.12207,0.0610352,0
-0.0539551,-0.109375,1.02417,0.0610352,0,0.0610352,0
-0.0539551,-0.109375,1.02417,0.0610352,0,0.0610352,0
-0.0500488,-0.10614,1.02301,-0.12207,-0.0610352,0,0
-0.0581665,-0.102783,1.01636,0,0,0.0610352,0
-0.0581665,-0.102783,1.01636,0,0,0.0610352,0
-0.0593262,-0.107727,1.0246,-0.0610352,-0.0610352,0.12207,0
-0.0601807,-0.109802,1.01825,0.0610352,-0.183105,0.0610352,0
-0.0601807,-0.109802,1.01825,0.0610352,-0.183105,0.0610352,0
-0.0630493,-0.104736,1.02075,-0.0610352,-0.366211,0,0
-0.062561,-0.112793,1.02863,-0.244141,0.183105,0.0610352,0
-0.062561,-0.112793,1.02863,-0.244141,0.183105,0.0610352,0
-0.0627441,-0.109924,1.01776,0.0610352,-0.183105,0.0610352,0
-0.0576172,-0.108765,1.02429,0.0610352,0,0.0610352,0
-0.053772,-0.107971,1.01758,-0.0610352,0,0.12207,0
-0.053772,-0.107971,1.01758,-0.0610352,0,0.12207,0
-0.0578613,-0.108826,1.01782,-0.0610352,-0.183105,0.12207,0
-0.0569458,-0.108521,1.02106,0,-0.12207,-0.0610352,0
-0.0569458,-0.108521,1.02106,0,-0.12207,-0.0610352,0
-0.0557251,-0.110901,1.01709,-0.12207,-0.183105,0.244141,0
-0.0612183,-0.107971,1.01862,-0.0610352,-0.0610352,0,0
-0.0612183,-0.107971,1.01862,-0.0610352,-0.0610352,0,0
-0.0623169,-0.111694,1.02307,-0.244141,-0.12207,-0.0610352,0
-0.0686035,-0.114258,1.01105,0.0610352,-0.305176,0.0610352,0
-0.0686035,-0.114258,1.01105,0.0610352,-0.305176,0.0610352,0
-0.0667725,-0.11438,1.00549,-0.0610352,-0.366211,0.0610352,0
-0.0600586,-0.114868,1.02563,-0.305176,-0.244141,0.183105,0
-0.0600586,-0.114868,1.02563,-0.305176,-0.244141,0.183105,0
-0.0599976,-0.107361,1.02893,0.183105,-0.0610352,0,0
-0.0535889,-0.113403,1.01807,0.0610352,-0.305176,0.244141,0
-0.0535889,-0.113403,1.01807,0.0610352,-0.305176,0.244141,0
-0.052002,-0.107483,1.03003,-0.183105,-0.183105,0.0610352,0
-0.0466309,-0.115295,1.02539,0.12207,-0.244141,0.183105,0
-0.0466309,-0.115295,1.02539,0.12207,-0.244141,0.183105,0
-0.0550537,-0.112671,1.02203,0.183105,0,0.12207,0
-0.0543213,-0.115845,1.03571,-0.12207,0.0610352,0.0610352,0
-0.0596313,-0.112183,1.01263,0.12207,-0.488281,0.0610352,0
-0.0596313,-0.112183,1.01263,0.12207,-0.488281,0.0610352,0
-0.0645142,-0.102966,1.01312,0,-0.244141,0.0610352,0
-0.0697021,-0.109802,1.02203,-0.427246,0.183105,-0.0610352,0
-0.0697021,-0.109802,1.02203,-0.427246,0.183105,-0.0610352,0
-0.0687866,-0.116333,1.02185,-0.12207,-0.366211,0.0610352,0
-0.0610352,-0.107849,1.02118,0.0610352,-0.244141,-0.0610352,0
-0.0610352,-0.107849,1.02118,0.0610352,-0.244141,-0.0610352,0
-0.0603027,-0.107239,1.0163,-0.0610352,0.183105,0.12207,0
-0.0582275,-0.105042,1.02808,-0.0610352,-0.305176,0,0
-0.0582275,-0.105042,1.02808,-0.0610352,-0.305176,0,0
-0.0546875,-0.104919,1.0174,0,0,0.0610352,0
-0.0505981,-0.11853,1.01373,0.0610352,0.0610352,0.0610352,0
-0.0505981,-0.11853,1.01373,0.0610352,0.0610352,0.0610352,0
-0.0635986,-0.113281,1.02301,0.0610352,-0.244141,0,0
-0.0598755,-0.112915,1.02399,-0.0610352,0,0.0610352,0
-0.0598755,-0.112915,1.02399,-0.0610352,0,0.0610352,0
-0.0639038,-0.10907,1.0105,0.0610352,-0.183105,0.0610352,0
-0.0697021,-0.106445,1.02081,0,0.12207,0.0610352,0
-0.0697021,-0.106445,1.02081,0,0.12207,0.0610352,0
-0.064209,-0.111145,1.02441,-0.366211,0.12207,0.12207,0
-0.0658569,-0.103882,1.01123,0.12207,-0.12207,-0.12207,0
-0.0658569,-0.103882,1.01123,0.12207,-0.12207,-0.12207,0
-0.0568237,-0.109985,1.02124,-0.12207,0,0.0610352,0
-0.0617065,-0.105957,1.01385,0,0.0610352,0,0
-0.0569458,-0.10675,1.03076,-0.12207,-0.0610352,0.0610352,0
-0.0569458,-0.10675,1.03076,-0.12207,-0.0610352,0.0610352,0
-0.0540771,-0.112488,1.02716,-0.12207,0.183105,0,0
-0.0600586,-0.112976,1.01172,0.12207,-0.244141,-0.0610352,0
-0.0600586,-0.112976,1.01172,0.12207,-0.244141,-0.0610352,0
-0.0531616,-0.116333,1.02655,0.12207,0.0610352,0.0610352,0
-0.0596924,-0.112915,1.02338,0.0610352,0.0610352,0.0610352,0
-0.0596924,-0.112915,1.02338,0.0610352,0.0610352,0.0610352,0
-0.0596313,-0.106628,1.01862,0.183105,0,0,0
-0.0606689,-0.107605,1.02386,-0.0610352,0,0.0610352,0
-0.0606689,-0.107605,1.02386,-0.0610352,0,0.0610352,0
-0.060791,-0.109436,1.01801,0.0610352,0.12207,0.0610352,0
-0.0582886,-0.105774,1.02209,0.0610352,-0.183105,0,0
-0.0582886,-0.105774,1.02209,0.0610352,-0.183105,0,0
-0.0557251,-0.10968,1.01898,-0.0610352,0,0.183105,0
-0.0587769,-0.105896,1.0188,0.0610352,-0.244141,0,0
-0.0587769,-0.105896,1.0188,0.0610352,-0.244141,0,0
-0.0564575,-0.110046,1.01868,-0.12207,-0.12207,0.0610352,0
-0.059082,-0.117065,1.0213,-0.12207,0.12207,0.0610352,0
-0.059082,-0.117065,1.0213,-0.12207,0.12207,0.0610352,0
-0.0601807,-0.115967,1.02087,-0.0610352,-0.12207,0.0610352,0
-0.0592651,-0.113403,1.02173,0.0610352,0,0,0
-0.0634766,-0.106995,1.01666,0,0.12207,-0.12207,0
-0.0634766,-0.106995,1.01666,0,0.12207,-0.12207,0
-0.0568237,-0.107605,1.02515,-0.12207,0.244141,0.0610352,0
-0.0584717,-0.10498,1.01343,0.183105,-0.0610352,0.0610352,0
-0.0584717,-0.10498,1.01343,0.183105,-0.0610352,0.0610352,0
-0.0570679,-0.103333,1.02094,0,0.12207,0.0610352,0
-0.0595703,-0.106812,1.02094,-0.0610352,0.12207,0,0
-0.0595703,-0.106812,1.02094,-0.0610352,0.12207,0,0
-0.0594482,-0.109192,1.01447,-0.12207,-0.183105,-0.0610352,0
-0.0584717,-0.111938,1.02307,-0.183105,-0.12207,0,0
-0.0584717,-0.111938,1.02307,-0.183105,-0.12207,0,0
-0.0592651,-0.114807,1.01849,0,0,0,0
-0.0592651,-0.115784,1.01721,0.12207,-0.0610352,-0.0610352,0
-0.0592651,-0.115784,1.01721,0.12207,-0.0610352,-0.0610352,0
-0.0604858,-0.110779,1.02594,-0.0610352,0.12207,-0.0610352,0
-0.0621338,-0.104492,1.02106,-0.0610352,-0.12207,0,0
-0.0621338,-0.104492,1.02106,-0.0610352,-0.12207,0,0
-0.0612793,-0.101013,1.02216,0,0.183105,0.0610352,0
-0.0610962,-0.107971,1.02069,-0.0610352,0.0610352,0,0
-0.0610962,-0.107971,1.02069,-0.0610352,0.0610352,0,0
-0.0632324,-0.104736,1.02118,0,0.0610352,0.0610352,0
-0.059082,-0.108521,1.02429,-0.183105,0.12207,0.0610352,0
-0.059082,-0.108521,1.02429,-0.183105,0.12207,0.0610352,0
-0.0595703,-0.110474,1.02399,0.0610352,0,0.183105,0
-0.0614014,-0.110535,1.02148,0,-0.0610352,-0.0610352,0
-0.0614014,-0.110535,1.02148,0,-0.0610352,-0.0610352,0
-0.0543213,-0.116699,1.02661,-0.12207,0.0610352,0.0610352,0
-0.0628052,-0.111755,1.02002,0.183105,0,-0.0610352,0
-0.0540771,-0.115051,1.02539,0,0.183105,0.12207,0
-0.0540771,-0.115051,1.02539,0,0.183105,0.12207,0
-0.0579834,-0.106812,1.02191,0,0.12207,-0.0610352,0
-0.0604248,-0.103333,1.02112,0,0.0610352,0,0
-0.0604248,-0.103333,1.02112,0,0.0610352,0,0
-0.0615845,-0.105774,1.02893,-0.12207,-0.0610352,0.0610352,0
-0.0626831,-0.1026,1.01984,-0.0610352,-0.0610352,0.0610352,0
-0.0626831,-0.1026,1.01984,-0.0610352,-0.0610352,0.0610352,0
-0.0580444,-0.108521,1.01996,-0.12207,0,0.0610352,0
-0.0601196,-0.109253,1.01855,-0.0610352,-0.0610352,0,0
-0.0601196,-0.109253,1.01855,-0.0610352,-0.0610352,0,0
-0.0579834,-0.112793,1.01843,-0.12207,-0.0610352,0,0
-0.0578003,-0.113647,1.01886,0.0610352,0.0610352,0.12207,0
-0.0578003,-0.113647,1.01886,0.0610352,0.0610352,0.12207,0
-0.0608521,-0.111816,1.02319,0,0,0,0
-0.05896,-0.112122,1.02094,0,0.0610352,0.0610352,0
-0.05896,-0.112122,1.02094,0,0.0610352,0.0610352,0
-0.0609131,-0.106445,1.01697,-0.0610352,-0.12207,0.0610352,0
-0.0612793,-0.107422,1.01929,0,0.0610352,-0.12207,0
-0.0612793,-0.107422,1.01929,0,0.0610352,-0.12207,0
-0.0640869,-0.101685,1.02173,-0.0610352,0.0610352,0.0610352,0
-0.0645142,-0.108093,1.01678,-0.0610352,-0.183105,0.0610352,0
-0.0621948,-0.108643,1.0188,0,0.0610352,0,0
-0.0621948,-0.108643,1.0188,0,0.0610352,0,0
-0.0595703,-0.114807,1.01837,0,0.0610352,0.0610352,0
-0.0619507,-0.107727,1.02051,0,0,0,0
-0.0619507,-0.107727,1.02051,0,0,0,0
-0.0577393,-0.114014,1.02448,-0.0610352,0.183105,-0.0610352,0
-0.0592651,-0.114868,1.0199,0.0610352,0,0.12207,0
-0.0592651,-0.114868,1.0199,0.0610352,0,0.12207,0
-0.0585327,-0.107605,1.02545,0,0.12207,0.0610352,0
-0.0601807,-0.111511,1.0188,0.12207,0,0,0
-0.0601807,-0.111511,1.0188,0.12207,0,0,0
-0.0622559,-0.0997314,1.01831,0.0610352,-0.12207,-0.0610352,0
-0.0597534,-0.106384,1.02185,-0.12207,-0.244141,0.0610352,0
-0.0597534,-0.106384,1.02185,-0.12207,-0.244141,0.0610352,0
-0.0606689,-0.107239,1.01801,-0.0610352,-0.244141,0.0610352,0
-0.0631714,-0.108643,1.02789,-0.0610352,0.0610352,0.12207,0
-0.0631714,-0.108643,1.02789,-0.0610352,0.0610352,0.12207,0
-0.0567017,-0.115417,1.02582,0,0.12207,0.0610352,0
-0.0632324,-0.105896,1.01807,0,-0.183105,0.0610352,0
-0.0632324,-0.105896,1.01807,0,-0.183105,0.0610352,0
-0.0592651,-0.111633,1.02588,-0.244141,0.183105,0.0610352,0
-0.0636597,-0.111633,1.0155,0.0610352,0.12207,-0.0610352,0
-0.0636597,-0.111633,1.0155,0.0610352,0.12207,-0.0610352,0
-0.0579834,-0.106262,1.02283,-0.0610352,-0.183105,-0.0610352,0
-0.0548706,-0.10968,1.02722,-0.12207,0.12207,0.0610352,0
-0.0548706,-0.10968,1.02722,-0.12207,0.12207,0.0610352,0
-0.0629272,-0.102905,1.01538,0.12207,-0.0610352,0.0610352,0
-0.0576782,-0.106201,1.02362,-0.183105,0.183105,0.0610352,0
-0.0629272,-0.107849,1.02228,0,0,0,0
-0.0629272,-0.107849,1.02228,0,0,0,0
-0.0645752,-0.111938,1.02203,0,0,0.0610352,0
-0.0618286,-0.111023,1.01825,0,0.12207,0.0610352,0
-0.0618286,-0.111023,1.01825,0,0.12207,0.0610352,0
-0.0611572,-0.107971,1.01892,-0.0610352,-0.0610352,0.0610352,0
-0.05896,-0.108826,1.02374,-0.0610352,0.0610352,-0.0610352,0
-0.05896,-0.108826,1.02374,-0.0610352,0.0610352,-0.0610352,0
-0.0618896,-0.111694,1.02069,0,0.0610352,0.12207,0
-0.0559082,-0.111572,1.01801,0.183105,0,-0.0610352,0
-0.0559082,-0.111572,1.01801,0.183105,0,-0.0610352,0
-0.0587158,-0.108032,1.02527,-0.12207,0,0.0610352,0
-0.0578613,-0.108643,1.01953,0,0,0.0610352,0
-0.0578613,-0.108643,1.01953,0,0,0.0610352,0
-0.0623169,-0.105713,1.02246,0,-0.0610352,-0.0610352,0
-0.0628052,-0.11084,1.02368,-0.12207,0.0610352,0.12207,0
-0.0628052,-0.11084,1.02368,-0.12207,0.0610352,0.12207,0
-0.0621948,-0.110046,1.02045,0,0.0610352,-0.0610352,0
-0.0579834,-0.109253,1.02209,-0.0610352,0.12207,-0.0610352,0
-0.0579834,-0.109253,1.02209,-0.0610352,0.12207,-0.0610352,0
-0.0617676,-0.110596,1.01642,-0.0610352,-0.0610352,0.12207,0
-0.0587769,-0.109253,1.01831,-0.12207,0.0610352,0,0
-0.0587769,-0.109253,1.01831,-0.12207,0.0610352,0,0
-0.0563354,-0.111938,1.01617,-0.0610352,0.0610352,0.183105,0
-0.0571899,-0.107544,1.01782,0,-0.0610352,-0.0610352,0
-0.0553589,-0.108154,1.02515,-0.12207,0.12207,0,0
-0.0553589,-0.108154,1.02515,-0.12207,0.12207,0,0
-0.0586548,-0.108765,1.02148,0,0.0610352,0.0610352,0
-0.0668335,-0.104797,1.02014,0,-0.183105,-0.0610352,0
-0.0668335,-0.104797,1.02014,0,-0.183105,-0.0610352,0
-0.0598145,-0.109253,1.02521,-0.183105,0.12207,0.0610352,0
-0.0635986,-0.107605,1.01581,0,0,0.0610352,0
-0.0635986,-0.107605,1.01581,0,0,0.0610352,0
-0.0601196,-0.108521,1.026,-0.0610352,-0.12207,0,0
-0.0600586,-0.111145,1.02966,0,0.0610352,0,0
-0.0600586,-0.111145,1.02966,0,0.0610352,0,0
-0.0600586,-0.107056,1.01971,0.0610352,0.0610352,0.12207,0
-0.0551758,-0.112732,1.01825,-0.0610352,0.0610352,0.0610352,0
-0.0551758,-0.112732,1.01825,-0.0610352,0.0610352,0.0610352,0
-0.0596924,-0.108154,1.02063,0,0,0,0
-0.0579834,-0.111145,1.02179,-0.183105,-0.0610352,-0.0610352,0
-0.0579834,-0.111145,1.02179,-0.183105,-0.0610352,-0.0610352,0
-0.0579224,-0.108887,1.02271,-0.183105,-0.0610352,0.0610352,0
-0.0648804,-0.107727,1.02216,0,0.0610352,-0.12207,0
-0.0648804,-0.107727,1.02216,0,0.0610352,-0.12207,0
-0.0617676,-0.109009,1.0177,0,-0.0610352,0,0
-0.0603638,-0.109436,1.02533,0.0610352,0.183105,-0.0610352,0
-0.0580444,-0.11084,1.02722,0,0.12207,0.0610352,0
-0.0580444,-0.11084,1.02722,0,0.12207,0.0610352,0
-0.0629272,-0.108093,1.01892,0.0610352,0.12207,-0.0610352,0
-0.055481,-0.10498,1.01837,-0.0610352,-0.12207,0.0610352,0
-0.055481,-0.10498,1.01837,-0.0610352,-0.12207,0.0610352,0
-0.0602417,-0.108154,1.02051,-0.0610352,0.0610352,0.0610352,0
-0.0576172,-0.112061,1.01379,0.244141,-0.0610352,0.0610352,0
-0.0576172,-0.112061,1.01379,0.244141,-0.0610352,0.0610352,0
-0.0598755,-0.107361,1.0246,-0.183105,-0.12207,0,0
-0.0597534,-0.113403,1.02606,-0.12207,0.244141,0.0610352,0
-0.0597534,-0.113403,1.02606,-0.12207,0.244141,0.0610352,0
-0.0636597,-0.109863,1.01373,0.12207,-0.183105,0,0
-0.0574951,-0.107422,1.02545,-0.12207,0.0610352,0,0
-0.0574951,-0.107422,1.02545,-0.12207,0.0610352,0,0
-0.0606079,-0.109863,1.0199,0.0610352,0.183105,0.0610352,0
-0.0636597,-0.106628,1.01355,0.0610352,-0.183105,-0.183105,0
-0.0636597,-0.106628,1.01355,0.0610352,-0.183105,-0.183105,0
-0.0574341,-0.110107,1.02167,0,0.0610352,0,0
-0.0598755,-0.105225,1.01648,-0.0610352,-0.12207,0,0
-0.0598755,-0.105225,1.01648,-0.0610352,-0.12207,0,0
-0.0548096,-0.111084,1.0191,0.0610352,-0.183105,-0.0610352,0
-0.0583496,-0.106567,1.0199,0,0,0.0610352,0
-0.0583496,-0.106567,1.0199,0,0,0.0610352,0
-0.0599976,-0.111511,1.02002,-0.244141,-0.12207,-0.0610352,0
-0.0609741,-0.110168,1.02356,-0.0610352,-0.0610352,0.0610352,0
-0.0643311,-0.107544,1.0191,-0.12207,0,0,0
-0.0643311,-0.107544,1.0191,-0.12207,0,0,0
-0.0611572,-0.109253,1.01825,0,0.12207,-0.0610352,0
-0.0632935,-0.108643,1.02112,-0.0610352,-0.0610352,0.12207,0
-0.0632935,-0.108643,1.02112,-0.0610352,-0.0610352,0.12207,0
-0.0586548,-0.110535,1.01953,-0.0610352,0,0.0610352,0
-0.0609741,-0.104004,1.02185,-0.0610352,-0.183105,-0.0610352,0
-0.0609741,-0.104004,1.02185,-0.0610352,-0.183105,-0.0610352,0
-0.0579834,-0.107788,1.02356,-0.12207,-0.0610352,0.0610352,0
-0.0581055,-0.108032,1.01996,0.183105,0.12207,-0.0610352,0
-0.0581055,-0.108032,1.01996,0.183105,0.12207,-0.0610352,0
-0.0593872,-0.109314,1.02386,0,-0.0610352,-0.12207,0
-0.0553589,-0.111023,1.02856,-0.12207,-0.0610352,0,0
-0.0553589,-0.111023,1.02856,-0.12207,-0.0610352,0,0
-0.0625,-0.107849,1.01868,-0.0610352,-0.0610352,0.0610352,0
-0.0588989,-0.111023,1.01941,0,-0.12207,0,0
-0.0588989,-0.111023,1.01941,0,-0.12207,0,0
-0.0633545,-0.103027,1.02136,0,0,0,0
-0.0576172,-0.112305,1.0144,-0.0610352,0,0.0610352,0
-0.0576172,-0.112305,1.0144,-0.0610352,0,0.0610352,0
-0.0615234,-0.104736,1.02228,-0.12207,-0.0610352,0,0
-0.0598145,-0.112854,1.021,-0.12207,0.0610352,0.12207,0
-0.0598145,-0.112854,1.021,-0.12207,0.0610352,0.12207,0
-0.062439,-0.107544,1.01508,0,0,-0.0610352,0
-0.0611572,-0.104187,1.02399,-0.183105,0,-0.0610352,0
-0.0611572,-0.104187,1.02399,-0.183105,0,-0.0610352,0
-0.0583496,-0.115173,1.01709,-0.0610352,-0.0610352,0,0
-0.05896,-0.109436,1.0188,0,-0.12207,0,0
-0.0569458,-0.114685,1.0249,-0.12207,0.183105,0,0
-0.0569458,-0.114685,1.0249,-0.12207,0.183105,0,0
-0.0631104,-0.107117,1.0163,0,0.0610352,0,0
-0.0595093,-0.109314,1.02307,-0.0610352,-0.0610352,-0.0610352,0
-0.0595093,-0.109314,1.02307,-0.0610352,-0.0610352,-0.0610352,0
-0.0611572,-0.10968,1.02502,-0.0610352,0.183105,0.0610352,0
-0.0623779,-0.107605,1.01581,0.183105,-0.12207,0.12207,0
-0.0623779,-0.107605,1.01581,0.183105,-0.12207,0.12207,0
-0.0579224,-0.108826,1.02496,0,0.0610352,-0.0610352,0
-0.0598145,-0.10791,1.02155,0,0.12207,0,0
-0.0598145,-0.10791,1.02155,0,0.12207,0,0
-0.0614624,-0.110657,1.01703,0.12207,-0.183105,-0.0610352,0
-0.0600586,-0.111084,1.02368,0,0.183105,0,0
-0.0600586,-0.111084,1.02368,0,0.183105,0,0
-0.05896,-0.116638,1.01337,-0.0610352,-0.0610352,0.0610352,0
-0.0617065,-0.113098,1.02087,0,0,0,0
-0.0617065,-0.113098,1.02087,0,0,0,0
-0.0643311,-0.111694,1.02222,-0.183105,0.244141,0,0
-0.0686646,-0.112732,1.02161,0,-0.12207,0.12207,0
-0.0686646,-0.112732,1.02161,0,-0.12207,0.12207,0
-0.0585327,-0.115601,1.02863,-0.0610352,-0.0610352,0.12207,0
-0.0518188,-0.109985,1.02087,0.183105,0,0,0
-0.048584,-0.0945435,1.01898,0.12207,0.0610352,-0.12207,0
-0.048584,-0.0945435,1.01898,0.12207,0.0610352,-0.12207,0
-0.0493774,-0.0696411,1.02246,0.0610352,0.183105,-0.183105,0
-0.0552979,-0.090332,0.999878,-0.427246,0.305176,0.366211,0
-0.0552979,-0.090332,0.999878,-0.427246,0.305176,0.366211,0
-0.0704956,-0.128967,1.03839,-0.366211,0.366211,0.244141,0
-0.0736694,-0.156494,1.05646,-0.427246,-0.0610352,0.305176,0
-0.0736694,-0.156494,1.05646,-0.427246,-0.0610352,0.305176,0
-0.0650635,-0.145081,0.999756,1.28174,-1.34277,-0.12207,0
-0.0595093,-0.106323,1.00854,0.0610352,0.12207,-0.244141,0
-0.0595093,-0.106323,1.00854,0.0610352,0.12207,-0.244141,0
-0.0561523,-0.0958252,1.03406,-0.183105,0.366211,-0.12207,0
-0.057373,-0.0786133,1.01691,0.305176,0,0,0
-0.057373,-0.0786133,1.01691,0.305176,0,0,0
-0.0510254,-0.102539,0.998291,0.12207,0.0610352,0.183105,0
-0.0615234,-0.112366,1.02637,-0.610352,0.793457,0.0610352,0
-0.0615234,-0.112366,1.02637,-0.610352,0.793457,0.0610352,0
-0.0663452,-0.108032,1.0401,-0.366211,0.12207,-0.12207,0
-0.0632324,-0.104187,1.02478,0.244141,-0.549316,-0.0610352,0
-0.0632324,-0.104187,1.02478,0.244141,-0.549316,-0.0610352,0
-0.0671997,-0.0997314,1.02423,-0.0610352,-0.610352,0.0610352,0
-0.0576782,-0.123779,1.00323,0.244141,-0.915527,0.183105,0
-0.0576782,-0.123779,1.00323,0.244141,-0.915527,0.183105,0
-0.0609741,-0.129944,1.01526,-0.244141,0.12207,0.0610352,0
-0.0615234,-0.124207,1.02344,0.12207,0.183105,-0.12207,0
-0.0615234,-0.124207,1.02344,0.12207,0.183105,-0.12207,0
-0.0591431,-0.0941162,1.00427,0.0610352,0.244141,-0.12207,0
-0.0604858,-0.09552,1.02203,-0.427246,0.854492,0.12207,0
-0.0616455,-0.107056,1.03644,-0.0610352,0.244141,0.0610352,0
-0.0616455,-0.107056,1.03644,-0.0610352,0.244141,0.0610352,0
-0.0667725,-0.10968,1.02112,0.305176,-0.549316,0.0610352,0
-0.0585327,-0.108337,1.026,0,-0.244141,0,0
-0.0585327,-0.108337,1.026,0,-0.244141,0,0
-0.0622559,-0.0988159,1.01666,0,-0.488281,-0.12207,0
-0.0488281,-0.102661,1.02356,-0.0610352,-0.305176,0.12207,0
-0.0488281,-0.102661,1.02356,-0.0610352,-0.305176,0.12207,0
-0.0553589,-0.115784,0.999817,0.183105,0.12207,0.366211,0
-0.0566406,-0.134949,1.02338,0,0,0,0
-0.0566406,-0.134949,1.02338,0,0,0,0
-0.0632324,-0.111816,1.04431,-0.732422,0.976562,-0.183105,0
-0.0563965,-0.117676,1.02081,0.366211,0,0,0
-0.0563965,-0.117676,1.02081,0.366211,0,0,0
-0.0609131,-0.0935059,1.03076,0.183105,-0.0610352,0,0
-0.0561523,-0.100952,1.02606,-0.183105,0.12207,0.305176,0
-0.0561523,-0.100952,1.02606,-0.183105,0.12207,0.305176,0
-0.0560913,-0.11853,1.0285,0,-0.366211,0.0610352,0
-0.0616455,-0.0990601,1.0119,0.671387,-0.732422,-0.12207,0
-0.0616455,-0.0990601,1.0119,0.671387,-0.732422,-0.12207,0
-0.0498047,-0.114868,1.01001,-0.610352,0.610352,0.0610352,0
-0.0725098,-0.100769,1.01379,0.0610352,0,-0.12207,0
-0.0620117,-0.121582,1.03558,-0.549316,0.793457,0.183105,0
-0.0620117,-0.121582,1.03558,-0.549316,0.793457,0.183105,0
-0.0704346,-0.125244,1.02142,0.12207,0.305176,0,0
-0.0650635,-0.111267,1.02826,0,-0.0610352,-0.0610352,0
-0.0650635,-0.111267,1.02826,0,-0.0610352,-0.0610352,0
-0.0490723,-0.109192,1.03149,-0.0610352,0.0610352,0,0
-0.0592651,-0.0801392,1.00641,0.488281,-0.488281,-0.12207,0
-0.0592651,-0.0801392,1.00641,0.488281,-0.488281,-0.12207,0
-0.0505371,-0.105347,1.01245,-0.183105,-0.0610352,0.183105,0
-0.0612793,-0.107788,1.03082,-0.0610352,0.183105,0,0
-0.0612793,-0.107788,1.03082,-0.0610352,0.183105,0,0
-0.0609741,-0.121704,1.01813,-0.0610352,0.0610352,0.0610352,0
-0.0641479,-0.11853,1.02655,0,0.244141,-0.183105,0
-0.0641479,-0.11853,1.02655,0,0.244141,-0.183105,0
-0.0713501,-0.104126,1.02563,-0.183105,0.244141,-0.0610352,0
-0.0611572,-0.116455,1.01752,0.0610352,-0.244141,0.0610352,0
-0.0611572,-0.116455,1.01752,0.0610352,-0.244141,0.0610352,0
-0.0614624,-0.105957,1.03198,0,0,0.0610352,0
-0.0502319,-0.114746,1.01331,0.366211,-0.488281,0.12207,0
-0.0502319,-0.114746,1.01331,0.366211,-0.488281,0.12207,0
-0.0588989,-0.101135,1.01703,0.0610352,0.0610352,-0.183105,0
-0.0529785,-0.100464,1.02094,-0.244141,0,-0.183105,0
-0.0529785,-0.100464,1.02094,-0.244141,0,-0.183105,0
-0.0560913,-0.108765,1.02594,-0.305176,0.366211,0,0
-0.0630493,-0.112244,1.02966,0.12207,0.244141,0.12207,0
-0.0689697,-0.123291,1.01923,0.0610352,-0.183105,-0.0610352,0
-0.0689697,-0.123291,1.01923,0.0610352,-0.183105,-0.0610352,0
-0.0701904,-0.1073,1.02325,-0.0610352,-0.244141,-0.0610352,0
-0.0598755,-0.107422,1.00812,0.183105,-0.549316,0,0
-0.0598755,-0.107422,1.00812,0.183105,-0.549316,0,0
-0.0571899,-0.102661,1.02173,-0.0610352,-0.366211,0.12207,0
-0.0595703,-0.105286,1.01727,-0.0610352,-0.305176,0.0610352,0
-0.0595703,-0.105286,1.01727,-0.0610352,-0.305176,0.0610352,0
-0.0494995,-0.120667,1.01703,-0.12207,0.12207,0.244141,0
-0.0615234,-0.108032,1.02429,0.0610352,0.183105,-0.12207,0
-0.0615234,-0.108032,1.02429,0.0610352,0.183105,-0.12207,0
-0.0551758,-0.112366,1.0235,-0.183105,0.244141,0.0610352,0
-0.0621948,-0.101807,1.02533,0,0.244141,0,0
-0.0621948,-0.101807,1.02533,0,0.244141,0,0
-0.064209,-0.106873,1.02008,0,-0.244141,0.0610352,0
-0.0600586,-0.11615,1.0249,-0.0610352,-0.305176,0.0610352,0
-0.0600586,-0.11615,1.0249,-0.0610352,-0.305176,0.0610352,0
-0.0634766,-0.113098,1.01331,0.0610352,-0.305176,0,0
-0.0594482,-0.113525,1.02081,0.0610352,0.12207,0,0
-0.0594482,-0.113525,1.02081,0.0610352,0.12207,0,0
-0.062439,-0.104553,1.01788,0.12207,0.12207,0,0
-0.0584106,-0.108459,1.01495,-0.244141,0.305176,0.0610352,0
-0.0584106,-0.108459,1.01495,-0.244141,0.305176,0.0610352,0
-0.0584106,-0.113586,1.02924,-0.183105,0.366211,0.0610352,0
-0.0612793,-0.103271,1.02429,-0.0610352,-0.0610352,0,0
-0.0612793,-0.103271,1.02429,-0.0610352,-0.0610352,0,0
-0.0532227,-0.108521,1.02258,-0.12207,-0.0610352,-0.0610352,0
-0.062439,-0.0975342,1.02905,-0.0610352,-0.12207,-0.12207,0
-0.0615234,-0.108154,1.01581,0.12207,-0.427246,0.0610352,0
-0.0615234,-0.108154,1.01581,0.12207,-0.427246,0.0610352,0
-0.0637817,-0.110168,1.01416,-0.0610352,-0.0610352,-0.0610352,0
-0.0609741,-0.117859,1.02472,-0.12207,0.183105,0.12207,0
-0.0609741,-0.117859,1.02472,-0.12207,0.183105,0.12207,0
-0.0606689,-0.11322,1.02527,0.0610352,0.0610352,0.0610352,0
-0.0657959,-0.10022,1.0224,0,0.12207,0.0610352,0
-0.0657959,-0.10022,1.0224,0,0.12207,0.0610352,0
-0.0631104,-0.101562,1.02234,-0.183105,0.244141,0,0
-0.0597534,-0.110107,1.01917,0.12207,-0.305176,0.183105,0
-0.0597534,-0.110107,1.01917,0.12207,-0.305176,0.183105,0
-0.05896,-0.10437,1.01257,0.427246,-0.732422,-0.0610352,0
-0.0671387,-0.104919,0.996887,0.366211,-1.2207,0.0610352,0
-0.0671387,-0.104919,0.996887,0.366211,-1.2207,0.0610352,0
-0.0614014,-0.0970459,1.02704,-0.793457,-0.12207,-0.12207,0
-0.0668945,-0.111938,1.00446,-0.12207,-0.244141,0.0610352,0
-0.0668945,-0.111938,1.00446,-0.12207,-0.244141,0.0610352,0
-0.0656128,-0.108643,1.03656,-0.244141,-0.244141,-0.12207,0
-0.0632324,-0.104126,1.02185,-0.427246,0.610352,-0.12207,0
-0.0632324,-0.104126,1.02185,-0.427246,0.610352,-0.12207,0
-0.0625,-0.125366,1.01886,0,0.366211,0.244141,0
-0.0721436,-0.0973511,1.03577,0.244141,0,-0.183105,0
-0.0565796,-0.104431,1.01782,-0.488281,0.305176,0.12207,0
-0.0565796,-0.104431,1.01782,-0.488281,0.305176,0.12207,0
-0.0609741,-0.108765,1.0069,0.305176,-0.12207,-0.12207,0
-0.0612183,-0.100647,1.02899,-0.366211,0.12207,0.0610352,0
-0.0612183,-0.100647,1.02899,-0.366211,0.12207,0.0610352,0
-0.0529785,-0.122803,1.021,-0.183105,0.183105,0.0610352,0
-0.0684204,-0.0944824,1.01367,0.427246,-0.366211,-0.244141,0
-0.0684204,-0.0944824,1.01367,0.427246,-0.366211,-0.244141,0
-0.0531006,-0.116882,1.02826,-0.671387,0.488281,0.244141,0
-0.0698242,-0.101501,1.0188,0.427246,-0.0610352,-0.12207,0
-0.0698242,-0.101501,1.0188,0.427246,-0.0610352,-0.12207,0
-0.05896,-0.115295,1.0282,-0.12207,-0.305176,0.244141,0
-0.0599976,-0.116089,1.02295,-0.0610352,0.0610352,-0.12207,0
-0.0599976,-0.116089,1.02295,-0.0610352,0.0610352,-0.12207,0
-0.0634766,-0.100586,1.01709,0,-0.183105,0.0610352,0
-0.0501099,-0.112549,1.02032,0,0.12207,0,0
-0.0501099,-0.112549,1.02032,0,0.12207,0,0
-0.0652466,-0.0955811,1.02466,0.0610352,0.12207,0.0610352,0
-0.0524292,-0.11499,1.01508,-0.12207,-0.0610352,0.183105,0
-0.0524292,-0.11499,1.01508,-0.12207,-0.0610352,0.183105,0
-0.0633545,-0.107239,1.03137,-0.12207,0.366211,0,0
-0.0626221,-0.114075,1.01678,-0.12207,-0.183105,0.0610352,0
-0.062439,-0.110474,1.02008,0,-0.183105,-0.12207,0
-0.062439,-0.110474,1.02008,0,-0.183105,-0.12207,0
-0.0656738,-0.10675,1.01892,-0.0610352,-0.183105,-0.0610352,0
-0.060791,-0.112793,1.02032,-0.12207,-0.183105,0,0
-0.060791,-0.112793,1.02032,-0.12207,-0.183105,0,0
-0.06427,-0.107178,1.02039,-0.0610352,0.0610352,0,0
-0.0664673,-0.105469,1.0238,-0.0610352,-0.12207,0,0
-0.0664673,-0.105469,1.0238,-0.0610352,-0.12207,0,0
-0.0661011,-0.09198,1.01184,0,-0.244141,-0.183105,0
-0.0690308,-0.0894775,1.02966,-0.854492,0.0610352,0.0610352,0
-0.0690308,-0.0894775,1.02966,-0.854492,0.0610352,0.0610352,0
-0.0558472,-0.121338,1.05383,-1.34277,1.40381,-0.12207,0
-0.0714111,-0.108337,1.00769,0.732422,-0.427246,0.0610352,0
-0.0714111,-0.108337,1.00769,0.732422,-0.427246,0.0610352,0
-0.0501709,-0.122253,1.06781,-0.854492,1.0376,-0.0610352,0
-0.0651245,-0.101562,1.00537,0.244141,0.427246,-0.0610352,0
-0.0651245,-0.101562,1.00537,0.244141,0.427246,-0.0610352,0
-0.0614624,-0.111816,1.00305,0.0610352,-0.0610352,0.12207,0
-0.0609131,-0.107483,1.04694,-0.305176,0.671387,-0.244141,0
-0.0609131,-0.107483,1.04694,-0.305176,0.671387,-0.244141,0
-0.0617065,-0.105469,1.00183,0,-0.183105,0.183105,0
-0.0521851,-0.115234,1.03107,0.12207,0.0610352,-0.244141,0
-0.0521851,-0.115234,1.03107,0.12207,0.0610352,-0.244141,0
-0.0596313,-0.0977173,1.03693,-0.488281,0.610352,0.12207,0
-0.0593262,-0.121338,1.0014,0.427246,-0.488281,0.244141,0
-0.0593262,-0.121338,1.0014,0.427246,-0.488281,0.244141,0
-0.0671387,-0.0941772,1.03796,0,-0.0610352,-0.244141,0
-0.0526123,-0.121216,1.00122,-0.488281,0.12207,0.427246,0
-0.0667725,-0.105591,1.01929,0.793457,-0.488281,-0.305176,0
-0.0667725,-0.105591,1.01929,0.793457,-0.488281,-0.305176,0
-0.0612793,-0.103882,1.02466,-0.549316,0.305176,0.366211,0
-0.05896,-0.122986,1.00531,0.0610352,0.183105,-0.0610352,0
-0.05896,-0.122986,1.00531,0.0610352,0.183105,-0.0610352,0
-0.0708008,-0.0928955,1.03314,-0.0610352,-0.0610352,-0.12207,0
-0.0505371,-0.124023,1.01367,-0.183105,0.12207,0.244141,0
-0.0505371,-0.124023,1.01367,-0.183105,0.12207,0.244141,0
-0.0693359,-0.0973511,1.01831,0.12207,-0.12207,-0.183105,0
-0.0493164,-0.11438,1.01978,-0.0610352,-0.305176,0.183105,0
-0.0493164,-0.11438,1.01978,-0.0610352,-0.305176,0.183105,0
-0.0626221,-0.106018,1.02435,-0.12207,0.305176,-0.0610352,0
-0.0629883,-0.108032,1.01202,0.244141,-0.488281,0.12207,0
-0.0629883,-0.108032,1.01202,0.244141,-0.488281,0.12207,0
-0.0553589,-0.11853,1.02881,-0.305176,0.427246,0,0
-0.0653076,-0.107849,1.01849,0.12207,0.0610352,0.0610352,0
-0.0653076,-0.107849,1.01849,0.12207,0.0610352,0.0610352,0
-0.0598755,-0.117859,1.01892,0.0610352,-0.0610352,0.0610352,0
-0.0704956,-0.0958252,1.02844,-0.488281,0.427246,-0.0610352,0
-0.0645142,-0.108948,1.00751,-0.0610352,-0.366211,0.0610352,0
-0.0645142,-0.108948,1.00751,-0.0610352,-0.366211,0.0610352,0
-0.0645752,-0.093689,1.03583,-0.610352,0.427246,-0.0610352,0
-0.0567627,-0.119995,1.0202,-0.244141,0.183105,0.244141,0
-0.0567627,-0.119995,1.0202,-0.244141,0.183105,0.244141,0
-0.0629272,-0.0988159,1.02496,-0.12207,0.183105,-0.244141,0
-0.0626831,-0.110107,1.03802,-0.732422,1.0376,0.0610352,0
-0.0626831,-0.110107,1.03802,-0.732422,1.0376,0.0610352,0
-0.0603027,-0.114502,1.02161,0.244141,-0.183105,-0.12207,0
-0.0658569,-0.0950928,1.01868,-0.12207,0.305176,0,0
-0.0658569,-0.0950928,1.01868,-0.12207,0.305176,0,0
-0.0464478,-0.13269,1.03833,-0.549316,0.732422,0.0610352,0
-0.0773315,-0.0858765,1.00964,0.610352,-0.427246,-0.244141,0
-0.0773315,-0.0858765,1.00964,0.610352,-0.427246,-0.244141,0
-0.0469971,-0.120178,1.03217,-0.610352,0.244141,0.244141,0
-0.0634155,-0.0991821,1.01099,0.0610352,0.12207,-0.12207,0
-0.0634155,-0.0991821,1.01099,0.0610352,0.12207,-0.12207,0
-0.0631104,-0.107727,1.01929,0.12207,-0.183105,0.183105,0
-0.0540771,-0.121521,1.03522,-0.305176,0.366211,0,0
-0.0540771,-0.121521,1.03522,-0.305176,0.366211,0,0
-0.0704346,-0.0938721,1.00146,0.305176,-0.427246,0.0610352,0
-0.0471191,-0.122864,1.02728,-0.549316,0.12207,0.0610352,0
-0.0471191,-0.122864,1.02728,-0.549316,0.12207,0.0610352,0
-0.0703125,-0.0925903,1.02332,0.183105,-0.12207,-0.244141,0
-0.0493774,-0.122375,1.0174,-0.183105,-0.12207,0.183105,0
-0.0639648,-0.103638,1.03076,0.0610352,0.244141,-0.183105,0
-0.0639648,-0.103638,1.03076,0.0610352,0.244141,-0.183105,0
-0.0598755,-0.111938,1.00433,-0.0610352,-0.244141,0.183105,0
-0.0598755,-0.111938,1.00433,-0.0610352,-0.244141,0.183105,0
-0.0567627,-0.112305,1.02765,-0.12207,0.488281,-0.12207,0
-0.0618286,-0.102051,1.01813,-0.0610352,-0.0610352,0.0610352,0
-0.0570068,-0.116333,1.01678,0,0.12207,0,0
-0.0570068,-0.116333,1.01678,0,0.12207,0,0
-0.0632935,-0.0994873,1.02942,-0.183105,0.12207,-0.0610352,0
-0.0570679,-0.119446,1.01172,-0.0610352,-0.244141,0.183105,0
-0.0570679,-0.119446,1.01172,-0.0610352,-0.244141,0.183105,0
-0.0646973,-0.101501,1.02454,0.183105,0,-0.183105,0
-0.0531006,-0.115601,1.02063,-0.12207,0,0.12207,0
-0.0531006,-0.115601,1.02063,-0.12207,0,0.12207,0
-0.0652466,-0.107361,1.01379,0.183105,0.12207,-0.0610352,0
-0.0612183,-0.108215,1.02759,-0.12207,0.0610352,0.12207,0
-0.0612183,-0.108215,1.02759,-0.12207,0.0610352,0.12207,0
-0.0566406,-0.114685,1.01593,0.0610352,0.12207,-0.0610352,0
-0.0620117,-0.101135,1.03125,-0.0610352,0.0610352,-0.0610352,0
-0.0620117,-0.101135,1.03125,-0.0610352,0.0610352,-0.0610352,0
-0.0570068,-0.11554,1.02301,-0.0610352,0.12207,0.0610352,0
-0.0652466,-0.100342,1.01678,0.0610352,0.183105,-0.12207,0
-0.0652466,-0.100342,1.01678,0.0610352,0.183105,-0.12207,0
-0.0575562,-0.112122,1.02002,0,0,0,0
-0.0612183,-0.108337,1.02454,-0.12207,0.0610352,0,0
-0.0612183,-0.108337,1.02454,-0.12207,0.0610352,0,0
-0.0641479,-0.110107,1.02026,0.0610352,0,0.12207,0
-0.0580444,-0.110596,1.01727,-0.0610352,-0.12207,-0.0610352,0
-0.0629272,-0.106384,1.02399,-0.244141,0.305176,0,0
-0.0629272,-0.106384,1.02399,-0.244141,0.305176,0,0
-0.0585938,-0.116882,1.02325,0,0,-0.0610352,0
-0.0619507,-0.107361,1.0202,0.244141,0,0,0
-0.0619507,-0.107361,1.0202,0.244141,0,0,0
-0.0603027,-0.109192,1.02551,0.0610352,0.0610352,-0.0610352,0
-0.062439,-0.107117,1.02325,0,0.12207,0,0
-0.062439,-0.107117,1.02325,0,0.12207,0,0
-0.0578003,-0.110229,1.02008,0.12207,0,-0.0610352,0
-0.0581665,-0.109558,1.02203,0,0.244141,0,0
-0.0581665,-0.109558,1.02203,0,0.244141,0,0
-0.0617676,-0.107971,1.0188,0,0.305176,0.0610352,0
-0.0608521,-0.10968,1.02576,0,0,-0.0610352,0
-0.0608521,-0.10968,1.02576,0,0,-0.0610352,0
-0.0605469,-0.107727,1.02191,-0.183105,-0.0610352,0,0
-0.0625,-0.109192,1.0213,-0.12207,0,0.12207,0
-0.0625,-0.109192,1.0213,-0.12207,0,0.12207,0
-0.0603027,-0.107544,1.02039,0.0610352,-0.12207,-0.0610352,0
-0.0603638,-0.107849,1.02484,-0.0610352,-0.0610352,0.0610352,0
-0.0603638,-0.107849,1.02484,-0.0610352,-0.0610352,0.0610352,0
-0.0582275,-0.107849,1.01721,0,0.0610352,-0.0610352,0
-0.059082,-0.106445,1.0152,-0.0610352,-0.0610352,0,0
-0.059082,-0.106445,1.0152,-0.0610352,-0.0610352,0,0
-0.062561,-0.108704,1.01727,0.0610352,0.0610352,0.0610352,0
-0.0593262,-0.10907,1.02472,-0.183105,0,0.0610352,0
-0.0593262,-0.10907,1.02472,-0.183105,0,0.0610352,0
-0.0608521,-0.113281,1.01978,-0.0610352,0.0610352,-0.12207,0
-0.0634766,-0.111877,1.02344,0,0,-0.0610352,0
-0.0634766,-0.111877,1.02344,0,0,-0.0610352,0
-0.0575562,-0.111572,1.02313,0,0,0.0610352,0
-0.0611572,-0.107788,1.01593,0,-0.12207,0,0
-0.0611572,-0.107788,1.01593,0,-0.12207,0,0
-0.0615234,-0.109558,1.02228,0,0.0610352,-0.0610352,0
-0.0638428,-0.110352,1.01959,0.0610352,-0.0610352,0,0
-0.0634766,-0.106079,1.02069,-0.0610352,-0.12207,-0.0610352,0
-0.0634766,-0.106079,1.02069,-0.0610352,-0.12207,-0.0610352,0
-0.0595703,-0.106689,1.02734,-0.0610352,0.244141,-0.12207,0
-0.0584717,-0.106873,1.01593,0.12207,0,0,0
-0.0584717,-0.106873,1.01593,0.12207,0,0,0
-0.0628052,-0.108765,1.02252,-0.0610352,0,0,0
-0.0602417,-0.11261,1.02533,-0.12207,0,0.0610352,0
-0.0602417,-0.11261,1.02533,-0.12207,0,0.0610352,0
-0.0606079,-0.11322,1.01727,-0.0610352,-0.12207,0,0
-0.0588989,-0.110291,1.02435,-0.183105,0.0610352,-0.12207,0
-0.0588989,-0.110291,1.02435,-0.183105,0.0610352,-0.12207,0
-0.0593262,-0.109741,1.02014,0,0.12207,0.0610352,0
-0.0614624,-0.111816,1.02045,0,0.12207,0.0610352,0
-0.0614624,-0.111816,1.02045,0,0.12207,0.0610352,0
-0.059082,-0.110229,1.02069,-0.0610352,0.0610352,-0.12207,0
-0.0599365,-0.107178,1.0202,0,0.0610352,-0.0610352,0
-0.0599365,-0.107178,1.0202,0,0.0610352,-0.0610352,0
-0.0592041,-0.106995,1.02216,0,0,-0.12207,0
-0.0623779,-0.108215,1.01605,0,-0.12207,0.12207,0
-0.0623779,-0.108215,1.01605,0,-0.12207,0.12207,0
-0.0605469,-0.106812,1.02301,-0.12207,0,-0.0610352,0
-0.0569458,-0.111511,1.02216,-0.12207,0.12207,-0.0610352,0
-0.0569458,-0.111511,1.02216,-0.12207,0.12207,-0.0610352,0
-0.0650024,-0.11377,1.01263,-0.0610352,-0.12207,0,0
-0.0604248,-0.110901,1.02637,-0.0610352,0,0,0
-0.0596313,-0.111389,1.02142,-0.0610352,0.12207,0.0610352,0
-0.0596313,-0.111389,1.02142,-0.0610352,0.12207,0.0610352,0
-0.0595093,-0.10907,1.02185,0.0610352,-0.12207,0,0
-0.0594482,-0.107605,1.02423,0,0,0,0
-0.0594482,-0.107605,1.02423,0,0,0,0
-0.0604858,-0.106995,1.02051,0,0.0610352,0.0610352,0
-0.0545044,-0.106689,1.02362,0.12207,-0.12207,-0.0610352,0
-0.0545044,-0.106689,1.02362,0.12207,-0.12207,-0.0610352,0
-0.0610352,-0.105713,1.01837,-0.0610352,0,-0.0610352,0
-0.0620728,-0.106201,1.01849,-0.0610352,-0.0610352,-0.0610352,0
-0.0620728,-0.106201,1.01849,-0.0610352,-0.0610352,-0.0610352,0
-0.0599976,-0.110413,1.01996,-0.183105,-0.0610352,0,0
-0.0591431,-0.112,1.02429,0,-0.12207,0,0
-0.0591431,-0.112,1.02429,0,-0.12207,0,0
-0.0637207,-0.105103,1.02209,-0.0610352,0.0610352,0.0610352,0
-0.0584106,-0.111755,1.01587,0.0610352,0.0610352,0.0610352,0
-0.0584106,-0.111755,1.01587,0.0610352,0.0610352,0.0610352,0
-0.0609131,-0.106506,1.0191,0,0,-0.0610352,0
-0.0609741,-0.108154,1.0199,-0.12207,0.12207,-0.0610352,0
-0.0609741,-0.108154,1.0199,-0.12207,0.12207,-0.0610352,0
-0.0623169,-0.113037,1.0174,-0.0610352,0.0610352,-0.0610352,0
-0.0603638,-0.106384,1.02319,0,0,0,0
-0.0621948,-0.107178,1.02148,-0.0610352,0,0.12207,0
-0.0621948,-0.107178,1.02148,-0.0610352,0,0.12207,0
-0.0628052,-0.108093,1.01813,0,-0.0610352,-0.0610352,0
-0.0615234,-0.109741,1.02252,0,0,-0.0610352,0
-0.0615234,-0.109741,1.02252,0,0,-0.0610352,0
-0.0608521,-0.11322,1.01666,0.0610352,0,0.12207,0
-0.0602417,-0.108643,1.01483,0,-0.183105,-0.0610352,0
-0.0602417,-0.108643,1.01483,0,-0.183105,-0.0610352,0
-0.0592041,-0.111267,1.02313,-0.0610352,0.0610352,0,0
-0.0618896,-0.109436,1.01782,0.12207,0.12207,-0.0610352,0
-0.0618896,-0.109436,1.01782,0.12207,0.12207,-0.0610352,0
-0.0578003,-0.103882,1.0224,0,0.0610352,0.0610352,0
-0.0587769,-0.109741,1.01965,-0.0610352,0.0610352,-0.12207,0
-0.0587769,-0.109741,1.01965,-0.0610352,0.0610352,-0.12207,0
-0.0593872,-0.104431,1.01788,0,0,0.0610352,0
-0.0595093,-0.107666,1.02203,0,0,0.12207,0
-0.0595093,-0.107666,1.02203,0,0,0.12207,0
-0.060791,-0.111084,1.01697,-0.12207,-0.12207,0,0
-0.0598145,-0.110779,1.01843,-0.0610352,-0.12207,0.0610352,0
-0.0598145,-0.110779,1.01843,-0.0610352,-0.12207,0.0610352,0
-0.0611572,-0.111328,1.01831,0,0,0,0
-0.0633545,-0.107117,1.01361,0.244141,0,-0.0610352,0
-0.0564575,-0.107117,1.02496,-0.12207,0.183105,0.0610352,0
-0.0564575,-0.107117,1.02496,-0.12207,0.183105,0.0610352,0
-0.0591431,-0.107483,1.02679,0,0,-0.0610352,0
-0.0596313,-0.104309,1.02197,0.12207,-0.12207,0,0
-0.0596313,-0.104309,1.02197,0.12207,-0.12207,0,0
-0.0609131,-0.109131,1.02252,0,0.0610352,0.0610352,0
-0.0625,-0.105042,1.02264,0,0.12207,0,0
-0.0625,-0.105042,1.02264,0,0.12207,0,0
-0.06073,-0.108887,1.01855,0,0.0610352,-0.0610352,0
-0.0628052,-0.107666,1.01923,0.0610352,0,0.0610352,0
-0.0628052,-0.107666,1.01923,0.0610352,0,0.0610352,0
-0.0613403,-0.109009,1.02203,0,0,0.0610352,0
-0.0593872,-0.110229,1.02417,0,0.12207,0.0610352,0
-0.0593872,-0.110229,1.02417,0,0.12207,0.0610352,0
-0.0598145,-0.107422,1.01685,0,0.0610352,0,0
-0.0588379,-0.112976,1.02179,0,0.12207,0,0
-0.0588379,-0.112976,1.02179,0,0.12207,0,0
-0.0601807,-0.106995,1.02124,0,0.0610352,0.12207,0
-0.0600586,-0.108459,1.0249,-0.12207,-0.0610352,0.0610352,0
-0.0600586,-0.108459,1.0249,-0.12207,-0.0610352,0.0610352,0
-0.0588989,-0.110291,1.0199,0,0,-0.0610352,0
-0.0582886,-0.109131,1.02155,0,0,0.0610352,0
-0.0582886,-0.109131,1.02155,0,0,0.0610352,0
-0.0636597,-0.109985,1.02087,-0.0610352,0.12207,-0.12207,0
-0.0604858,-0.110535,1.01678,-0.12207,-0.0610352,0.12207,0
-0.0604858,-0.110535,1.01678,-0.12207,-0.0610352,0.12207,0
-0.0621338,-0.108643,1.0238,-0.0610352,0.12207,0.0610352,0
-0.0584106,-0.112061,1.01978,-0.12207,0.12207,0,0
-0.0584106,-0.112061,1.01978,-0.12207,0.12207,0,0
-0.0603027,-0.108704,1.01465,0.12207,0,0,0
-0.0603027,-0.106201,1.02319,-0.0610352,0.12207,0,0
-0.0603027,-0.106201,1.02319,-0.0610352,0.12207,0,0
-0.0546875,-0.110535,1.01447,0.0610352,0.0610352,-0.0610352,0
-0.0580444,-0.104553,1.01843,0.12207,0.0610352,-0.0610352,0
-0.0592041,-0.109802,1.02588,-0.244141,0.12207,-0.0610352,0
-0.0592041,-0.109802,1.02588,-0.244141,0.12207,-0.0610352,0
-0.0649414,-0.109497,1.02148,-0.12207,-0.183105,0.12207,0
-0.0628052,-0.110901,1.02545,-0.0610352,-0.0610352,-0.0610352,0
-0.0628052,-0.110901,1.02545,-0.0610352,-0.0610352,-0.0610352,0
-0.0584717,-0.110107,1.02686,0,0.12207,0.0610352,0
-0.0578613,-0.108521,1.01459,0.0610352,0,0.0610352,0
-0.0578613,-0.108521,1.01459,0.0610352,0,0.0610352,0
-0.0599365,-0.107971,1.02557,0,0.12207,0.0610352,0
-0.0577393,-0.110596,1.01721,-0.0610352,0.0610352,-0.0610352,0
-0.0577393,-0.110596,1.01721,-0.0610352,0.0610352,-0.0610352,0
-0.0570068,-0.108643,1.021,-0.0610352,-0.12207,0,0
-0.0570068,-0.105225,1.02924,0,0,0.0610352,0
-0.0570068,-0.105225,1.02924,0,0,0.0610352,0
-0.0562744,-0.107727,1.02362,0,0,-0.0610352,0
-0.0593872,-0.110779,1.02411,0,0,0.0610352,0
-0.0593872,-0.110779,1.02411,0,0,0.0610352,0
-0.0619507,-0.111023,1.01733,-0.0610352,-0.183105,0.0610352,0
-0.0593872,-0.111816,1.0213,0,0,0,0
-0.0593872,-0.111816,1.0213,0,0,0,0
-0.0603027,-0.107788,1.01599,0,0.183105,0,0
-0.059082,-0.110718,1.01837,-0.0610352,0,-0.12207,0
-0.059082,-0.110718,1.01837,-0.0610352,0,-0.12207,0
-0.0610962,-0.107849,1.02582,-0.12207,0.305176,0.0610352,0
-0.0603027,-0.111511,1.01819,0,0,0.0610352,0
-0.0603027,-0.111511,1.01819,0,0,0.0610352,0
-0.0614014,-0.104492,1.01752,-0.0610352,-0.244141,-0.183105,0
-0.0585938,-0.110107,1.02032,-0.12207,0.183105,-0.0610352,0
-0.0592041,-0.110718,1.01947,0.183105,0.0610352,0,0
-0.0592041,-0.110718,1.01947,0.183105,0.0610352,0,0
-0.0599365,-0.109741,1.02747,0,0.0610352,-0.12207,0
-0.0593262,-0.115784,1.01672,0,0.0610352,0.0610352,0
-0.0593262,-0.115784,1.01672,0,0.0610352,0.0610352,0
-0.0629272,-0.106689,1.01697,0.0610352,-0.0610352,-0.0610352,0
-0.0610352,-0.107361,1.02948,-0.183105,0.12207,0,0
-0.0610352,-0.107361,1.02948,-0.183105,0.12207,0,0
-0.0595093,-0.106812,1.02289,0.0610352,0,0.0610352,0
-0.0637817,-0.105774,1.02362,0,-0.183105,-0.12207,0
-0.0637817,-0.105774,1.02362,0,-0.183105,-0.12207,0
-0.0594482,-0.111206,1.02228,-0.0610352,0.12207,0,0
-0.062561,-0.107361,1.02167,0,-0.0610352,0,0
-0.062561,-0.107361,1.02167,0,-0.0610352,0,0
-0.0579224,-0.109375,1.02374,0,0.0610352,0.0610352,0
-0.0620117,-0.108459,1.01624,-0.0610352,-0.0610352,0,0
-0.0620117,-0.108459,1.01624,-0.0610352,-0.0610352,0,0
-0.0632935,-0.107544,1.02313,-0.183105,-0.0610352,0.0610352,0
-0.0593262,-0.112183,1.02173,-0.12207,0.12207,0,0
-0.0593262,-0.112183,1.02173,-0.12207,0.12207,0,0
-0.0635376,-0.108093,1.01691,0.12207,-0.244141,0.12207,0
-0.0594482,-0.107178,1.02039,-0.0610352,-0.0610352,0.0610352,0
-0.0599976,-0.106934,1.02576,-0.12207,0.12207,0.12207,0
-0.0599976,-0.106934,1.02576,-0.12207,0.12207,0.12207,0
-0.0615845,-0.106689,1.02399,0,-0.0610352,0,0
-0.0581055,-0.110046,1.0224,0,0,0.0610352,0
-0.0581055,-0.110046,1.0224,0,0,0.0610352,0
-0.0600586,-0.109314,1.01959,-0.0610352,0.0610352,0.0610352,0
-0.0588379,-0.112061,1.02612,0,0,0.0610352,0
-0.0588379,-0.112061,1.02612,0,0,0.0610352,0
-0.0581055,-0.109253,1.02197,0,0,0,0
-0.0646973,-0.110168,1.0166,0,-0.0610352,0,0
-0.0646973,-0.110168,1.0166,0,-0.0610352,0,0
-0.0595703,-0.108826,1.02454,-0.183105,0.12207,-0.0610352,0
-0.0611572,-0.11084,1.01428,0.0610352,-0.0610352,0,0
-0.0611572,-0.11084,1.01428,0.0610352,-0.0610352,0,0
-0.0599365,-0.109741,1.02209,0.0610352,-0.0610352,0.0610352,0
-0.0594482,-0.106689,1.02692,-0.0610352,0,0.0610352,0
-0.0594482,-0.106689,1.02692,-0.0610352,0,0.0610352,0
-0.0626831,-0.108276,1.01923,0.0610352,0.12207,0.0610352,0
-0.0588989,-0.109436,1.02466,0,0.0610352,0,0
-0.0588989,-0.109436,1.02466,0,0.0610352,0,0
-0.0602417,-0.114197,1.01532,-0.0610352,-0.0610352,0,0
-0.0601196,-0.106018,1.02533,-0.0610352,0,0,0
-0.0571289,-0.11377,1.02057,-0.0610352,0,0.183105,0
-0.0571289,-0.11377,1.02057,-0.0610352,0,0.183105,0
-0.06073,-0.108948,1.0199,0.183105,-0.12207,0,0
-0.0608521,-0.106567,1.02631,-0.12207,0.12207,0,0
-0.0608521,-0.106567,1.02631,-0.12207,0.12207,0,0
-0.0582275,-0.112549,1.02185,0,0.0610352,0.0610352,0
-0.062439,-0.107605,1.01703,0.183105,-0.12207,-0.0610352,0
-0.062439,-0.107605,1.01703,0.183105,-0.12207,-0.0610352,0
-0.0600586,-0.109558,1.02478,0,0.0610352,-0.0610352,0
-0.0597534,-0.106018,1.01941,0,0.0610352,0,0
-0.0597534,-0.106018,1.01941,0,0.0610352,0,0
-0.0582886,-0.106873,1.02582,0,0,-0.12207,0
-0.0621948,-0.111023,1.02148,0,0.0610352,-0.0610352,0
-0.0621948,-0.111023,1.02148,0,0.0610352,-0.0610352,0
-0.0591431,-0.107971,1.02277,0,0.0610352,0.0610352,0
-0.0604248,-0.114075,1.01575,0,0,0.183105,0
-0.0604248,-0.114075,1.01575,0,0,0.183105,0
-0.0639648,-0.107971,1.0235,0.12207,0.12207,0,0
-0.0603027,-0.108826,1.02173,0,0.12207,0,0
-0.0603027,-0.108826,1.02173,0,0.12207,0,0
-0.0585938,-0.111145,1.02014,0.12207,0.0610352,-0.0610352,0
-0.0609131,-0.105713,1.02081,0.0610352,0.0610352,-0.183105,0
-0.0599365,-0.109375,1.02081,0,0.12207,-0.0610352,0
-0.0599365,-0.109375,1.02081,0,0.12207,-0.0610352,0
-0.060791,-0.107727,1.01178,-0.0610352,-0.12207,0.0610352,0
-0.0603638,-0.105652,1.021,-0.0610352,0,-0.0610352,0
-0.0603638,-0.105652,1.021,-0.0610352,0,-0.0610352,0
-0.059021,-0.108765,1.02289,0,0,0,0
-0.06073,-0.111511,1.02087,0.0610352,0,-0.0610352,0
-0.06073,-0.111511,1.02087,0.0610352,0,-0.0610352,0
-0.0621338,-0.107849,1.02014,-0.183105,-0.0610352,0,0
-0.0602417,-0.109863,1.02008,-0.12207,0,0,0
-0.0602417,-0.109863,1.02008,-0.12207,0,0,0
-0.0601196,-0.110657,1.01752,0,-0.0610352,0.0610352,0
-0.0601807,-0.111084,1.02295,-0.12207,-0.0610352,-0.12207,0
-0.0601807,-0.111084,1.02295,-0.12207,-0.0610352,-0.12207,0
-0.0599365,-0.107361,1.02209,-0.0610352,0,0.0610352,0
-0.0567627,-0.108154,1.01953,0,0.0610352,0.0610352,0
-0.0567627,-0.108154,1.01953,0,0.0610352,0.0610352,0
-0.0584717,-0.110291,1.01929,0,-0.0610352,0.0610352,0
-0.0605469,-0.107788,1.02539,-0.0610352,0.0610352,0.0610352,0
-0.0605469,-0.107788,1.02539,-0.0610352,0.0610352,0.0610352,0
-0.0575562,-0.116455,1.01544,0,0,0,0
-0.0563965,-0.107239,1.02203,0,0,-0.0610352,0
-0.0563965,-0.107239,1.02203,0,0,-0.0610352,0
-0.0570068,-0.111084,1.02155,-0.305176,0.0610352,0,0
-0.062439,-0.10791,1.01843,0,-0.0610352,0,0
-0.0604858,-0.108948,1.0152,-0.0610352,-0.12207,0,0
-0.0604858,-0.108948,1.0152,-0.0610352,-0.12207,0,0
-0.0594482,-0.112183,1.02264,0,0.183105,0.12207,0
-0.059082,-0.109497,1.0141,0,-0.0610352,0,0
-0.059082,-0.109497,1.0141,0,-0.0610352,0,0
-0.0585938,-0.106445,1.01556,0.0610352,0,0.12207,0
-0.062561,-0.106506,1.01508,-0.183105,0.0610352,0.0610352,0
-0.062561,-0.106506,1.01508,-0.183105,0.0610352,0.0610352,0
-0.0618286,-0.110046,1.02057,-0.0610352,-0.183105,-0.0610352,0
-0.0576172,-0.112732,1.02704,0,0.12207,0,0
-0.0576172,-0.112732,1.02704,0,0.12207,0,0
-0.0582886,-0.107727,1.02124,-0.0610352,-0.0610352,0,0
-0.0613403,-0.109314,1.02197,0.0610352,0.0610352,-0.0610352,0
-0.0613403,-0.109314,1.02197,0.0610352,0.0610352,-0.0610352,0
-0.0617676,-0.108887,1.01477,-0.0610352,-0.12207,-0.0610352,0
-0.0600586,-0.109802,1.01886,-0.12207,-0.12207,0,0
-0.0600586,-0.109802,1.01886,-0.12207,-0.12207,0,0
-0.0610352,-0.107727,1.0163,-0.0610352,-0.0610352,0.0610352,0
-0.0618286,-0.111084,1.0257,-0.0610352,-0.12207,0,0
-0.0618286,-0.111084,1.0257,-0.0610352,-0.12207,0,0
-0.0603638,-0.108582,1.02625,-0.183105,0.0610352,0,0
-0.0629272,-0.113464,1.01898,-0.12207,-0.12207,0.0610352,0
-0.0629272,-0.113464,1.01898,-0.12207,-0.12207,0.0610352,0
-0.06604,-0.108826,1.02014,0.0610352,-0.12207,-0.0610352,0
-0.0588989,-0.109497,1.02264,-0.183105,0,0.0610352,0
-0.0608521,-0.110352,1.01624,0.12207,0,0.12207,0
-0.0608521,-0.110352,1.01624,0.12207,0,0.12207,0
-0.0600586,-0.105896,1.02344,-0.12207,-0.305176,0.0610352,0
-0.0577393,-0.108948,1.0271,-0.12207,-0.0610352,0,0
-0.0577393,-0.108948,1.0271,-0.12207,-0.0610352,0,0
-0.0609741,-0.108704,1.01483,0.0610352,-0.12207,0.0610352,0
-0.0593262,-0.113098,1.02332,-0.0610352,-0.12207,-0.0610352,0
-0.0593262,-0.113098,1.02332,-0.0610352,-0.12207,-0.0610352,0
-0.0622559,-0.108459,1.01929,0.0610352,-0.12207,0.0610352,0
-0.0585938,-0.10791,1.02148,-0.0610352,-0.244141,-0.0610352,0
-0.0585938,-0.10791,1.02148,-0.0610352,-0.244141,-0.0610352,0
-0.06073,-0.108154,1.02429,-0.12207,-0.0610352,0,0
-0.062561,-0.110352,1.01617,0,-0.12207,0,0
-0.062561,-0.110352,1.01617,0,-0.12207,0,0
-0.0585327,-0.109375,1.02588,-0.0610352,0,-0.12207,0
-0.0576172,-0.111023,1.02008,-0.183105,-0.12207,0,0
-0.0576172,-0.111023,1.02008,-0.183105,-0.12207,0,0
-0.0622559,-0.106079,1.02063,-0.0610352,-0.12207,-0.12207,0
-0.0603638,-0.108704,1.02216,-0.183105,-0.12207,0,0
-0.0603638,-0.108704,1.02216,-0.183105,-0.12207,0,0
-0.0574341,-0.111023,1.01654,-0.12207,-0.0610352,0,0
-0.0599365,-0.109192,1.02344,-0.0610352,-0.0610352,0.0610352,0
-0.0599365,-0.109192,1.02344,-0.0610352,-0.0610352,0.0610352,0
-0.0600586,-0.110474,1.0188,-0.12207,-0.0610352,-0.0610352,0
-0.0612183,-0.108215,1.02063,0.0610352,0,0,0
-0.0612793,-0.109619,1.02533,-0.0610352,-0.183105,0,0
-0.0612793,-0.109619,1.02533,-0.0610352,-0.183105,0,0
-0.0587158,-0.109009,1.02673,-0.0610352,-0.0610352,0,0
-0.062561,-0.106628,1.02216,0,0,0.0610352,0
-0.062561,-0.106628,1.02216,0,0,0.0610352,0
-0.0603027,-0.109985,1.01886,0.12207,0,-0.0610352,0
-0.0604858,-0.105713,1.02405,0,-0.0610352,0.0610352,0
-0.0604858,-0.105713,1.02405,0,-0.0610352,0.0610352,0
-0.0583496,-0.108093,1.02252,0.12207,0.0610352,0.0610352,0
-0.0599976,-0.111572,1.01886,0,0,0.0610352,0
-0.0599976,-0.111572,1.01886,0,0,0.0610352,0
-0.0618896,-0.105713,1.01819,-0.0610352,-0.0610352,0,0
-0.0576782,-0.109924,1.0213,-0.0610352,0.0610352,0.0610352,0
-0.0576782,-0.109924,1.0213,-0.0610352,0.0610352,0.0610352,0
-0.0595093,-0.108459,1.01636,0,-0.12207,-0.0610352,0
-0.0614624,-0.110779,1.01996,0,0,0.0610352,0
-0.0614624,-0.110779,1.01996,0,0,0.0610352,0
-0.0628052,-0.108032,1.02081,0,0,0,0
-0.0622559,-0.110168,1.02368,-0.0610352,-0.12207,-0.12207,0
-0.0622559,-0.110168,1.02368,-0.0610352,-0.12207,-0.12207,0
-0.0568848,-0.111511,1.02002,0,0.0610352,0.0610352,0
-0.0617676,-0.106384,1.01941,0,0,0,0
-0.0617676,-0.106384,1.01941,0,0,0,0
-0.0579224,-0.110046,1.02191,-0.0610352,0,-0.0610352,0
-0.0629272,-0.107605,1.01807,0,-0.0610352,0,0
-0.0606689,-0.108337,1.01978,0,0.0610352,0.0610352,0
-0.0606689,-0.108337,1.01978,0,0.0610352,0.0610352,0
-0.0582275,-0.113953,1.01508,0,0,0,0
-0.0584106,-0.10968,1.0177,0,-0.305176,0,0
-0.0584106,-0.10968,1.0177,0,-0.305176,0,0
-0.060791,-0.108337,1.01874,-0.12207,-0.0610352,0,0
-0.0586548,-0.109863,1.01819,-0.0610352,-0.0610352,0.12207,0
-0.0586548,-0.109863,1.01819,-0.0610352,-0.0610352,0.12207,0
-0.0628662,-0.106689,1.01813,-0.0610352,-0.12207,0.0610352,0
-0.0592041,-0.10968,1.01837,-0.12207,0.12207,0.183105,0
-0.0592041,-0.10968,1.01837,-0.12207,0.12207,0.183105,0
-0.0617676,-0.107971,1.01971,0.183105,-0.12207,0.0610352,0
-0.060791,-0.108459,1.02026,-0.0610352,-0.183105,-0.0610352,0
-0.060791,-0.108459,1.02026,-0.0610352,-0.183105,-0.0610352,0
-0.0578003,-0.110352,1.02008,-0.0610352,-0.0610352,0.0610352,0
-0.0600586,-0.10907,1.01813,-0.0610352,-0.12207,-0.0610352,0
-0.0600586,-0.10907,1.01813,-0.0610352,-0.12207,-0.0610352,0
-0.0592651,-0.11084,1.02509,0.0610352,0,0.0610352,0
-0.0577393,-0.111023,1.01459,-0.12207,-0.12207,0,0
-0.0577393,-0.111023,1.01459,-0.12207,-0.12207,0,0
-0.0623169,-0.11084,1.021,-0.0610352,-0.0610352,0,0
-0.0604248,-0.107422,1.01538,0,0,0,0
-0.0617065,-0.106323,1.01575,-0.183105,-0.12207,0,0
-0.0617065,-0.106323,1.01575,-0.183105,-0.12207,0,0
-0.0594482,-0.109741,1.02234,-0.183105,-0.0610352,0.0610352,0
-0.06073,-0.106873,1.01898,0,-0.12207,0,0
-0.06073,-0.106873,1.01898,0,-0.12207,0,0
-0.0599365,-0.1073,1.02057,0.0610352,-0.12207,0,0
-0.0579834,-0.112244,1.02209,-0.12207,0.0610352,-0.0610352,0
-0.0579834,-0.112244,1.02209,-0.12207,0.0610352,-0.0610352,0
-0.06073,-0.108643,1.01917,-0.0610352,-0.183105,0,0
-0.0585938,-0.110229,1.02075,0.0610352,0,-0.0610352,0
-0.0585938,-0.110229,1.02075,0.0610352,0,-0.0610352,0
-0.0612183,-0.113281,1.01947,-0.0610352,-0.12207,0,0
-0.0618286,-0.106018,1.02362,-0.0610352,-0.0610352,0,0
-0.0618286,-0.106018,1.02362,-0.0610352,-0.0610352,0,0
-0.0595703,-0.109009,1.02539,-0.12207,-0.0610352,0,0
-0.0604858,-0.107483,1.01862,0.12207,0,-0.0610352,0
-0.0604858,-0.107483,1.01862,0.12207,0,-0.0610352,0
-0.0560303,-0.108948,1.02173,-0.0610352,0,-0.12207,0
-0.0579834,-0.111206,1.01855,0,0.0610352,0.0610352,0
-0.0579834,-0.111206,1.01855,0,0.0610352,0.0610352,0
-0.0611572,-0.105469,1.01709,-0.0610352,-0.305176,0,0
-0.0571289,-0.108276,1.02899,-0.0610352,0.0610352,-0.12207,0
-0.064209,-0.110474,1.0144,0,-0.244141,0.0610352,0
-0.064209,-0.110474,1.0144,0,-0.244141,0.0610352,0
-0.0626221,-0.107849,1.02228,-0.12207,-0.12207,-0.12207,0
-0.0608521,-0.109009,1.02521,-0.183105,0.12207,0.0610352,0
-0.0608521,-0.109009,1.02521,-0.183105,0.12207,0.0610352,0
-0.0625,-0.11084,1.01453,0.12207,-0.0610352,0.0610352,0
-0.0609741,-0.106262,1.01837,-0.0610352,-0.12207,0,0
-0.0609741,-0.106262,1.01837,-0.0610352,-0.12207,0,0
-0.0604248,-0.107971,1.01825,-0.0610352,0.0610352,0,0
-0.059021,-0.110657,1.01941,-0.0610352,-0.183105,0.0610352,0
-0.059021,-0.110657,1.01941,-0.0610352,-0.183105,0.0610352,0
-0.0581665,-0.112244,1.01935,0,0,0.0610352,0
-0.0593872,-0.108337,1.0188,-0.0610352,-0.0610352,0,0
-0.0593872,-0.108337,1.0188,-0.0610352,-0.0610352,0,0
-0.0579834,-0.109863,1.02216,0,0,-0.0610352,0
-0.0640869,-0.110718,1.02039,-0.0610352,-0.12207,0,0
-0.0640869,-0.110718,1.02039,-0.0610352,-0.12207,0,0
-0.0603638,-0.10614,1.02234,-0.0610352,0,0,0
-0.0614624,-0.114868,1.01953,0.0610352,0.0610352,0.183105,0
-0.0614624,-0.114868,1.01953,0.0610352,0.0610352,0.183105,0
-0.0631714,-0.108643,1.01917,0.0610352,0,0.0610352,0
-0.0593872,-0.107849,1.02612,-0.0610352,-0.0610352,0.12207,0
-0.0593872,-0.107849,1.02612,-0.0610352,-0.0610352,0.12207,0
-0.060791,-0.112671,1.0202,0,0,0.12207,0
-0.0598755,-0.10791,1.0199,-0.0610352,-0.12207,0.183105,0
-0.0543213,-0.110046,1.02228,-0.0610352,0.0610352,0.0610352,0
-0.0543213,-0.110046,1.02228,-0.0610352,0.0610352,0.0610352,0
-0.0577393,-0.111145,1.01855,0,-0.0610352,0.0610352,0
-0.0583496,-0.110718,1.02179,-0.0610352,-0.0610352,0.12207,0
-0.0583496,-0.110718,1.02179,-0.0610352,-0.0610352,0.12207,0
-0.0584717,-0.108765,1.02179,-0.244141,-0.12207,0.0610352,0
-0.0592651,-0.108459,1.01581,-0.0610352,-0.0610352,0,0
-0.0592651,-0.108459,1.01581,-0.0610352,-0.0610352,0,0
-0.0601807,-0.109924,1.02441,0,0,0,0
-0.0614624,-0.108093,1.0177,-0.0610352,-0.12207,0,0
-0.0614624,-0.108093,1.0177,-0.0610352,-0.12207,0,0
-0.06073,-0.105713,1.02246,-0.0610352,-0.183105,0,0
-0.0612183,-0.107788,1.02167,0,0.0610352,0,0
-0.0612183,-0.107788,1.02167,0,0.0610352,0,0
-0.0598145,-0.106445,1.02588,-0.12207,-0.0610352,-0.0610352,0
-0.0639038,-0.108521,1.01648,-0.0610352,-0.0610352,0.0610352,0
-0.0639038,-0.108521,1.01648,-0.0610352,-0.0610352,0.0610352,0
-0.0609131,-0.107605,1.01709,-0.0610352,-0.0610352,0.0610352,0
-0.0599976,-0.107605,1.02368,0,0.0610352,-0.0610352,0
-0.0599976,-0.107605,1.02368,0,0.0610352,-0.0610352,0
-0.0603638,-0.112549,1.01874,0,-0.244141,0.0610352,0
-0.0619507,-0.109192,1.01886,-0.0610352,-0.12207,-0.0610352,0
-0.0619507,-0.109192,1.01886,-0.0610352,-0.12207,-0.0610352,0
-0.0598145,-0.109314,1.02332,-0.183105,0.0610352,0,0
-0.0608521,-0.105713,1.02271,-0.0610352,-0.183105,0,0
-0.0608521,-0.105713,1.02271,-0.0610352,-0.183105,0,0
-0.0621948,-0.105469,1.02252,-0.12207,-0.0610352,0,0
-0.0582275,-0.112671,1.01733,0,0.12207,0,0
-0.0639038,-0.108521,1.01428,0.0610352,-0.183105,-0.0610352,0
-0.0639038,-0.108521,1.01428,0.0610352,-0.183105,-0.0610352,0
-0.0623169,-0.110596,1.02576,0,0.0610352,0.12207,0
-0.0570679,-0.112305,1.01764,-0.0610352,-0.0610352,0.0610352,0
-0.0570679,-0.112305,1.01764,-0.0610352,-0.0610352,0.0610352,0
-0.0601196,-0.109314,1.01428,0,-0.12207,-0.12207,0
-0.0570679,-0.111206,1.02393,-0.0610352,0.0610352,0,0
-0.0570679,-0.111206,1.02393,-0.0610352,0.0610352,0,0
-0.0592041,-0.107056,1.02448,-0.0610352,-0.0610352,-0.12207,0
-0.0556641,-0.112061,1.0191,0,0,-0.12207,0
-0.0556641,-0.112061,1.0191,0,0,-0.12207,0
-0.062561,-0.108154,1.02087,-0.0610352,-0.12207,-0.0610352,0
-0.062439,-0.106445,1.01971,-0.12207,-0.0610352,-0.0610352,0
-0.062439,-0.106445,1.01971,-0.12207,-0.0610352,-0.0610352,0
-0.0595093,-0.112183,1.0257,-0.0610352,0,0.0610352,0
-0.060791,-0.108704,1.02051,0.12207,-0.12207,-0.12207,0
-0.060791,-0.108704,1.02051,0.12207,-0.12207,-0.12207,0
-0.060791,-0.110229,1.02313,-0.0610352,0,-0.0610352,0
-0.0575562,-0.111572,1.01599,0,0.12207,0,0
-0.0575562,-0.111572,1.01599,0,0.12207,0,0
-0.0614014,-0.109375,1.02045,0,-0.12207,-0.0610352,0
-0.0628052,-0.110474,1.0199,-0.12207,0.0610352,0,0
-0.0601807,-0.107483,1.02063,-0.12207,-0.0610352,0.0610352,0
-0.0601807,-0.107483,1.02063,-0.12207,-0.0610352,0.0610352,0
-0.0639038,-0.108032,1.02063,-0.0610352,-0.12207,0,0
-0.0610352,-0.109253,1.02051,0,0,0.0610352,0
-0.0610352,-0.109253,1.02051,0,0,0.0610352,0
-0.0602417,-0.105896,1.02271,-0.0610352,-0.183105,-0.12207,0
-0.0578613,-0.108948,1.02136,0,0.12207,-0.0610352,0
-0.0578613,-0.108948,1.02136,0,0.12207,-0.0610352,0
-0.0586548,-0.108276,1.02008,-0.12207,-0.0610352,0.0610352,0
-0.0612183,-0.109619,1.01965,0.0610352,0,-0.0610352,0
-0.0612183,-0.109619,1.01965,0.0610352,0,-0.0610352,0
-0.0569458,-0.111206,1.02362,0,0,0.12207,0
-0.06073,-0.109131,1.01831,-0.0610352,-0.12207,0.0610352,0
-0.06073,-0.109131,1.01831,-0.0610352,-0.12207,0.0610352,0
-0.0576172,-0.109802,1.01569,0,0,0,0
-0.0582886,-0.107239,1.01917,0.12207,0.0610352,0,0
-0.0582886,-0.107239,1.01917,0.12207,0.0610352,0,0
-0.0600586,-0.10675,1.02441,-0.0610352,-0.183105,0.0610352,0
-0.0595093,-0.108887,1.02277,-0.0610352,-0.183105,0,0
-0.0595093,-0.108887,1.02277,-0.0610352,-0.183105,0,0
-0.0633545,-0.108337,1.01605,0.0610352,0,0,0
-0.0625,-0.111328,1.02173,-0.12207,-0.12207,0,0
-0.0606689,-0.109375,1.02081,0.0610352,-0.0610352,0.12207,0
-0.0606689,-0.109375,1.02081,0.0610352,-0.0610352,0.12207,0
-0.0604858,-0.106689,1.02148,-0.0610352,-0.0610352,-0.0610352,0
-0.0601196,-0.112427,1.02161,0,0,0,0
-0.0601196,-0.112427,1.02161,0,0,0,0
-0.0612183,-0.10614,1.01514,0,-0.12207,-0.0610352,0
-0.0614624,-0.108582,1.02686,-0.183105,0,0.0610352,0
-0.0614624,-0.108582,1.02686,-0.183105,0,0.0610352,0
-0.0593262,-0.112183,1.0177,-0.0610352,-0.0610352,0,0
-0.0593872,-0.107666,1.01477,0,-0.183105,-0.0610352,0
-0.0593872,-0.107666,1.01477,0,-0.183105,-0.0610352,0
-0.0596313,-0.108093,1.03314,-0.183105,0.183105,0.0610352,0
-0.0615234,-0.11084,1.01727,-0.0610352,-0.12207,0,0
-0.0615234,-0.11084,1.01727,-0.0610352,-0.12207,0,0
-0.0603027,-0.109436,1.01941,0,0,0,0
-0.0627441,-0.108032,1.02051,-0.12207,0,0.12207,0
-0.0627441,-0.108032,1.02051,-0.12207,0,0.12207,0
-0.0630493,-0.109253,1.01776,0,-0.12207,0.0610352,0
-0.0583496,-0.112122,1.02069,0,0.0610352,0.0610352,0
-0.0583496,-0.112122,1.02069,0,0.0610352,0.0610352,0
-0.0602417,-0.108337,1.01672,-0.0610352,-0.0610352,0.12207,0
-0.0576782,-0.110474,1.02289,-0.12207,-0.12207,-0.0610352,0
-0.0576782,-0.110474,1.02289,-0.12207,-0.12207,-0.0610352,0
-0.0593262,-0.109924,1.02466,-0.12207,-0.12207,0,0
-0.0604858,-0.108521,1.02228,0.0610352,-0.12207,0,0
-0.0618286,-0.105286,1.02075,0,0.0610352,0,0
-0.0618286,-0.105286,1.02075,0,0.0610352,0,0
-0.0614624,-0.110352,1.01575,-0.12207,-0.12207,0.12207,0
-0.0606689,-0.106995,1.01959,-0.0610352,-0.12207,-0.0610352,0
-0.0606689,-0.106995,1.01959,-0.0610352,-0.12207,-0.0610352,0
-0.059021,-0.107849,1.02661,-0.12207,0.12207,-0.12207,0
-0.0578613,-0.108032,1.01868,-0.0610352,-0.12207,0.12207,0
-0.0578613,-0.108032,1.01868,-0.0610352,-0.12207,0.12207,0
-0.0587769,-0.10968,1.01929,0.0610352,0,-0.0610352,0
-0.0587158,-0.112305,1.01923,0.0610352,0.0610352,0,0
-0.0587158,-0.112305,1.01923,0.0610352,0.0610352,0,0
-0.0599976,-0.108521,1.0188,0,-0.0610352,-0.0610352,0
-0.0583496,-0.112732,1.02167,0,0.0610352,0,0
-0.0583496,-0.112732,1.02167,0,0.0610352,0,0
-0.0625,-0.107361,1.02728,-0.183105,0.244141,-0.0610352,0
-0.06073,-0.100037,1.0191,0.0610352,-0.183105,0.183105,0
-0.06073,-0.100037,1.0191,0.0610352,-0.183105,0.183105,0
-0.0545654,-0.107117,1.00647,0.183105,-0.244141,-0.0610352,0
-0.0640869,-0.104431,1.01978,-0.305176,0.183105,0,0
-0.0640869,-0.104431,1.01978,-0.305176,0.183105,0,0
-0.0506592,-0.12146,1.03088,-0.12207,-0.12207,0.0610352,0
-0.059021,-0.101257,1.01672,0.366211,-0.488281,0,0
-0.059021,-0.101257,1.01672,0.366211,-0.488281,0,0
-0.0543823,-0.112061,1.00763,0.0610352,-0.12207,0.0610352,0
-0.0633545,-0.113159,1.02869,-0.427246,0.366211,-0.0610352,0
-0.0633545,-0.113159,1.02869,-0.427246,0.366211,-0.0610352,0
-0.0637817,-0.108704,1.02588,0.12207,-0.488281,0,0
-0.0580444,-0.101929,1.01074,0.12207,-0.305176,-0.0610352,0
-0.0580444,-0.101929,1.01074,0.12207,-0.305176,-0.0610352,0
-0.0632324,-0.0968018,1.01782,-0.12207,0.12207,0.0610352,0
-0.0628662,-0.109131,1.03369,-0.305176,0.244141,0,0
-0.06604,-0.1073,1.03259,-0.12207,0,0.0610352,0
-0.06604,-0.1073,1.03259,-0.12207,0,0.0610352,0
-0.0588989,-0.105957,1.01117,0.0610352,-0.305176,0.12207,0
-0.0618896,-0.104126,1.01764,-0.12207,0.183105,0,0
-0.0618896,-0.104126,1.01764,-0.12207,0.183105,0,0
-0.0621338,-0.111328,1.02454,-0.183105,0.12207,-0.0610352,0
-0.0628662,-0.112427,1.01855,0.12207,-0.12207,0,0
-0.0628662,-0.112427,1.01855,0.12207,-0.12207,0,0
-0.0613403,-0.12384,1.02637,-0.305176,0.183105,0.244141,0
-0.0559692,-0.114929,1.02319,0.488281,-0.305176,-0.12207,0
-0.0559692,-0.114929,1.02319,0.488281,-0.305176,-0.12207,0
-0.0588989,-0.093811,1.00153,0.12207,-0.244141,0,0
-0.0488281,-0.113037,1.02301,-0.427246,0.671387,0.0610352,0
-0.0488281,-0.113037,1.02301,-0.427246,0.671387,0.0610352,0
-0.0785522,-0.0856934,1.02545,0,-0.183105,0,0
-0.0438843,-0.131104,1.03143,-0.366211,-0.12207,0.183105,0
-0.0438843,-0.131104,1.03143,-0.366211,-0.12207,0.183105,0
-0.0703735,-0.0899658,1.00537,0.549316,-0.305176,-0.305176,0
-0.0544434,-0.122192,1.01636,-0.732422,0.366211,0.305176,0
-0.0544434,-0.122192,1.01636,-0.732422,0.366211,0.305176,0
-0.0635376,-0.107361,1.05609,0.0610352,0.244141,-0.244141,0
-0.0641479,-0.103638,0.985474,0.488281,-0.854492,0.305176,0
-0.0641479,-0.103638,0.985474,0.488281,-0.854492,0.305176,0
-0.0440674,-0.127441,1.02509,-0.366211,0.488281,-0.0610352,0
-0.0731201,-0.101379,1.03217,-0.0610352,0.12207,0.0610352,0
-0.0731201,-0.101379,1.03217,-0.0610352,0.12207,0.0610352,0
-0.0512085,-0.122925,1.02356,0.12207,-0.305176,0.0610352,0
-0.0611572,-0.0844116,1.02045,0.244141,-0.12207,-0.183105,0
-0.0611572,-0.0844116,1.02045,0.244141,-0.12207,-0.183105,0
-0.0508423,-0.102783,1.01312,-0.244141,0,0.12207,0
-0.0643921,-0.104309,1.03772,-0.12207,0.244141,-0.244141,0
-0.0643921,-0.104309,1.03772,-0.12207,0.244141,-0.244141,0
-0.0701904,-0.102905,1.01538,0.183105,-0.610352,0.12207,0
-0.0557861,-0.121155,1.01385,-0.183105,0.0610352,0,0
-0.0690308,-0.107178,1.01703,0,0,0.12207,0
-0.0690308,-0.107178,1.01703,0,0,0.12207,0
-0.0545044,-0.124207,1.01813,0,0.0610352,0.0610352,0
-0.0643311,-0.105835,1.02679,0,0.12207,-0.183105,0
-0.0643311,-0.105835,1.02679,0,0.12207,-0.183105,0
-0.050415,-0.113342,1.0108,0,-0.366211,0,0
-0.0613403,-0.105164,1.02216,-0.12207,0.183105,-0.0610352,0
-0.0613403,-0.105164,1.02216,-0.12207,0.183105,-0.0610352,0
-0.0609131,-0.10022,1.03387,-0.12207,0.0610352,0.183105,0
-0.0593872,-0.108032,1.01721,0,-0.244141,0,0
-0.0593872,-0.108032,1.01721,0,-0.244141,0,0
-0.0620117,-0.102539,1.01721,-0.0610352,-0.244141,0,0
-0.0629883,-0.111389,1.01727,-0.0610352,-0.0610352,0.0610352,0
-0.0629883,-0.111389,1.01727,-0.0610352,-0.0610352,0.0610352,0
-0.0637207,-0.110718,1.0271,-0.183105,0,0,0
-0.0591431,-0.116577,1.01764,0.0610352,-0.0610352,0,0
-0.0591431,-0.116577,1.01764,0.0610352,-0.0610352,0,0
-0.0556641,-0.107971,1.01691,-0.0610352,-0.0610352,-0.12207,0
-0.0595093,-0.105713,1.02386,-0.183105,0.244141,-0.0610352,0
-0.0595093,-0.105713,1.02386,-0.183105,0.244141,-0.0610352,0
-0.0561523,-0.114136,1.01849,0.0610352,-0.0610352,0.12207,0
-0.0606689,-0.106201,1.02094,0.0610352,0.0610352,-0.12207,0
-0.0606689,-0.106201,1.02094,0.0610352,0.0610352,-0.12207,0
-0.0598755,-0.112488,1.02386,-0.0610352,-0.12207,0,0
-0.0651245,-0.103516,1.02222,0,-0.183105,-0.0610352,0
-0.0651245,-0.103516,1.02222,0,-0.183105,-0.0610352,0
-0.0637817,-0.110779,1.02502,0,-0.12207,0,0
-0.0645752,-0.108643,1.01752,0,0,0,0
-0.0631714,-0.111267,1.02106,-0.0610352,-0.0610352,-0.0610352,0
-0.0631714,-0.111267,1.02106,-0.0610352,-0.0610352,-0.0610352,0
-0.0605469,-0.117798,1.02148,-0.0610352,-0.0610352,-0.0610352,0
-0.059082,-0.109558,1.01324,0,-0.0610352,0,0
-0.059082,-0.109558,1.01324,0,-0.0610352,0,0
-0.0561523,-0.106445,1.02771,-0.12207,-0.0610352,0,0
-0.0606689,-0.103516,1.02441,-0.0610352,0,-0.12207,0
-0.0606689,-0.103516,1.02441,-0.0610352,0,-0.12207,0
-0.0598755,-0.110474,1.02014,0,-0.12207,0,0
-0.0581665,-0.105896,1.02234,0,-0.12207,-0.0610352,0
-0.0581665,-0.105896,1.02234,0,-0.12207,-0.0610352,0
-0.0626831,-0.108337,1.02045,-0.12207,-0.0610352,0.0610352,0
-0.0629883,-0.108887,1.02148,0.12207,0.0610352,0,0
-0.0629883,-0.108887,1.02148,0.12207,0.0610352,0,0
-0.0651245,-0.110962,1.01654,-0.12207,-0.0610352,-0.0610352,0
-0.0609131,-0.109009,1.02399,-0.0610352,0.0610352,0,0
-0.0609131,-0.109009,1.02399,-0.0610352,0.0610352,0,0
-0.0567627,-0.110413,1.02307,0,0.0610352,-0.12207,0
-0.0565796,-0.106323,1.02228,0.12207,0,0.0610352,0
-0.0565796,-0.106323,1.02228,0.12207,0,0.0610352,0
-0.0550537,-0.107056,1.02893,-0.0610352,0.0610352,0,0
-0.0552979,-0.107422,1.02228,0,-0.0610352,0,0
-0.0552979,-0.107422,1.02228,0,-0.0610352,0,0
-0.060791,-0.108704,1.01733,-0.0610352,-0.244141,0,0
-0.0594482,-0.109741,1.02301,-0.183105,-0.0610352,0.0610352,0
-0.0594482,-0.109741,1.02301,-0.183105,-0.0610352,0.0610352,0
-0.0661011,-0.110901,1.0246,0.12207,-0.12207,0,0
-0.0657349,-0.106934,1.0191,-0.0610352,-0.244141,0,0
-0.0657349,-0.106934,1.0191,-0.0610352,-0.244141,0,0
-0.0643311,-0.113342,1.02252,-0.0610352,0.12207,-0.0610352,0
-0.0620728,-0.109436,1.02216,0,0.0610352,0.0610352,0
-0.0598145,-0.109985,1.01794,0.0610352,0,0.0610352,0
-0.0598145,-0.109985,1.01794,0.0610352,0,0.0610352,0
-0.057373,-0.107727,1.01617,-0.0610352,-0.12207,-0.0610352,0
-0.0551147,-0.10791,1.01868,-0.183105,0,0,0
-0.0551147,-0.10791,1.01868,-0.183105,0,0,0
-0.0569458,-0.111633,1.02844,-0.183105,0.0610352,0,0
-0.0604858,-0.108398,1.02179,0.183105,-0.305176,0,0
-0.0604858,-0.108398,1.02179,0.183105,-0.305176,0,0
-0.0598755,-0.110962,1.02606,-0.0610352,-0.12207,0,0
-0.06073,-0.110291,1.01483,0.0610352,0.0610352,0.0610352,0
-0.06073,-0.110291,1.01483,0.0610352,0.0610352,0.0610352,0
-0.0628052,-0.110291,1.01935,-0.0610352,-0.183105,-0.0610352,0
-0.0600586,-0.109558,1.02197,-0.183105,0.0610352,0.0610352,0
-0.0600586,-0.109558,1.02197,-0.183105,0.0610352,0.0610352,0
-0.0612183,-0.110474,1.01331,0.0610352,0,0.12207,0
-0.0599365,-0.105347,1.02637,-0.12207,-0.0610352,0.12207,0
-0.0599365,-0.105347,1.02637,-0.12207,-0.0610352,0.12207,0
-0.0574341,-0.108093,1.01886,-0.12207,0.0610352,0,0
-0.0601807,-0.10553,1.0144,0.0610352,-0.366211,-0.0610352,0
-0.0601807,-0.10553,1.0144,0.0610352,-0.366211,-0.0610352,0
-0.0546875,-0.110657,1.02136,-0.0610352,-0.12207,0,0
-0.0592651,-0.108643,1.02277,-0.0610352,-0.0610352,0.0610352,0
-0.0604248,-0.109985,1.01666,-0.0610352,-0.183105,0.0610352,0
-0.0604248,-0.109985,1.01666,-0.0610352,-0.183105,0.0610352,0
-0.0594482,-0.111389,1.01672,0,0,0.0610352,0
-0.0668335,-0.107727,1.02472,0,0.183105,0.0610352,0
-0.0668335,-0.107727,1.02472,0,0.183105,0.0610352,0
-0.0633545,-0.111633,1.02057,-0.0610352,0.0610352,0.0610352,0
-0.0618286,-0.106995,1.01666,-0.0610352,-0.12207,0.0610352,0
-0.0618286,-0.106995,1.01666,-0.0610352,-0.12207,0.0610352,0
-0.0594482,-0.105225,1.03015,-0.12207,-0.0610352,-0.0610352,0
-0.0551147,-0.111389,1.02087,0,0.12207,-0.0610352,0
-0.0551147,-0.111389,1.02087,0,0.12207,-0.0610352,0
-0.0586548,-0.103699,1.01727,0.0610352,-0.305176,0,0
-0.0568237,-0.110474,1.0304,-0.0610352,0,0.12207,0
-0.0568237,-0.110474,1.0304,-0.0610352,0,0.12207,0
-0.0588989,-0.112793,1.02026,-0.0610352,-0.0610352,0.0610352,0
-0.0615845,-0.111328,1.01416,0.12207,-0.305176,0.0610352,0
-0.0615845,-0.111328,1.01416,0.12207,-0.305176,0.0610352,0
-0.0639648,-0.108215,1.02637,-0.183105,0.0610352,-0.0610352,0
-0.0639648,-0.109741,1.01917,0,-0.183105,0.0610352,0
-0.0639648,-0.109741,1.01917,0,-0.183105,0.0610352,0
-0.0649414,-0.106079,1.01855,-0.0610352,-0.12207,0.0610352,0
-0.0576782,-0.109802,1.02405,-0.12207,0.12207,0,0
-0.0595093,-0.106934,1.01978,0.183105,-0.12207,0,0
-0.0595093,-0.106934,1.01978,0.183105,-0.12207,0,0
-0.0557861,-0.109619,1.02185,-0.183105,-0.12207,-0.0610352,0
-0.0598145,-0.107666,1.01971,-0.0610352,-0.12207,0,0
-0.0598145,-0.107666,1.01971,-0.0610352,-0.12207,0,0
-0.0623779,-0.107666,1.0188,-0.0610352,-0.12207,-0.12207,0
-0.0595093,-0.111816,1.02808,-0.305176,-0.12207,0.0610352,0
-0.0595093,-0.111816,1.02808,-0.305176,-0.12207,0.0610352,0
-0.0612793,-0.110657,1.02039,0.0610352,-0.12207,0.0610352,0
-0.05896,-0.107727,1.02124,0,0,0,0
-0.05896,-0.107727,1.02124,0,0,0,0
-0.0597534,-0.108215,1.02405,-0.12207,-0.0610352,0,0
-0.0618286,-0.106995,1.02222,-0.0610352,0,0,0
-0.0618286,-0.106995,1.02222,-0.0610352,0,0,0
-0.0581055,-0.108215,1.01978,-0.183105,-0.12207,0.12207,0
-0.0631104,-0.103088,1.01709,-0.0610352,-0.12207,-0.0610352,0
-0.0631104,-0.103088,1.01709,-0.0610352,-0.12207,-0.0610352,0
-0.055481,-0.112427,1.02631,-0.12207,-0.0610352,-0.0610352,0
-0.0595703,-0.112915,1.02063,0,-0.0610352,0.12207,0
-0.0595703,-0.112915,1.02063,0,-0.0610352,0.12207,0
-0.0586548,-0.108948,1.01862,0.12207,0,0,0
-0.0565186,-0.114746,1.02039,-0.12207,0.12207,0.0610352,0
-0.0565186,-0.114746,1.02039,-0.12207,0.12207,0.0610352,0
-0.0617065,-0.110413,1.01923,0.244141,0,0,0
-0.0604248,-0.105591,1.02264,0,0,-0.12207,0
-0.0639648,-0.104736,1.01978,0,0.0610352,-0.0610352,0
-0.0639648,-0.104736,1.01978,0,0.0610352,-0.0610352,0
-0.0617065,-0.105469,1.01837,0.0610352,-0.12207,0,0
-0.0634155,-0.106445,1.02301,-0.0610352,-0.0610352,0,0
-0.0634155,-0.106445,1.02301,-0.0610352,-0.0610352,0,0
-0.060791,-0.106995,1.01556,0.0610352,0.0610352,0,0
-0.0603027,-0.108215,1.01886,-0.0610352,-0.0610352,-0.0610352,0
-0.0603027,-0.108215,1.01886,-0.0610352,-0.0610352,-0.0610352,0
-0.060791,-0.111023,1.02246,-0.0610352,-0.12207,0.12207,0
-0.0619507,-0.111572,1.01373,0.244141,0,-0.0610352,0
-0.0619507,-0.111572,1.01373,0.244141,0,-0.0610352,0
-0.0591431,-0.114319,1.01831,0,0.0610352,0,0
-0.0583496,-0.111023,1.01807,0,0.0610352,0.0610352,0
-0.0583496,-0.111023,1.01807,0,0.0610352,0.0610352,0
-0.059021,-0.108948,1.02246,0,0.12207,0,0
-0.0564575,-0.105042,1.02313,0,0.12207,-0.0610352,0
-0.0564575,-0.105042,1.02313,0,0.12207,-0.0610352,0
-0.0636597,-0.100769,1.01764,-0.0610352,-0.183105,0.0610352,0
-0.0614624,-0.107117,1.02649,0,0,-0.12207,0
-0.0614624,-0.107117,1.02649,0,0,-0.12207,0
-0.0598145,-0.111755,1.01941,0.12207,-0.12207,0.0610352,0
-0.060791,-0.108154,1.02069,-0.12207,-0.366211,0.0610352,0
-0.060791,-0.108154,1.02069,-0.12207,-0.366211,0.0610352,0
-0.0602417,-0.111633,1.01636,-0.0610352,-0.12207,-0.0610352,0
-0.0599976,-0.106689,1.01971,-0.0610352,-0.12207,0.12207,0
-0.0599976,-0.106689,1.01971,-0.0610352,-0.12207,0.12207,0
-0.0577393,-0.109802,1.02197,-0.0610352,0,0.0610352,0
-0.0582886,-0.109863,1.01672,-0.12207,-0.12207,-0.0610352,0
-0.0604248,-0.107971,1.02448,0,0.0610352,-0.0610352,0
-0.0604248,-0.107971,1.02448,0,0.0610352,-0.0610352,0
-0.0576172,-0.106201,1.02338,0,0,-0.0610352,0
-0.0601807,-0.107422,1.01562,0.0610352,-0.183105,-0.0610352,0
-0.0601807,-0.107422,1.01562,0.0610352,-0.183105,-0.0610352,0
-0.0599365,-0.10675,1.02124,0,0,-0.0610352,0
-0.0593262,-0.109619,1.02252,-0.12207,-0.183105,0.12207,0
-0.0593262,-0.109619,1.02252,-0.12207,-0.183105,0.12207,0
-0.0621338,-0.108398,1.01831,-0.0610352,-0.12207,-0.0610352,0
-0.0599976,-0.112854,1.02045,-0.12207,-0.0610352,0.0610352,0
-0.0599976,-0.112854,1.02045,-0.12207,-0.0610352,0.0610352,0
-0.0606689,-0.108032,1.02246,0.0610352,-0.183105,0,0
-0.057312,-0.112305,1.0249,-0.0610352,-0.0610352,0.0610352,0
-0.057312,-0.112305,1.0249,-0.0610352,-0.0610352,0.0610352,0
-0.0595703,-0.112671,1.02399,0,0.0610352,0.0610352,0
-0.0578613,-0.108704,1.02106,-0.0610352,-0.12207,0.12207,0
-0.0578613,-0.108704,1.02106,-0.0610352,-0.12207,0.12207,0
-0.0569458,-0.106995,1.02002,0.0610352,0.0610352,-0.12207,0
-0.0612183,-0.104919,1.01605,0,-0.244141,0,0
-0.0612183,-0.104919,1.01605,0,-0.244141,0,0
-0.0610962,-0.107056,1.02417,-0.0610352,-0.12207,0,0
-0.0603638,-0.110779,1.01874,-0.0610352,-0.0610352,0.0610352,0
-0.0603638,-0.110779,1.01874,-0.0610352,-0.0610352,0.0610352,0
-0.060791,-0.109619,1.01788,0.183105,-0.0610352,-0.0610352,0
-0.0612793,-0.111023,1.01953,-0.0610352,0.12207,0,0
-0.0606079,-0.113831,1.02002,-0.0610352,-0.12207,0.0610352,0
-0.0606079,-0.113831,1.02002,-0.0610352,-0.12207,0.0610352,0
-0.0586548,-0.112183,1.02216,-0.0610352,-0.12207,-0.0610352,0
-0.0588379,-0.11084,1.02747,-0.0610352,0,0.0610352,0
-0.0588379,-0.11084,1.02747,-0.0610352,0,0.0610352,0
-0.0587158,-0.109863,1.01996,0,0,0,0
-0.0593872,-0.107727,1.02405,0,0.0610352,0.0610352,0
-0.0593872,-0.107727,1.02405,0,0.0610352,0.0610352,0
-0.0601807,-0.109131,1.01501,-0.12207,-0.183105,0,0
-0.0634155,-0.110352,1.01898,-0.0610352,-0.0610352,-0.12207,0
-0.0634155,-0.110352,1.01898,-0.0610352,-0.0610352,-0.12207,0
-0.0626831,-0.109375,1.02393,0,0.0610352,-0.0610352,0
-0.0612793,-0.109253,1.01599,0.183105,0.0610352,-0.12207,0
-0.0612793,-0.109253,1.01599,0.183105,0.0610352,-0.12207,0
-0.0623779,-0.108887,1.02075,-0.0610352,-0.12207,-0.0610352,0
-0.0595703,-0.114746,1.02094,-0.12207,0,-0.0610352,0
-0.0595703,-0.114746,1.02094,-0.12207,0,-0.0610352,0
-0.0598755,-0.109741,1.0166,0,0,0,0
-0.0574951,-0.109863,1.02484,-0.0610352,-0.0610352,0.0610352,0
-0.0574951,-0.109863,1.02484,-0.0610352,-0.0610352,0.0610352,0
-0.0578613,-0.106018,1.02142,0,-0.12207,0,0
-0.0581665,-0.104797,1.02332,-0.183105,-0.12207,0,0
-0.0581665,-0.104797,1.02332,-0.183105,-0.12207,0,0
-0.0606689,-0.10907,1.02557,0,0,0.0610352,0
-0.0611572,-0.106506,1.02209,0,-0.12207,0,0
-0.0611572,-0.106506,1.02209,0,-0.12207,0,0
-0.0609741,-0.108398,1.01654,0,0.0610352,0,0
-0.0574951,-0.110657,1.01697,-0.0610352,-0.0610352,0,0
-0.0615845,-0.106812,1.01855,0,0,0,0
-0.0615845,-0.106812,1.01855,0,0,0,0
-0.059021,-0.109558,1.02222,-0.0610352,-0.183105,0.0610352,0
-0.0582886,-0.112732,1.02094,-0.12207,-0.12207,0,0
-0.0582886,-0.112732,1.02094,-0.12207,-0.12207,0,0
-0.0587769,-0.111023,1.02515,-0.12207,-0.183105,0,0
-0.0602417,-0.105835,1.02185,0.0610352,-0.12207,0.0610352,0
-0.0602417,-0.105835,1.02185,0.0610352,-0.12207,0.0610352,0
-0.06073,-0.109619,1.02441,0,0.12207,0,0
-0.06073,-0.110229,1.02448,-0.12207,0.0610352,0,0
-0.06073,-0.110229,1.02448,-0.12207,0.0610352,0,0
-0.0641479,-0.110718,1.0141,0.0610352,-0.12207,-0.0610352,0
-0.0616455,-0.109802,1.02289,0,0.0610352,0,0
-0.0616455,-0.109802,1.02289,0,0.0610352,0,0
-0.0584106,-0.109009,1.01941,-0.12207,-0.0610352,0,0
-0.0620728,-0.109985,1.02075,-0.0610352,-0.0610352,0,0
-0.0620728,-0.109985,1.02075,-0.0610352,-0.0610352,0,0
-0.0587158,-0.108337,1.02344,-0.12207,-0.0610352,0,0
-0.0610352,-0.109924,1.0199,-0.0610352,-0.183105,0,0
-0.0593262,-0.108398,1.02014,-0.0610352,-0.12207,-0.0610352,0
-0.0593262,-0.108398,1.02014,-0.0610352,-0.12207,-0.0610352,0
-0.0586548,-0.112366,1.02448,0,-0.12207,0,0
-0.0586548,-0.112366,1.02448,0,-0.12207,0,0
-0.0605469,-0.10614,1.01849,0,-0.183105,0,0
-0.0639038,-0.11084,1.02234,0.12207,0,0,0
-0.0625,-0.107666,1.02527,-0.0610352,-0.0610352,-0.0610352,0
-0.0625,-0.107666,1.02527,-0.0610352,-0.0610352,-0.0610352,0
-0.0606079,-0.109985,1.02484,-0.0610352,-0.12207,0.12207,0
-0.0612793,-0.110352,1.01837,-0.0610352,-0.12207,0,0
-0.0612793,-0.110352,1.01837,-0.0610352,-0.12207,0,0
-0.0629272,-0.108643,1.02277,0,0.0610352,-0.0610352,0
-0.0584106,-0.111694,1.026,0,0.183105,0,0
-0.0584106,-0.111694,1.026,0,0.183105,0,0
-0.0610962,-0.110718,1.02191,0,-0.12207,0.0610352,0
-0.0571289,-0.110046,1.02216,-0.0610352,0,-0.12207,0
-0.0571289,-0.110046,1.02216,-0.0610352,0,-0.12207,0
-0.0614014,-0.111694,1.01825,0,0.0610352,0,0
-0.0611572,-0.105652,1.02087,0,-0.0610352,-0.12207,0
-0.0611572,-0.105652,1.02087,0,-0.0610352,-0.12207,0
-0.059021,-0.109863,1.02332,-0.183105,-0.183105,0.0610352,0
-0.0593262,-0.107483,1.01685,0.0610352,-0.12207,0.12207,0
-0.0593262,-0.107483,1.01685,0.0610352,-0.12207,0.12207,0
-0.0620117,-0.10614,1.0257,-0.183105,0,-0.12207,0
-0.0599365,-0.109924,1.02167,0,0,0.0610352,0
-0.0599365,-0.109924,1.02167,0,0,0.0610352,0
-0.0614624,-0.105286,1.01746,-0.0610352,-0.0610352,0.12207,0
-0.0595703,-0.109192,1.02191,-0.0610352,0,-0.12207,0
-0.0609131,-0.112305,1.01715,-0.12207,0,0.12207,0
-0.0609131,-0.112305,1.01715,-0.12207,0,0.12207,0
-0.0632324,-0.107361,1.01965,0,-0.0610352,0,0
-0.0620728,-0.110291,1.02521,-0.0610352,0,0.0610352,0
-0.0620728,-0.110291,1.02521,-0.0610352,0,0.0610352,0
-0.0592651,-0.109741,1.01593,-0.0610352,-0.244141,0,0
-0.0615845,-0.109314,1.02533,0,0.0610352,-0.0610352,0
-0.0615845,-0.109314,1.02533,0,0.0610352,-0.0610352,0
-0.0610352,-0.110535,1.01953,0,0.12207,0,0
-0.0625,-0.106201,1.01343,-0.0610352,-0.0610352,0.0610352,0
-0.0625,-0.106201,1.01343,-0.0610352,-0.0610352,0.0610352,0
-0.0587769,-0.106689,1.02161,-0.183105,0.12207,0,0
-0.0617065,-0.107544,1.0191,-0.0610352,-0.0610352,-0.0610352,0
-0.0617065,-0.107544,1.0191,-0.0610352,-0.0610352,-0.0610352,0
-0.0612183,-0.108154,1.02295,0,0.0610352,0.0610352,0
-0.0565796,-0.111084,1.01935,0,0.0610352,-0.12207,0
-0.0565796,-0.111084,1.01935,0,0.0610352,-0.12207,0
-0.0614624,-0.108704,1.01764,0.12207,0,-0.12207,0
-0.0587158,-0.110901,1.02405,0,0.0610352,0.0610352,0
-0.0587158,-0.110901,1.02405,0,0.0610352,0.0610352,0
-0.0630493,-0.105957,1.01758,-0.0610352,-0.0610352,0,0
-0.0599365,-0.107727,1.0155,-0.0610352,-0.0610352,-0.0610352,0
-0.0599365,-0.107727,1.0155,-0.0610352,-0.0610352,-0.0610352,0
-0.0604858,-0.110901,1.02094,-0.12207,0,0.12207,0
-0.0612183,-0.105042,1.01947,0.12207,0,0.0610352,0
-0.0612183,-0.105042,1.01947,0.12207,0,0.0610352,0
-0.0588379,-0.105591,1.02606,-0.0610352,-0.12207,-0.0610352,0
-0.0613403,-0.106445,1.02136,-0.12207,-0.12207,-0.12207,0
-0.0613403,-0.106445,1.02136,-0.12207,-0.12207,-0.12207,0
-0.0605469,-0.106262,1.01666,-0.0610352,-0.183105,-0.0610352,0
-0.059082,-0.109497,1.01917,0,0,0,0
-0.059082,-0.109497,1.01917,0,0,0,0
-0.0578003,-0.111938,1.02313,0,0.0610352,0,0
-0.0568237,-0.110596,1.02045,-0.0610352,-0.12207,0.12207,0
-0.0568237,-0.110596,1.02045,-0.0610352,-0.12207,0.12207,0
-0.0606079,-0.107727,1.0163,0.0610352,-0.12207,0.12207,0
-0.0631104,-0.108521,1.02313,-0.244141,-0.0610352,0,0
-0.0593262,-0.110474,1.01813,-0.0610352,-0.12207,0.0610352,0
-0.0593262,-0.110474,1.01813,-0.0610352,-0.12207,0.0610352,0
-0.0629272,-0.108154,1.01923,0.0610352,-0.12207,0.0610352,0
-0.0597534,-0.11145,1.02271,0,0,0,0
-0.0597534,-0.11145,1.02271,0,0,0,0
-0.0593872,-0.107971,1.01837,-0.0610352,-0.12207,0.12207,0
-0.0621338,-0.10675,1.01672,0,-0.12207,-0.0610352,0
-0.0621338,-0.10675,1.01672,0,-0.12207,-0.0610352,0
-0.0585327,-0.110168,1.01978,-0.183105,0.12207,0,0
-0.0635376,-0.110535,1.01715,-0.0610352,-0.12207,0,0
-0.0635376,-0.110535,1.01715,-0.0610352,-0.12207,0,0
-0.0574341,-0.110596,1.01971,-0.0610352,-0.12207,0,0
-0.0584106,-0.107483,1.02795,-0.0610352,0.0610352,0.0610352,0
-0.0584106,-0.107483,1.02795,-0.0610352,0.0610352,0.0610352,0
-0.0578003,-0.109131,1.01764,-0.0610352,-0.0610352,0.12207,0
-0.060791,-0.107056,1.01703,0,-0.0610352,0.0610352,0
-0.060791,-0.107056,1.01703,0,-0.0610352,0.0610352,0
-0.0593262,-0.110413,1.01843,0,0,0.12207,0
-0.0605469,-0.106262,1.01837,-0.0610352,0,0,0
-0.0596313,-0.107483,1.02222,-0.12207,-0.0610352,0.244141,0
-0.0596313,-0.107483,1.02222,-0.12207,-0.0610352,0.244141,0
-0.06427,-0.104431,1.02087,0,0.0610352,0,0
-0.0578613,-0.111694,1.02057,-0.0610352,-0.12207,-0.0610352,0
-0.0578613,-0.111694,1.02057,-0.0610352,-0.12207,-0.0610352,0
-0.0592041,-0.108337,1.01532,0,0,0.0610352,0
-0.0612183,-0.1073,1.02496,-0.183105,-0.0610352,0,0
-0.0612183,-0.1073,1.02496,-0.183105,-0.0610352,0,0
-0.0579224,-0.110596,1.01978,-0.0610352,0.0610352,-0.0610352,0
-0.0564575,-0.108704,1.01935,0.12207,-0.183105,-0.0610352,0
-0.0564575,-0.108704,1.01935,0.12207,-0.183105,-0.0610352,0
-0.0617676,-0.109741,1.02228,-0.183105,0.0610352,-0.0610352,0
-0.0598145,-0.110168,1.01392,-0.0610352,-0.12207,0.0610352,0
-0.0598145,-0.110168,1.01392,-0.0610352,-0.12207,0.0610352,0
-0.0639648,-0.106323,1.0202,-0.0610352,-0.0610352,-0.12207,0
-0.0620117,-0.108826,1.02576,0,0.0610352,0,0
-0.0620117,-0.108826,1.02576,0,0.0610352,0,0
-0.0639648,-0.107117,1.01855,-0.0610352,-0.0610352,-0.0610352,0
-0.0614014,-0.108215,1.01782,-0.0610352,-0.12207,-0.0610352,0
-0.0614014,-0.108215,1.01782,-0.0610352,-0.12207,-0.0610352,0
-0.0593872,-0.109741,1.02319,-0.12207,-0.12207,0.0610352,0
-0.0594482,-0.108215,1.02423,0,0.0610352,0,0
-0.057373,-0.112,1.02197,0,0,-0.12207,0
-0.057373,-0.112,1.02197,0,0,-0.12207,0
-0.0620728,-0.108521,1.02283,0,-0.12207,0,0
-0.0620728,-0.108521,1.02283,0,-0.12207,0,0
-0.0597534,-0.106873,1.02533,-0.12207,0.12207,0.0610352,0
-0.0602417,-0.11261,1.02008,-0.0610352,-0.0610352,0,0
-0.0623169,-0.104919,1.02161,-0.0610352,-0.0610352,0,0
-0.0623169,-0.104919,1.02161,-0.0610352,-0.0610352,0,0
-0.0577393,-0.106995,1.02002,0,0.12207,0.0610352,0
-0.060791,-0.107483,1.01642,0.0610352,0,0.0610352,0
-0.060791,-0.107483,1.01642,0.0610352,0,0.0610352,0
-0.05896,-0.108459,1.02301,0,-0.0610352,0,0
-0.0576782,-0.108337,1.02197,-0.12207,-0.0610352,0,0
-0.0576782,-0.108337,1.02197,-0.12207,-0.0610352,0,0
-0.0618896,-0.109009,1.01935,-0.0610352,-0.0610352,0,0
-0.0567017,-0.108154,1.02277,0,0,0.0610352,0
-0.0567017,-0.108154,1.02277,0,0,0.0610352,0
-0.0593262,-0.111023,1.02112,-0.12207,-0.12207,-0.0610352,0
-0.0593872,-0.107544,1.02423,0,0.0610352,0,0
-0.0593872,-0.107544,1.02423,0,0.0610352,0,0
-0.062561,-0.109619,1.01746,-0.0610352,-0.12207,0,0
-0.0594482,-0.10791,1.02216,0.0610352,-0.12207,-0.0610352,0
-0.0594482,-0.10791,1.02216,0.0610352,-0.12207,-0.0610352,0
-0.0622559,-0.107422,1.02344,-0.12207,-0.0610352,-0.0610352,0
-0.05896,-0.110962,1.02106,-0.0610352,0,0.0610352,0
-0.05896,-0.110962,1.02106,-0.0610352,0,0.0610352,0
-0.0618286,-0.110901,1.02362,0,0,0,0
-0.0570679,-0.112061,1.02197,0,0.0610352,0.12207,0
-0.0605469,-0.110901,1.02228,0,-0.12207,-0.0610352,0
-0.0605469,-0.110901,1.02228,0,-0.12207,-0.0610352,0
-0.0595093,-0.110413,1.01813,-0.0610352,-0.183105,-0.0610352,0
-0.0585938,-0.107971,1.01971,-0.0610352,0,-0.12207,0
-0.0585938,-0.107971,1.01971,-0.0610352,0,-0.12207,0
-0.0650635,-0.108215,1.01447,0.0610352,0,0,0
-0.0515137,-0.119263,1.01489,-0.0610352,-0.366211,0.0610352,0
-0.0515137,-0.119263,1.01489,-0.0610352,-0.366211,0.0610352,0
-0.0640869,-0.108215,1.01965,0.12207,0.183105,-0.12207,0
-0.0599976,-0.106201,1.02948,-0.305176,-0.305176,0,0
-0.0599976,-0.106201,1.02948,-0.305176,-0.305176,0,0
-0.0551147,-0.104248,1.01068,0.244141,-0.183105,-0.0610352,0
-0.0626831,-0.106384,1.02051,-0.12207,0.183105,0.0610352,0
-0.0626831,-0.106384,1.02051,-0.12207,0.183105,0.0610352,0
-0.0583496,-0.116943,1.0351,-0.0610352,0.244141,0,0
-0.0629883,-0.106018,1.02179,0.0610352,-0.183105,0.12207,0
-0.0629883,-0.106018,1.02179,0.0610352,-0.183105,0.12207,0
-0.0563965,-0.109802,1.00446,0.244141,-0.244141,-0.0610352,0
-0.0667725,-0.101135,1.01959,-0.366211,0.366211,0,0
-0.0667725,-0.101135,1.01959,-0.366211,0.366211,0,0
-0.057251,-0.123291,1.03656,-0.12207,-0.12207,0.183105,0
-0.0620728,-0.103149,1.01202,0.305176,-0.427246,0,0
-0.0620728,-0.103149,1.01202,0.305176,-0.427246,0,0
-0.0515747,-0.117188,1.01996,-0.244141,0.244141,0,0
-0.0648804,-0.102478,1.02045,-0.0610352,0.0610352,0,0
-0.0603638,-0.114624,1.02484,0,0,0.244141,0
-0.0603638,-0.114624,1.02484,0,0,0.244141,0
-0.0630493,-0.107239,1.02344,0,-0.12207,-0.12207,0
-0.0620728,-0.1073,1.01337,-0.0610352,-0.0610352,0,0
-0.0620728,-0.1073,1.01337,-0.0610352,-0.0610352,0,0
-0.057373,-0.117798,1.02936,-0.12207,0,0.0610352,0
-0.0649414,-0.104553,1.01556,-0.0610352,-0.305176,0.0610352,0
-0.0649414,-0.104553,1.01556,-0.0610352,-0.305176,0.0610352,0
-0.0540161,-0.118286,1.02155,0,0,0.0610352,0
-0.062439,-0.0988159,1.01611,0.0610352,-0.244141,-0.12207,0
-0.062439,-0.0988159,1.01611,0.0610352,-0.244141,-0.12207,0
-0.0544434,-0.115112,1.02203,-0.244141,0.0610352,0.0610352,0
-0.0606689,-0.111572,1.0293,0.0610352,0,-0.12207,0
-0.0606689,-0.111572,1.0293,0.0610352,0,-0.12207,0
-0.0586548,-0.110413,1.01379,0.12207,-0.183105,-0.0610352,0
-0.0600586,-0.105591,1.02771,-0.183105,0.12207,0.0610352,0
-0.0600586,-0.105591,1.02771,-0.183105,0.12207,0.0610352,0
-0.0629883,-0.107178,1.02722,-0.183105,-0.0610352,0.0610352,0
-0.0603638,-0.10968,1.02106,0.0610352,-0.12207,0,0
-0.0603638,-0.10968,1.02106,0.0610352,-0.12207,0,0
-0.0588989,-0.110535,1.01538,0,-0.0610352,0,0
-0.0620728,-0.108154,1.02148,-0.183105,-0.0610352,-0.0610352,0
-0.0626831,-0.108643,1.0257,0.0610352,0,-0.0610352,0
-0.0626831,-0.108643,1.0257,0.0610352,0,-0.0610352,0
-0.0592041,-0.106445,1.01794,0,-0.183105,0.0610352,0
-0.0579834,-0.11261,1.02191,-0.0610352,-0.183105,0.12207,0
-0.0579834,-0.11261,1.02191,-0.0610352,-0.183105,0.12207,0
-0.0614624,-0.107605,1.02582,0,0,0,0
-0.0580444,-0.111694,1.02325,0.0610352,-0.0610352,-0.0610352,0
-0.0580444,-0.111694,1.02325,0.0610352,-0.0610352,-0.0610352,0
-0.0585938,-0.102722,1.01947,0.0610352,0.0610352,-0.0610352,0
-0.0593872,-0.102356,1.01422,0.12207,-0.12207,0.0610352,0
-0.0593872,-0.102356,1.01422,0.12207,-0.12207,0.0610352,0
-0.0568237,-0.100098,1.02472,0,0.12207,0.0610352,0
-0.0608521,-0.10553,1.01917,-0.12207,0,0.0610352,0
-0.0608521,-0.10553,1.01917,-0.12207,0,0.0610352,0
-0.0626831,-0.10968,1.0202,0.0610352,0,0.0610352,0
-0.0635376,-0.105103,1.02277,-0.183105,0.0610352,0,0
-0.0635376,-0.105103,1.02277,-0.183105,0.0610352,0,0
-0.0620117,-0.111816,1.01495,-0.0610352,-0.244141,0.0610352,0
-0.0588379,-0.111389,1.02045,0.0610352,0.183105,0,0
-0.0588379,-0.111389,1.02045,0.0610352,0.183105,0,0
-0.0565186,-0.118652,1.02081,-0.12207,-0.12207,-0.0610352,0
-0.062439,-0.109741,1.0174,-0.12207,-0.12207,-0.0610352,0
-0.062439,-0.109741,1.0174,-0.12207,-0.12207,-0.0610352,0
-0.0578003,-0.107971,1.02307,0,0.0610352,0.0610352,0
-0.0546875,-0.104431,1.01831,0.0610352,0,0,0
-0.0546875,-0.104431,1.01831,0.0610352,0,0,0
-0.0612183,-0.0994873,1.02057,-0.0610352,-0.12207,0,0
-0.057373,-0.105286,1.0191,0,0.12207,0,0
-0.0653076,-0.108215,1.02142,0.0610352,-0.183105,-0.0610352,0
-0.0653076,-0.108215,1.02142,0.0610352,-0.183105,-0.0610352,0
-0.0615845,-0.109741,1.02338,-0.12207,0,0.0610352,0
-0.0608521,-0.110229,1.02032,-0.0610352,-0.244141,0,0
-0.0608521,-0.110229,1.02032,-0.0610352,-0.244141,0,0
-0.0596313,-0.112488,1.01178,0.0610352,-0.12207,0.12207,0
-0.0563965,-0.114258,1.02094,0,0,0.0610352,0
-0.0563965,-0.114258,1.02094,0,0,0.0610352,0
-0.0578613,-0.114014,1.01904,-0.0610352,-0.0610352,0.0610352,0
-0.0563965,-0.109619,1.02118,0,0,-0.12207,0
-0.0563965,-0.109619,1.02118,0,0,-0.12207,0
-0.0551147,-0.104675,1.01691,0,0,0.0610352,0
-0.060791,-0.10791,1.01666,-0.0610352,-0.12207,-0.0610352,0
-0.060791,-0.10791,1.01666,-0.0610352,-0.12207,-0.0610352,0
-0.0593872,-0.10614,1.02625,-0.0610352,-0.183105,0.0610352,0
-0.0619507,-0.109436,1.0188,-0.0610352,-0.183105,0.0610352,0
-0.0619507,-0.109436,1.0188,-0.0610352,-0.183105,0.0610352,0
-0.0615234,-0.110046,1.02234,0.12207,0,-0.0610352,0
-0.0627441,-0.109619,1.01556,0,0.0610352,-0.0610352,0
-0.0627441,-0.109619,1.01556,0,0.0610352,-0.0610352,0
-0.0629883,-0.106934,1.01678,0.12207,0,0,0
-0.0619507,-0.112671,1.02722,0,0.183105,-0.0610352,0
-0.0619507,-0.112671,1.02722,0,0.183105,-0.0610352,0
-0.0586548,-0.114746,1.01764,-0.183105,-0.12207,-0.12207,0
-0.0620117,-0.104065,1.01807,0.183105,0.0610352,-0.183105,0
-0.0620117,-0.104065,1.01807,0.183105,0.0610352,-0.183105,0
-0.0560913,-0.108337,1.01996,-0.12207,-0.0610352,-0.0610352,0
-0.0609741,-0.102356,1.0174,0.0610352,-0.244141,-0.12207,0
-0.0609741,-0.102356,1.0174,0.0610352,-0.244141,-0.12207,0
-0.0600586,-0.107483,1.01941,-0.0610352,0,-0.12207,0
-0.0617065,-0.111572,1.01135,-0.0610352,-0.305176,-0.0610352,0
-0.0631714,-0.105835,1.02338,-0.0610352,-0.12207,-0.12207,0
-0.0631714,-0.105835,1.02338,-0.0610352,-0.12207,-0.12207,0
-0.0596313,-0.111816,1.02588,-0.12207,0.0610352,-0.12207,0
-0.0586548,-0.110046,1.02008,0.183105,0,0,0
-0.0586548,-0.110046,1.02008,0.183105,0,0,0
-0.0593872,-0.109131,1.02441,0,0.0610352,-0.12207,0
-0.0582886,-0.11145,1.02289,-0.12207,-0.0610352,0,0
-0.0582886,-0.11145,1.02289,-0.12207,-0.0610352,0,0
-0.0579224,-0.10907,1.02014,-0.0610352,-0.244141,0,0
-0.0581055,-0.107239,1.02026,0.0610352,0.0610352,-0.0610352,0
-0.0581055,-0.107239,1.02026,0.0610352,0.0610352,-0.0610352,0
-0.0582886,-0.105713,1.01752,-0.0610352,-0.183105,0.0610352,0
-0.0614014,-0.113159,1.02789,0,0,-0.12207,0
-0.0614014,-0.113159,1.02789,0,0,-0.12207,0
-0.0637207,-0.112732,1.02454,0.12207,-0.12207,0,0
-0.0640259,-0.11377,1.01666,-0.12207,-0.12207,-0.12207,0
-0.0640259,-0.11377,1.01666,-0.12207,-0.12207,-0.12207,0
-0.0579224,-0.108459,1.02063,-0.12207,-0.12207,-0.0610352,0
-0.0618286,-0.10907,1.02081,0,-0.12207,-0.0610352,0
-0.0618286,-0.10907,1.02081,0,-0.12207,-0.0610352,0
-0.0608521,-0.107666,1.02374,0,0.0610352,0,0
-0.0596924,-0.109192,1.01843,0.0610352,0,-0.12207,0
-0.0596924,-0.109192,1.01843,0.0610352,0,-0.12207,0
-0.0578613,-0.109192,1.01801,0,-0.12207,-0.12207,0
-0.0582275,-0.10553,1.02466,-0.0610352,-0.0610352,-0.12207,0
-0.0582275,-0.10553,1.02466,-0.0610352,-0.0610352,-0.12207,0
-0.0584106,-0.108582,1.01959,0.0610352,0.0610352,0,0
-0.0611572,-0.105835,1.02161,-0.0610352,-0.0610352,-0.12207,0
-0.0611572,-0.105835,1.02161,-0.0610352,-0.0610352,-0.12207,0
-0.0582275,-0.111023,1.01526,-0.0610352,-0.12207,-0.0610352,0
-0.0656738,-0.109436,1.01685,0,-0.183105,-0.12207,0
-0.0596924,-0.108887,1.02234,-0.12207,-0.0610352,0,0
-0.0596924,-0.108887,1.02234,-0.12207,-0.0610352,0,0
-0.0577393,-0.109009,1.01764,0,0.0610352,0,0
-0.0601196,-0.106262,1.02301,0,0.0610352,-0.12207,0
-0.0601196,-0.106262,1.02301,0,0.0610352,-0.12207,0
-0.0595703,-0.110718,1.01868,0.0610352,0,0,0
-0.0622559,-0.106445,1.0191,0,-0.183105,-0.12207,0
-0.0622559,-0.106445,1.0191,0,-0.183105,-0.12207,0
-0.0571899,-0.112427,1.02454,-0.0610352,0,-0.12207,0
-0.0592651,-0.110352,1.02106,0.0610352,0,-0.0610352,0
-0.0592651,-0.110352,1.02106,0.0610352,0,-0.0610352,0
-0.0622559,-0.109741,1.02075,-0.0610352,-0.12207,-0.12207,0
-0.0615234,-0.109131,1.02301,-0.12207,0.183105,-0.12207,0
-0.0615234,-0.109131,1.02301,-0.12207,0.183105,-0.12207,0
-0.0634155,-0.108154,1.01636,-0.183105,-0.0610352,0,0
-0.0599365,-0.109985,1.02094,-0.0610352,-0.0610352,-0.0610352,0
-0.0599365,-0.109985,1.02094,-0.0610352,-0.0610352,-0.0610352,0
-0.0616455,-0.105164,1.02063,-0.12207,0,-0.0610352,0
-0.0598755,-0.104858,1.02673,0.0610352,-0.12207,0.0610352,0
-0.0598755,-0.104858,1.02673,0.0610352,-0.12207,0.0610352,0
-0.0587158,-0.107178,1.02319,-0.12207,-0.244141,0.0610352,0
-0.0601807,-0.108398,1.0188,0.0610352,-0.244141,0.0610352,0
-0.0615234,-0.103882,1.02148,0,0,-0.0610352,0
-0.0615234,-0.103882,1.02148,0,0,-0.0610352,0
-0.0557861,-0.108765,1.01971,-0.12207,0.0610352,-0.0610352,0
-0.0653687,-0.108826,1.01562,0.0610352,-0.12207,0,0
-0.0653687,-0.108826,1.01562,0.0610352,-0.12207,0,0
-0.0627441,-0.110413,1.02686,-0.12207,0.0610352,0.0610352,0
-0.0646362,-0.11377,1.01703,-0.0610352,-0.12207,-0.12207,0
-0.0646362,-0.11377,1.01703,-0.0610352,-0.12207,-0.12207,0
-0.0609131,-0.10791,1.02332,-0.0610352,-0.12207,0.12207,0
-0.0568848,-0.115906,1.02069,0,0,0,0
-0.0568848,-0.115906,1.02069,0,0,0,0
-0.0569458,-0.108948,1.01721,0.244141,0,-0.0610352,0
-0.0536499,-0.10675,1.0235,-0.0610352,-0.12207,0,0
-0.0536499,-0.10675,1.0235,-0.0610352,-0.12207,0,0
-0.0564575,-0.111023,1.01855,-0.244141,0,0,0
-0.0609131,-0.10968,1.01953,-0.0610352,0.0610352,0,0
-0.0609131,-0.10968,1.01953,-0.0610352,0.0610352,0,0
-0.0597534,-0.108154,1.02454,0,0,-0.0610352,0
-0.0597534,-0.100952,1.0224,0.12207,0,0,0
-0.0597534,-0.100952,1.0224,0.12207,0,0,0
-0.0588989,-0.107849,1.02557,-0.12207,-0.12207,-0.12207,0
-0.0622559,-0.107727,1.01227,0,0,-0.0610352,0
-0.0622559,-0.107727,1.01227,0,0,-0.0610352,0
-0.0619507,-0.105835,1.02197,-0.0610352,-0.12207,-0.0610352,0
-0.0600586,-0.107483,1.02069,-0.244141,0.0610352,0.0610352,0
-0.0600586,-0.107483,1.02069,-0.244141,0.0610352,0.0610352,0
-0.0608521,-0.110291,1.01605,0.12207,-0.0610352,0,0
-0.0604248,-0.108826,1.01538,-0.0610352,0,-0.183105,0
-0.0604248,-0.108826,1.01538,-0.0610352,0,-0.183105,0
-0.05896,-0.111938,1.02484,-0.12207,0.0610352,0.0610352,0
-0.0585938,-0.110046,1.01831,0.0610352,-0.305176,0,0
-0.057312,-0.110779,1.02142,-0.0610352,-0.12207,0,0
-0.057312,-0.110779,1.02142,-0.0610352,-0.12207,0,0
-0.0618286,-0.108215,1.0202,-0.0610352,-0.0610352,-0.12207,0
-0.060791,-0.107239,1.02136,0.0610352,0,-0.12207,0
-0.060791,-0.107239,1.02136,0.0610352,0,-0.12207,0
-0.0615845,-0.112,1.01709,0,0.0610352,0,0
-0.0655518,-0.108215,1.01526,0,-0.0610352,-0.0610352,0
-0.0655518,-0.108215,1.01526,0,-0.0610352,-0.0610352,0
-0.0588989,-0.110291,1.02637,-0.244141,0,-0.0610352,0
-0.0620117,-0.108643,1.0257,0,0,-0.0610352,0
-0.0620117,-0.108643,1.0257,0,0,-0.0610352,0
-0.0596924,-0.110474,1.01715,0,-0.0610352,0.12207,0
-0.057373,-0.106445,1.02124,-0.12207,-0.12207,-0.0610352,0
-0.057373,-0.106445,1.02124,-0.12207,-0.12207,-0.0610352,0
-0.0617676,-0.10968,1.02191,-0.0610352,-0.244141,0,0
-0.0613403,-0.11261,1.01849,0,0.0610352,0,0
-0.0613403,-0.11261,1.01849,0,0.0610352,0,0
-0.0639038,-0.108765,1.01581,0.0610352,0.0610352,-0.0610352,0
-0.0613403,-0.109009,1.02319,-0.0610352,-0.0610352,-0.12207,0
-0.0613403,-0.109009,1.02319,-0.0610352,-0.0610352,-0.12207,0
-0.0627441,-0.1073,1.02393,0,0.12207,-0.12207,0
-0.0601196,-0.108276,1.01935,-0.0610352,-0.183105,-0.0610352,0
-0.0600586,-0.103699,1.0238,-0.12207,0.12207,-0.183105,0
-0.0600586,-0.103699,1.0238,-0.12207,0.12207,-0.183105,0
-0.057373,-0.109497,1.02075,-0.0610352,-0.0610352,0.0610352,0
-0.0611572,-0.109009,1.02039,-0.0610352,-0.12207,0,0
-0.0611572,-0.109009,1.02039,-0.0610352,-0.12207,0,0
-0.0593262,-0.115906,1.02142,-0.244141,0,0,0
-0.0598755,-0.113159,1.02411,0,-0.0610352,-0.0610352,0
-0.0598755,-0.113159,1.02411,0,-0.0610352,-0.0610352,0
-0.0622559,-0.110046,1.02399,-0.0610352,-0.12207,-0.183105,0
-0.0593262,-0.108337,1.01892,-0.0610352,0.0610352,0,0
-0.0593262,-0.108337,1.01892,-0.0610352,0.0610352,0,0
-0.0646973,-0.1026,1.01807,0,-0.0610352,-0.12207,0
-0.0610962,-0.10614,1.01501,0,0,-0.0610352,0
-0.0610962,-0.10614,1.01501,0,0,-0.0610352,0
-0.0604248,-0.104004,1.02179,-0.0610352,-0.0610352,0,0
-0.0599365,-0.109131,1.02472,-0.0610352,-0.0610352,0,0
-0.0599365,-0.109131,1.02472,-0.0610352,-0.0610352,0,0
-0.0595093,-0.113953,1.02197,-0.0610352,-0.183105,0.0610352,0
-0.0578613,-0.109192,1.0249,-0.0610352,-0.0610352,-0.12207,0
-0.0578613,-0.109192,1.0249,-0.0610352,-0.0610352,-0.12207,0
-0.0551147,-0.111267,1.02368,-0.12207,-0.0610352,0,0
-0.059082,-0.108582,1.01239,0.12207,-0.0610352,0,0
-0.059082,-0.108582,1.01239,0.12207,-0.0610352,0,0
-0.0640869,-0.106628,1.01807,-0.12207,-0.12207,-0.12207,0
-0.0619507,-0.108276,1.02563,-0.12207,0.0610352,-0.12207,0
-0.0658569,-0.106384,1.01569,0.12207,-0.12207,-0.0610352,0
-0.0658569,-0.106384,1.01569,0.12207,-0.12207,-0.0610352,0
-0.0631104,-0.110535,1.02362,-0.12207,-0.12207,0,0
-0.0610352,-0.110779,1.02197,-0.12207,-0.0610352,-0.12207,0
-0.0610352,-0.110779,1.02197,-0.12207,-0.0610352,-0.12207,0
-0.055481,-0.109436,1.02155,0.12207,-0.183105,-0.0610352,0
-0.057251,-0.106995,1.02155,-0.0610352,-0.183105,-0.0610352,0
-0.057251,-0.106995,1.02155,-0.0610352,-0.183105,-0.0610352,0
-0.0570679,-0.108093,1.0188,-0.0610352,-0.0610352,0,0
-0.0565186,-0.108887,1.01569,-0.0610352,-0.0610352,-0.12207,0
-0.0565186,-0.108887,1.01569,-0.0610352,-0.0610352,-0.12207,0
-0.0620117,-0.106873,1.02332,-0.0610352,-0.0610352,-0.0610352,0
-0.0614014,-0.106689,1.026,0,0,-0.183105,0
-0.0614014,-0.106689,1.026,0,0,-0.183105,0
-0.0597534,-0.110168,1.01813,-0.0610352,-0.12207,-0.0610352,0
-0.0618286,-0.10791,1.01849,0,-0.183105,-0.12207,0
-0.0618286,-0.10791,1.01849,0,-0.183105,-0.12207,0
-0.0619507,-0.108276,1.0202,-0.0610352,0,-0.0610352,0
-0.0617676,-0.108826,1.01788,0,-0.12207,-0.12207,0
-0.0617676,-0.108826,1.01788,0,-0.12207,-0.12207,0
-0.0592651,-0.10675,1.0188,-0.12207,-0.183105,-0.0610352,0
-0.05896,-0.110779,1.02283,-0.183105,0,-0.12207,0
-0.05896,-0.110779,1.02283,-0.183105,0,-0.12207,0
-0.0599976,-0.109253,1.01569,0,-0.244141,-0.12207,0
-0.0584717,-0.11084,1.0213,-0.0610352,0,-0.0610352,0
-0.0585327,-0.110596,1.01721,-0.183105,-0.0610352,0.0610352,0
-0.0585327,-0.110596,1.01721,-0.183105,-0.0610352,0.0610352,0
-0.0641479,-0.105835,1.02075,0,-0.244141,-0.12207,0
-0.0599365,-0.109863,1.02356,0,0.0610352,-0.183105,0
-0.0599365,-0.109863,1.02356,0,0.0610352,-0.183105,0
-0.0640259,-0.106323,1.01404,0,-0.0610352,-0.0610352,0
-0.0615234,-0.10791,1.02112,0,0.0610352,0,0
-0.0615234,-0.10791,1.02112,0,0.0610352,0,0
-0.0596924,-0.111877,1.02106,-0.0610352,0,-0.0610352,0
-0.0639648,-0.107788,1.02094,0,-0.0610352,0.0610352,0
-0.0639648,-0.107788,1.02094,0,-0.0610352,0.0610352,0
-0.0617676,-0.113281,1.02728,-0.0610352,0.12207,-0.0610352,0
-0.0581055,-0.108582,1.01917,-0.0610352,-0.0610352,-0.0610352,0
-0.0581055,-0.108582,1.01917,-0.0610352,-0.0610352,-0.0610352,0
-0.0595093,-0.108154,1.02173,-0.0610352,-0.12207,-0.12207,0
-0.0582886,-0.109741,1.02289,0.0610352,0,0,0
-0.0582886,-0.109741,1.02289,0.0610352,0,0,0
-0.0600586,-0.110291,1.01984,0.0610352,-0.244141,0,0
-0.0606079,-0.108704,1.02637,0.0610352,0,-0.0610352,0
-0.0606079,-0.108704,1.02637,0.0610352,0,-0.0610352,0
-0.0645142,-0.111145,1.01953,0.0610352,0.0610352,0.0610352,0
-0.060791,-0.106201,1.01666,0.0610352,-0.12207,-0.12207,0
-0.0613403,-0.106812,1.02374,-0.0610352,0,-0.0610352,0
-0.0613403,-0.106812,1.02374,-0.0610352,0,-0.0610352,0
-0.0613403,-0.108215,1.01697,-0.0610352,-0.12207,-0.12207,0
-0.0571899,-0.107117,1.02356,0.0610352,0,0,0
-0.0571899,-0.107117,1.02356,0.0610352,0,0,0
-0.0570679,-0.112976,1.02014,-0.0610352,-0.12207,0.0610352,0
-0.0626221,-0.110046,1.01807,0,0,-0.12207,0
-0.0626221,-0.110046,1.01807,0,0,-0.12207,0
-0.059082,-0.11261,1.01984,0,0.0610352,0,0
-0.0613403,-0.108093,1.01434,-0.0610352,-0.305176,-0.0610352,0
-0.0613403,-0.108093,1.01434,-0.0610352,-0.305176,-0.0610352,0
-0.0595703,-0.103882,1.02277,-0.0610352,0,-0.12207,0
-0.0609741,-0.106873,1.02313,0,0.12207,-0.0610352,0
-0.0609741,-0.106873,1.02313,0,0.12207,-0.0610352,0
-0.0614624,-0.107483,1.01733,-0.0610352,-0.12207,-0.0610352,0
-0.0591431,-0.112183,1.0238,0,0.12207,-0.0610352,0
-0.0591431,-0.112183,1.0238,0,0.12207,-0.0610352,0
-0.0609741,-0.108765,1.02026,0.0610352,-0.12207,-0.12207,0
-0.0558472,-0.109863,1.02173,0,-0.12207,-0.0610352,0
-0.0558472,-0.109863,1.02173,0,-0.12207,-0.0610352,0
-0.0564575,-0.114136,1.01758,-0.0610352,-0.0610352,-0.0610352,0
-0.0596313,-0.106384,1.01221,0.12207,-0.12207,-0.12207,0
-0.0596313,-0.106384,1.01221,0.12207,-0.12207,-0.12207,0
-0.0603027,-0.107788,1.02368,-0.244141,0.12207,0,0
-0.0617676,-0.112,1.02283,-0.0610352,-0.0610352,0,0
-0.0617676,-0.112,1.02283,-0.0610352,-0.0610352,0,0
-0.0626831,-0.105286,1.01575,0.0610352,-0.12207,-0.12207,0
-0.0619507,-0.110168,1.02087,-0.12207,-0.0610352,0,0
-0.0619507,-0.110168,1.02087,-0.12207,-0.0610352,0,0
-0.0627441,-0.107788,1.01953,0,-0.0610352,-0.12207,0
-0.0615845,-0.112976,1.02496,-0.183105,-0.0610352,0,0
-0.0588379,-0.111694,1.01532,0.0610352,0,0,0
-0.0588379,-0.111694,1.01532,0.0610352,0,0,0
-0.0591431,-0.107422,1.02222,0.12207,-0.0610352,-0.0610352,0
-0.0560303,-0.108582,1.02454,-0.305176,0.0610352,-0.0610352,0
-0.0560303,-0.108582,1.02454,-0.305176,0.0610352,-0.0610352,0
-0.0593262,-0.106934,1.02032,-0.0610352,-0.0610352,0,0
-0.0581055,-0.108704,1.01874,0.0610352,0.12207,0,0
-0.0581055,-0.108704,1.01874,0.0610352,0.12207,0,0
-0.0576782,-0.109924,1.02063,0,0.0610352,0,0
-0.0637817,-0.106262,1.01666,-0.12207,-0.12207,-0.12207,0
-0.0637817,-0.106262,1.01666,-0.12207,-0.12207,-0.12207,0
-0.0581665,-0.111267,1.02399,-0.183105,0.0610352,0,0
-0.0656128,-0.110168,1.01685,0,-0.183105,0.0610352,0
-0.0656128,-0.110168,1.01685,0,-0.183105,0.0610352,0
-0.0626221,-0.107544,1.01825,0,-0.0610352,-0.12207,0
-0.05896,-0.107605,1.02417,-0.0610352,0,-0.0610352,0
-0.05896,-0.107605,1.02417,-0.0610352,0,-0.0610352,0
-0.0601807,-0.106018,1.01996,0,-0.0610352,-0.12207,0
-0.0603638,-0.105347,1.02203,0,0,-0.0610352,0
-0.0603638,-0.105347,1.02203,0,0,-0.0610352,0
-0.0612793,-0.10614,1.01978,0,0,0.0610352,0
-0.0617065,-0.111084,1.01971,-0.244141,-0.0610352,-0.0610352,0
-0.0600586,-0.112976,1.02411,0,0,-0.0610352,0
-0.0600586,-0.112976,1.02411,0,0,-0.0610352,0
-0.0598755,-0.106995,1.01849,0,-0.12207,-0.0610352,0
-0.0584717,-0.111023,1.02325,-0.0610352,0,-0.12207,0
-0.0584717,-0.111023,1.02325,-0.0610352,0,-0.12207,0
-0.0623169,-0.113281,1.01337,-0.12207,-0.12207,-0.12207,0
-0.0598145,-0.109314,1.02063,-0.0610352,-0.0610352,0,0
-0.0598145,-0.109314,1.02063,-0.0610352,-0.0610352,0,0
-0.0579834,-0.110046,1.0235,-0.0610352,0,-0.12207,0
-0.0618896,-0.107727,1.01709,-0.0610352,-0.0610352,-0.0610352,0
-0.0618896,-0.107727,1.01709,-0.0610352,-0.0610352,-0.0610352,0
-0.0620728,-0.108643,1.02124,0,0.12207,0.0610352,0
-0.0581665,-0.11261,1.02032,0.0610352,0,-0.0610352,0
-0.0581665,-0.11261,1.02032,0.0610352,0,-0.0610352,0
-0.060791,-0.107422,1.0202,-0.0610352,0,-0.0610352,0
-0.0562744,-0.11377,1.0177,-0.0610352,-0.0610352,-0.0610352,0
-0.0562744,-0.11377,1.0177,-0.0610352,-0.0610352,-0.0610352,0
-0.0610962,-0.107056,1.00946,0.0610352,-0.12207,-0.12207,0
-0.05896,-0.108704,1.02551,0,0,-0.12207,0
-0.05896,-0.108704,1.02551,0,0,-0.12207,0
-0.0593872,-0.11676,1.01489,-0.0610352,-0.12207,0.12207,0
-0.0601807,-0.110107,1.01666,0.12207,-0.12207,-0.0610352,0
-0.0601807,-0.110107,1.01666,0.12207,-0.12207,-0.0610352,0
-0.0567017,-0.106995,1.02557,0,0.12207,0.0610352,0
-0.0582886,-0.103699,1.01886,-0.0610352,-0.0610352,-0.12207,0
-0.0584106,-0.100525,1.01855,0.0610352,-0.0610352,-0.0610352,0
-0.0584106,-0.100525,1.01855,0.0610352,-0.0610352,-0.0610352,0
-0.0622559,-0.104126,1.02307,-0.12207,0.0610352,0,0
-0.0657349,-0.112366,1.01648,-0.0610352,-0.12207,-0.0610352,0
-0.0657349,-0.112366,1.01648,-0.0610352,-0.12207,-0.0610352,0
-0.0623779,-0.118164,1.02484,-0.0610352,-0.12207,-0.0610352,0
-0.0645752,-0.11377,1.02173,0,0.0610352,-0.0610352,0
-0.0645752,-0.11377,1.02173,0,0.0610352,-0.0610352,0
-0.0617065,-0.112854,1.02209,0,-0.0610352,-0.12207,0
-0.0578613,-0.109131,1.01868,0.0610352,0.12207,-0.12207,0
-0.0578613,-0.109131,1.01868,0.0610352,0.12207,-0.12207,0
-0.0569458,-0.104126,1.02136,0,0,0,0
-0.0587769,-0.108093,1.01794,0.12207,0.0610352,-0.183105,0
-0.0587769,-0.108093,1.01794,0.12207,0.0610352,-0.183105,0
-0.0582275,-0.105469,1.02551,-0.183105,-0.12207,-0.12207,0
-0.0585938,-0.104065,1.02618,-0.183105,-0.0610352,-0.12207,0
-0.0585938,-0.104065,1.02618,-0.183105,-0.0610352,-0.12207,0
-0.0615845,-0.108093,1.01813,0.0610352,0,-0.0610352,0
-0.0654297,-0.107361,1.01764,0.0610352,-0.244141,-0.12207,0
-0.0654297,-0.107361,1.01764,0.0610352,-0.244141,-0.12207,0
-0.060791,-0.109253,1.02521,-0.183105,-0.12207,-0.12207,0
-0.057312,-0.112854,1.01526,0.0610352,-0.183105,0,0
-0.057312,-0.112854,1.01526,0.0610352,-0.183105,0,0
-0.06073,-0.110474,1.02478,0,0.0610352,-0.0610352,0
-0.0601196,-0.11322,1.02478,-0.12207,0.0610352,-0.0610352,0
-0.0601196,-0.11322,1.02478,-0.12207,0.0610352,-0.0610352,0
-0.0595703,-0.107422,1.01611,-0.12207,-0.12207,-0.12207,0
-0.0574951,-0.109985,1.02417,0,0,0.0610352,0
-0.0594482,-0.105347,1.01947,0,-0.0610352,-0.12207,0
-0.0594482,-0.105347,1.01947,0,-0.0610352,-0.12207,0
-0.0614014,-0.101562,1.02356,-0.0610352,-0.183105,-0.0610352,0
-0.053772,-0.106689,1.02441,-0.12207,0.0610352,-0.0610352,0
-0.053772,-0.106689,1.02441,-0.12207,0.0610352,-0.0610352,0
-0.0639648,-0.105347,1.01715,0.0610352,-0.244141,-0.0610352,0
-0.0617676,-0.110657,1.02466,-0.12207,-0.0610352,0,0
-0.0617676,-0.110657,1.02466,-0.12207,-0.0610352,0,0
-0.0617676,-0.113159,1.02313,-0.0610352,0.183105,0,0
-0.0630493,-0.109375,1.01666,0.183105,-0.183105,0,0
-0.0630493,-0.109375,1.01666,0.183105,-0.183105,0,0
-0.0594482,-0.10675,1.02771,0,0.12207,0,0
-0.0598755,-0.105774,1.02069,0,-0.0610352,0,0
-0.0598755,-0.105774,1.02069,0,-0.0610352,0,0
-0.0574951,-0.108337,1.01788,-0.0610352,-0.183105,-0.0610352,0
-0.057312,-0.109558,1.01575,-0.12207,0,0.0610352,0
-0.057312,-0.109558,1.01575,-0.12207,0,0.0610352,0
-0.0606689,-0.109497,1.0213,-0.0610352,-0.12207,0,0
-0.0632935,-0.113525,1.01697,-0.0610352,-0.12207,-0.0610352,0
-0.0616455,-0.109192,1.01678,0,-0.12207,0,0
-0.0616455,-0.109192,1.01678,0,-0.12207,0,0
-0.064209,-0.107178,1.01807,-0.12207,-0.0610352,-0.12207,0
-0.0612793,-0.108521,1.02502,0,0.0610352,0.0610352,0
-0.0612793,-0.108521,1.02502,0,0.0610352,0.0610352,0
-0.0603027,-0.106323,1.0238,-0.0610352,-0.0610352,-0.12207,0
-0.0595093,-0.108093,1.02264,0,-0.0610352,-0.12207,0
-0.0595093,-0.108093,1.02264,0,-0.0610352,-0.12207,0
-0.0576172,-0.107727,1.01825,0,0,0.0610352,0
-0.0605469,-0.109314,1.02161,-0.0610352,-0.12207,-0.12207,0
-0.0605469,-0.109314,1.02161,-0.0610352,-0.12207,-0.12207,0
-0.0567627,-0.109619,1.02087,-0.12207,-0.0610352,0.0610352,0
-0.062561,-0.111511,1.01825,0.0610352,0,0,0
-0.062561,-0.111511,1.01825,0.0610352,0,0,0
-0.0631714,-0.108398,1.01941,-0.0610352,-0.0610352,-0.12207,0
-0.0588989,-0.109924,1.01965,0,0,-0.183105,0
-0.0588989,-0.109924,1.01965,0,0,-0.183105,0
-0.0626831,-0.105957,1.0166,-0.0610352,-0.244141,-0.183105,0
-0.0606079,-0.108582,1.02655,0,0,-0.0610352,0
-0.0606079,-0.108582,1.02655,0,0,-0.0610352,0
-0.0618896,-0.107849,1.01727,0.0610352,0.0610352,0,0
-0.0615845,-0.105713,1.01886,-0.0610352,-0.12207,0,0
-0.0582275,-0.108887,1.02222,0,0,-0.12207,0
-0.0582275,-0.108887,1.02222,0,0,-0.12207,0
-0.0592651,-0.108154,1.01526,0,0,0,0
-0.0604248,-0.108276,1.01398,0.0610352,-0.12207,-0.183105,0
-0.0604248,-0.108276,1.01398,0.0610352,-0.12207,-0.183105,0
-0.0609131,-0.106812,1.02466,-0.12207,-0.12207,-0.12207,0
-0.0626221,-0.107239,1.02179,-0.0610352,0,-0.12207,0
-0.0626221,-0.107239,1.02179,-0.0610352,0,-0.12207,0
-0.0617676,-0.109924,1.01794,0,0,0,0
-0.0625,-0.108337,1.02594,-0.0610352,-0.0610352,-0.0610352,0
-0.0625,-0.108337,1.02594,-0.0610352,-0.0610352,-0.0610352,0
-0.0601807,-0.107056,1.02448,-0.244141,-0.0610352,-0.0610352,0
-0.0593262,-0.106384,1.02222,0.0610352,0,-0.12207,0
-0.0593262,-0.106384,1.02222,0.0610352,0,-0.12207,0
-0.0563354,-0.105408,1.01892,-0.0610352,0.0610352,-0.12207,0
-0.057312,-0.109009,1.02026,0,0.0610352,0,0
-0.057312,-0.109009,1.02026,0,0.0610352,0,0
-0.062561,-0.110046,1.01904,0,-0.0610352,0,0
-0.0581665,-0.116516,1.01727,0,0,0,0
-0.0581665,-0.116516,1.01727,0,0,0,0
-0.0637817,-0.111389,1.0166,0.0610352,-0.12207,-0.12207,0
-0.06073,-0.109497,1.02222,-0.0610352,-0.183105,-0.12207,0
-0.06073,-0.109497,1.02222,-0.0610352,-0.183105,-0.12207,0
-0.0582275,-0.108765,1.02325,-0.0610352,-0.0610352,0,0
-0.0626831,-0.103699,1.0191,-0.0610352,-0.0610352,-0.0610352,0
-0.0609741,-0.109192,1.02271,-0.0610352,0,0,0
-0.0609741,-0.109192,1.02271,-0.0610352,0,0,0
-0.0604858,-0.108398,1.01459,0.12207,0,-0.0610352,0
-0.0604858,-0.108398,1.01459,0.12207,0,-0.0610352,0
-0.0604248,-0.110474,1.02692,-0.0610352,-0.183105,-0.0610352,0
-0.0609131,-0.109863,1.02032,-0.12207,-0.12207,0,0
-0.0603027,-0.110168,1.01526,0,-0.305176,-0.0610352,0
-0.0603027,-0.110168,1.01526,0,-0.305176,-0.0610352,0
-0.0574341,-0.10907,1.02271,0,0,-0.12207,0
-0.0571289,-0.110474,1.01434,0,0.0610352,0.0610352,0
-0.0571289,-0.110474,1.01434,0,0.0610352,0.0610352,0
-0.06073,-0.106201,1.02008,0,-0.0610352,-0.183105,0
-0.0614014,-0.110107,1.02332,-0.12207,0,0,0
-0.0614014,-0.110107,1.02332,-0.12207,0,0,0
-0.0628052,-0.110046,1.01245,-0.0610352,-0.183105,-0.0610352,0
-0.0637817,-0.107483,1.02753,0,0.12207,0.0610352,0
-0.0637817,-0.107483,1.02753,0,0.12207,0.0610352,0
-0.0601807,-0.109985,1.02472,-0.0610352,-0.12207,-0.0610352,0
-0.0640869,-0.106445,1.01837,0.0610352,-0.0610352,-0.12207,0
-0.0640869,-0.106445,1.01837,0.0610352,-0.0610352,-0.12207,0
-0.0616455,-0.108215,1.02039,0.0610352,-0.244141,0.0610352,0
-0.0608521,-0.111511,1.01898,-0.0610352,-0.183105,-0.183105,0
-0.0608521,-0.111511,1.01898,-0.0610352,-0.183105,-0.183105,0
-0.0614624,-0.108154,1.02325,-0.0610352,-0.0610352,0,0
-0.059021,-0.10968,1.0155,-0.0610352,-0.0610352,-0.0610352,0
-0.059021,-0.10968,1.0155,-0.0610352,-0.0610352,-0.0610352,0
-0.0609131,-0.100464,1.02283,0,-0.0610352,-0.12207,0
-0.0606079,-0.108337,1.0246,0,0.12207,-0.0610352,0
-0.0606079,-0.108337,1.0246,0,0.12207,-0.0610352,0
-0.0617676,-0.108582,1.02155,0.0610352,-0.183105,-0.12207,0
-0.0599976,-0.107666,1.01886,-0.0610352,-0.0610352,-0.0610352,0
-0.0599976,-0.107666,1.01886,-0.0610352,-0.0610352,-0.0610352,0
-0.0567627,-0.113403,1.02435,-0.0610352,0.183105,-0.0610352,0
-0.0645752,-0.107056,1.02228,-0.0610352,-0.0610352,0,0
-0.0615845,-0.109009,1.02527,-0.0610352,-0.0610352,0,0
-0.0615845,-0.109009,1.02527,-0.0610352,-0.0610352,0,0
-0.0581055,-0.111206,1.01166,0.0610352,0.12207,-0.12207,0
-0.0566406,-0.126038,1.03235,-0.305176,0.305176,0.0610352,0
-0.0566406,-0.126038,1.03235,-0.305176,0.305176,0.0610352,0
-0.09021,-0.0620728,1.00061,0.915527,-1.15967,-0.366211,0
-0.0241699,-0.148682,1.02893,-1.58691,0.305176,0.366211,0
-0.0241699,-0.148682,1.02893,-1.58691,0.305176,0.366211,0
-0.0842285,-0.0571289,1.04028,0.12207,0.732422,-0.793457,0
-0.0306396,-0.138794,1.00531,-0.0610352,-0.610352,0.549316,0
-0.0306396,-0.138794,1.00531,-0.0610352,-0.610352,0.549316,0
-0.067688,-0.0777588,1.0365,0.183105,0.305176,-0.671387,0
-0.0507202,-0.118469,1.00903,-0.793457,0.183105,0.305176,0
-0.0507202,-0.118469,1.00903,-0.793457,0.183105,0.305176,0
-0.0594482,-0.135925,1.05481,-0.366211,0.366211,-0.12207,0
-0.0626831,-0.124023,1.02515,0.305176,0.0610352,0.244141,0
-0.0626831,-0.124023,1.02515,0.305176,0.0610352,0.244141,0
-0.0673828,-0.143799,0.99115,0.244141,0.244141,-0.244141,0
-0.0584717,-0.0875244,1.11261,-0.671387,-0.366211,-0.427246,0
-0.0584717,-0.0875244,1.11261,-0.671387,-0.366211,-0.427246,0
-0.0390625,-0.0841675,0.946838,0.671387,0.427246,0.305176,0
-0.0652466,-0.126099,0.984863,0.427246,0.305176,0.183105,0
-0.0947876,-0.046814,1.12506,-1.34277,0.0610352,-0.610352,0
-0.0947876,-0.046814,1.12506,-1.34277,0.0610352,-0.610352,0
-0.0245972,-0.177307,0.9729,-0.854492,0.0610352,0.854492,0
-0.065918,-0.0715332,1.01337,2.13623,-1.09863,-0.976562,0
-0.065918,-0.0715332,1.01337,2.13623,-1.09863,-0.976562,0
-0.0565186,-0.113831,1.00739,-1.89209,1.46484,0.427246,0
-0.0635986,-0.148193,1.15015,-1.34277,1.70898,-0.305176,0
-0.0635986,-0.148193,1.15015,-1.34277,1.70898,-0.305176,0
-0.0443726,-0.0973511,0.907532,4.76074,-5.00488,0.244141,0
-0.0279541,-0.148804,1.01147,-2.99072,3.90625,0.183105,0
-0.0279541,-0.148804,1.01147,-2.99072,3.90625,0.183105,0
-0.109863,-0.090332,1.06067,1.40381,-1.52588,-0.427246,0
-0.045166,-0.105103,1.00183,-0.671387,-0.183105,-0.0610352,0
-0.045166,-0.105103,1.00183,-0.671387,-0.183105,-0.0610352,0
-0.065979,-0.093811,1.02551,-0.305176,0.610352,0.183105,0
-0.0571289,-0.109436,0.988708,1.28174,-1.46484,0,0
-0.0571289,-0.109436,0.988708,1.28174,-1.46484,0,0
-0.0564575,-0.102478,1.06311,-1.58691,1.2207,0.0610352,0
-0.0612183,-0.120422,1.01044,0.976562,-1.2207,-0.0610352,0
-0.0612183,-0.120422,1.01044,0.976562,-1.2207,-0.0610352,0
-0.0509644,-0.106201,1.00226,0.12207,-0.610352,-0.305176,0
-0.0576172,-0.110779,1.02893,-0.549316,0.305176,0.0610352,0
-0.0576172,-0.110779,1.02893,-0.549316,0.305176,0.0610352,0
-0.0689087,-0.114319,0.994019,0.183105,-0.305176,0.0610352,0
-0.0567017,-0.136414,1.05609,-0.793457,0.366211,0.12207,0
-0.0567017,-0.136414,1.05609,-0.793457,0.366211,0.12207,0
-0.0631104,-0.106567,1.00537,0.549316,-0.0610352,-0.0610352,0
-0.0592651,-0.107117,1.01569,0,-0.0610352,-0.12207,0
-0.0592651,-0.107117,1.01569,0,-0.0610352,-0.12207,0
-0.0612183,-0.0892944,1.04852,-0.183105,0.183105,-0.12207,0
-0.057312,-0.0858154,0.986877,0.244141,-0.854492,0.0610352,0
-0.0481567,-0.108765,1.03912,-0.305176,0.366211,-0.12207,0
-0.0481567,-0.108765,1.03912,-0.305176,0.366211,-0.12207,0
-0.0649414,-0.105469,1.01685,0.0610352,-0.183105,-0.0610352,0
-0.0510254,-0.126892,1.01086,-0.305176,-0.0610352,-0.0610352,0
-0.0510254,-0.126892,1.01086,-0.305176,-0.0610352,-0.0610352,0
-0.0713501,-0.102966,1.03735,0,0.244141,-0.183105,0
-0.052002,-0.124634,1.01379,-0.366211,-0.244141,0.183105,0
-0.052002,-0.124634,1.01379,-0.366211,-0.244141,0.183105,0
-0.0655518,-0.103699,1.02075,0.305176,0.0610352,-0.244141,0
-0.0552368,-0.124084,1.03223,-0.183105,0.12207,0.244141,0
-0.0552368,-0.124084,1.03223,-0.183105,0.12207,0.244141,0
-0.0649414,-0.105408,1.01685,0.427246,-0.366211,-0.366211,0
-0.0610352,-0.0900269,1.00934,-0.0610352,-0.305176,0.0610352,0
-0.0610352,-0.0900269,1.00934,-0.0610352,-0.305176,0.0610352,0
-0.0565796,-0.110413,1.01416,-0.244141,0.183105,0.0610352,0
-0.0708618,-0.102295,1.01709,0.0610352,-0.0610352,0,0
-0.0708618,-0.102295,1.01709,0.0610352,-0.0610352,0,0
-0.0571289,-0.123413,1.01868,-0.12207,-0.12207,0,0
-0.0648804,-0.103333,1.02875,-0.12207,0,-0.244141,0
-0.0648804,-0.103333,1.02875,-0.12207,0,-0.244141,0
-0.0547485,-0.103821,1.01605,0,-0.12207,-0.12207,0
-0.0528564,-0.106384,1.01154,0,0,0,0
-0.0610352,-0.11615,1.02789,0,0.12207,0,0
-0.0610352,-0.11615,1.02789,0,0.12207,0,0
-0.0629272,-0.120911,1.01257,-0.0610352,-0.183105,0,0
-0.0654907,-0.115295,1.01685,0,-0.183105,-0.183105,0
-0.0654907,-0.115295,1.01685,0,-0.183105,-0.183105,0
-0.0653687,-0.107666,1.02203,-0.0610352,0.12207,-0.183105,0
-0.0613403,-0.107483,1.01605,0,-0.0610352,-0.0610352,0
-0.0613403,-0.107483,1.01605,0,-0.0610352,-0.0610352,0
-0.0628662,-0.0984497,1.01599,0.0610352,-0.0610352,0.0610352,0
-0.0559692,-0.113953,1.0235,-0.0610352,0,-0.12207,0
-0.0559692,-0.113953,1.0235,-0.0610352,0,-0.12207,0
-0.0596313,-0.106873,1.01709,-0.0610352,0.12207,-0.0610352,0
-0.0542603,-0.111694,1.02307,0.0610352,0.0610352,0.12207,0
-0.0542603,-0.111694,1.02307,0.0610352,0.0610352,0.12207,0
-0.0571899,-0.109436,1.02081,-0.12207,-0.183105,0,0
-0.0562134,-0.115784,1.01288,-0.0610352,-0.0610352,0,0
-0.0562134,-0.115784,1.01288,-0.0610352,-0.0610352,0,0
-0.0564575,-0.115784,1.02484,0.12207,0.12207,0,0
-0.0617676,-0.104797,1.02716,0.12207,-0.0610352,-0.12207,0
-0.0617676,-0.104797,1.02716,0.12207,-0.0610352,-0.12207,0
-0.0612183,-0.0969849,1.01855,0,0,0,0
-0.0658569,-0.10321,1.01379,-0.12207,0.0610352,-0.0610352,0
-0.0703125,-0.112183,1.02997,-0.183105,0.0610352,-0.12207,0
-0.0703125,-0.112183,1.02997,-0.183105,0.0610352,-0.12207,0
-0.062439,-0.117188,1.02386,0.0610352,0,0.0610352,0
-0.0574341,-0.116455,1.0155,0.0610352,-0.183105,-0.12207,0
-0.0574341,-0.116455,1.0155,0.0610352,-0.183105,-0.12207,0
-0.0543823,-0.11084,1.02264,0,0.0610352,-0.0610352,0
-0.0531616,-0.110474,1.01764,-0.0610352,-0.0610352,-0.0610352,0
-0.0531616,-0.110474,1.01764,-0.0610352,-0.0610352,-0.0610352,0
-0.0546875,-0.110229,1.01678,0.0610352,-0.0610352,-0.0610352,0
-0.0562744,-0.112061,1.02045,0,0.0610352,-0.0610352,0
-0.0562744,-0.112061,1.02045,0,0.0610352,-0.0610352,0
-0.0620728,-0.109375,1.02289,0,0.0610352,0,0
-0.0670776,-0.106567,1.02875,-0.12207,-0.0610352,-0.0610352,0
-0.0670776,-0.106567,1.02875,-0.12207,-0.0610352,-0.0610352,0
-0.0633545,-0.104919,1.01642,0.12207,-0.183105,-0.0610352,0
-0.0600586,-0.102661,1.01758,0.0610352,0,0,0
-0.0600586,-0.102661,1.01758,0.0610352,0,0,0
-0.0578003,-0.111206,1.02209,-0.12207,0,0.12207,0
-0.0567017,-0.105042,1.01807,0.183105,-0.183105,-0.0610352,0
-0.0567017,-0.105042,1.01807,0.183105,-0.183105,-0.0610352,0
-0.0544434,-0.102722,1.01276,0.12207,-0.0610352,-0.12207,0
-0.0551147,-0.112488,1.02094,-0.305176,0.0610352,-0.0610352,0
-0.0614624,-0.110657,1.02435,0,0,-0.12207,0
-0.0614624,-0.110657,1.02435,0,0,-0.12207,0
-0.0601807,-0.115356,1.0246,-0.0610352,-0.12207,-0.0610352,0
-0.0613403,-0.108154,1.02283,0.12207,-0.0610352,-0.0610352,0
-0.0613403,-0.108154,1.02283,0.12207,-0.0610352,-0.0610352,0
-0.0576782,-0.0986938,1.02216,0,0.0610352,-0.12207,0
-0.0610962,-0.0980835,1.00714,0,0,-0.0610352,0
-0.0610962,-0.0980835,1.00714,0,0,-0.0610352,0
-0.0616455,-0.100708,1.01849,-0.0610352,0.0610352,0.0610352,0
-0.0645142,-0.114258,1.03192,-0.427246,-0.0610352,0,0
-0.0645142,-0.114258,1.03192,-0.427246,-0.0610352,0,0
-0.0657959,-0.118958,1.02002,0,-0.305176,-0.0610352,0
-0.0614014,-0.122009,1.02032,-0.0610352,-0.183105,-0.183105,0
-0.0614014,-0.122009,1.02032,-0.0610352,-0.183105,-0.183105,0
-0.0585327,-0.115356,1.0213,0,0,-0.183105,0
-0.0563354,-0.102661,1.01855,0.244141,-0.305176,-0.0610352,0
-0.0563354,-0.102661,1.01855,0.244141,-0.305176,-0.0610352,0
-0.0477905,-0.102661,1.02454,0,0.12207,-0.0610352,0
