raw_accel_x,raw_accel_y,raw_accel_z,world_accel_x,world_accel_y,yaw,fused_heading,x,y,z,left_encoder_rate,right_encoder_rate,left_input,right_input,fpga time,navx time
0.0393066,0.0262451,0.941284,0.001,0.004,-105.39,254.6,3.78784,1.51228,0,0,0,-0.0078125,-0.023622,2191.94,2221374
0.0393066,0.0262451,0.941284,0.001,0.004,-105.39,254.6,3.78784,1.51228,0,0,0,-0.0078125,-0.023622,2191.95,2221374
0.0361328,0.0278931,0.949707,0,-0.001,-0.06,359.93,0,0,0,0,0,-0.0078125,-0.023622,2191.97,2221389
0.0335083,0.0285034,0.948792,-0.002,0,-0.06,359.93,0,0,0,0,0,-0.0078125,-0.023622,2191.99,2221419
0.0332031,0.0319824,0.957214,-0.003,0.002,-0.06,359.93,0,0,0,0,0,-0.0078125,-0.023622,2192.01,2221434
0.0371704,0.0247803,0.947021,0.001,-0.004,-0.06,359.93,0,0,0,0,0,-0.0078125,-0.023622,2192.03,2221449
0.03302,0.0287476,0.95166,-0.003,0,-0.05,359.94,0,0,0,0,0,-0.0078125,-0.023622,2192.05,2221479
0.0361328,0.0272827,0.948608,0,-0.001,-0.05,359.94,0,0,0,0,0,-0.0078125,-0.023622,2192.07,2221494
0.0358276,0.0301514,0.95343,0,0,-0.05,359.94,0,0,0,0,0,-0.0078125,-0.023622,2192.09,2221509
0.0335083,0.032959,0.958801,-0.002,0.003,-0.05,359.94,0,0,0,0,0,-0.0078125,-0.023622,2192.11,2221539
0.038208,0.0269165,0.944275,0.002,-0.001,-0.05,359.94,0,0,0,0,0,-0.0078125,-0.023622,2192.13,2221554
0.0361938,0.0304565,0.952271,0,0.001,-0.05,359.94,0,0,0,0,0,-0.0078125,-0.023622,2192.17,2221599
0.0361938,0.0304565,0.952271,0,0.001,-0.05,359.94,0,0,0,0,0,-0.0078125,-0.023622,2192.17,2221599
0.0378418,0.0288086,0.945007,0.002,0,-0.05,359.94,0,0,0,0,0,-0.0078125,-0.023622,2192.19,2221614
0.0358887,0.0298462,0.940186,0,0.001,-0.05,359.94,0,0,0,0,0,-0.0078125,-0.023622,2192.22,2221645
0.0332642,0.0270996,0.947266,-0.002,-0.001,-0.05,359.94,0,0,0,0,0,-0.0078125,-0.023622,2192.23,2221659
0.0350952,0.0286255,0.949463,0,0,-0.05,359.94,0,0,0,0,0,-0.0078125,-0.023622,2192.25,2221674
0.0375366,0.0245361,0.942017,0.001,-0.004,-0.05,359.94,0,0,0,0,0,-0.0078125,-0.023622,2192.27,2221705
0.0375977,0.0263672,0.948608,0.001,-0.002,-0.05,359.94,0,0,0,0,0,-0.0078125,-0.023622,2192.29,2221719
0.0367432,0.0343628,0.950195,0,0.005,-0.05,359.94,0,0,0,0,0,-0.0078125,-0.023622,2192.31,2221734
0.0379639,0.0270386,0.951111,0.002,-0.002,-0.05,359.94,0,0,0,0,0,-0.0078125,-0.023622,2192.33,2221749
0.0351562,0.0308838,0.956238,0,0.001,-0.05,359.94,0,0,0,0,0,-0.0078125,-0.023622,2192.35,2221779
0.0354004,0.0265503,0.942383,0,-0.002,-0.05,359.94,0,0,0,0,0,-0.0078125,-0.023622,2192.37,2221794
0.0371094,0.0291138,0.956177,0.001,0,-0.05,359.94,0,0,0,0,0,-0.0078125,-0.023622,2192.42,2221854
0.0371094,0.0291138,0.956177,0.001,0,-0.05,359.94,0,0,0,0,0,-0.0078125,-0.023622,2192.42,2221854
0.0371094,0.0291138,0.956177,0.001,0,-0.05,359.94,0,0,0,0,0,-0.0078125,-0.023622,2192.43,2221854
0.0384521,0.0266113,0.948853,0.002,-0.002,-0.05,359.94,0,0,0,0,0,-0.0078125,-0.023622,2192.45,2221869
0.0366821,0.0294189,0.945862,0,0,-0.05,359.94,0,0,0,0,0,-0.0078125,-0.023622,2192.47,2221899
0.0351562,0.0308838,0.945312,0,0.002,-0.05,359.94,0,0,0,0,0,-0.0078125,-0.023622,2192.49,2221914
0.0368652,0.02771,0.944275,0.001,-0.001,-0.05,359.94,0,0,0,0,0,-0.0078125,-0.023622,2192.51,2221944
0.0349731,0.0305176,0.95166,0,0.001,-0.05,359.94,0,0,0,0,0,-0.0078125,-0.023622,2192.53,2221959
0.0374146,0.0305786,0.946045,0.001,0.001,-0.05,359.94,0,0,0,0,0,-0.0078125,-0.023622,2192.55,2221974
0.0358887,0.0280151,0.945312,0,0,-0.05,359.94,0,0,0,0,0,-0.0078125,-0.023622,2192.57,2222004
0.0355835,0.0229492,0.949341,0,-0.006,-0.05,359.94,0,0,0,0,0,-0.0078125,-0.023622,2192.59,2222019
0.0361938,0.0280151,0.944458,0,0,-0.05,359.94,0,0,0,0,0,-0.0078125,-0.023622,2192.61,2222034
0.0378418,0.0265503,0.950439,0.001,-0.002,-0.05,359.94,0,0,0,0,0,-0.0078125,-0.023622,2192.63,2222049
0.036377,0.0285645,0.949219,0,0,-0.05,359.94,0,0,0,0,0,-0.0078125,-0.023622,2192.65,2222079
0.0341797,0.0322876,0.949341,-0.001,0.003,-0.05,359.94,0,0,0,0,0,-0.0078125,-0.023622,2192.67,2222094
0.0338135,0.0296021,0.94574,-0.002,0,-0.05,359.94,0,0,0,0,0,-0.0078125,-0.023622,2192.69,2222109
0.0379639,0.0275879,0.950134,0.002,-0.001,-0.05,359.94,0,0,0,0,0,-0.0078125,-0.023622,2192.71,2222139
0.0390015,0.0305176,0.947632,0.003,0.001,-0.05,359.94,0,0,0,0,0,-0.0078125,-0.023622,2192.73,2222154
0.039856,0.02771,0.946411,0.004,-0.001,-0.05,359.94,0,0,0,0,0,-0.0078125,-0.023622,2192.75,2222184
0.0374146,0.0284424,0.952637,0.001,0,-0.05,359.94,0,0,0,0,0,-0.0078125,-0.023622,2192.77,2222199
0.0379639,0.0264893,0.94342,0.002,-0.002,-0.05,359.94,0,0,0,0,0,-0.0078125,-0.023622,2192.79,2222214
0.0375977,0.0281372,0.951172,0.001,-0.001,-0.05,359.94,0,0,0,0,0,-0.0078125,-0.023622,2192.81,2222229
0.0351562,0.0289917,0.947571,0,0,-0.05,359.94,0,0,0,0,0,-0.0078125,-0.023622,2192.83,2222259
0.0361938,0.0318604,0.951477,0,0.002,-0.05,359.94,0,0,0,0,0,-0.0078125,-0.023622,2192.85,2222274
0.036499,0.0266724,0.949585,0,-0.002,-0.05,359.94,0,0,0,0,0,-0.0078125,-0.023622,2192.89,2222319
0.0362549,0.0281372,0.940979,0,0,-0.05,359.94,0,0,0,0,0,-0.0078125,-0.023622,2192.91,2222334
0.0366821,0.0258179,0.949036,0,-0.003,-0.05,359.94,0,0,0,0,0,-0.0078125,-0.023622,2192.93,2222364
0.038269,0.0302734,0.9505,0.002,0.001,-0.05,359.94,0,0,0,0,0,-0.0078125,-0.023622,2192.95,2222379
0.0387573,0.024231,0.94696,0.002,-0.004,-0.05,359.94,0,0,0,0,0,-0.0078125,-0.023622,2192.97,2222394
0.0353394,0.0252686,0.940796,0,-0.003,-0.05,359.94,0,0,0,0,0,-0.0078125,-0.023622,2192.99,2222409
0.0337524,0.0309448,0.943604,-0.002,0.002,-0.05,359.94,0,0,0,0,0,-0.0078125,-0.023622,2193.01,2222439
0.0365601,0.0284424,0.952026,0,0,-0.05,359.94,0,0,0,0,0,-0.0078125,-0.023622,2193.03,2222454
0.0404663,0.0274048,0.946045,0.004,-0.001,-0.05,359.94,0,0,0,0,0,-0.0078125,-0.023622,2193.06,2222499
0.0404663,0.0274048,0.946045,0.004,-0.001,-0.05,359.94,0,0,0,0,0,-0.0078125,-0.023622,2193.07,2222499
0.0368652,0.0266113,0.949097,0,-0.002,-0.05,359.94,0,0,0,0,0,-0.0078125,-0.023622,2193.09,2222514
0.0379028,0.0266113,0.941589,0.002,-0.002,-0.05,359.94,0,0,0,0,0,-0.0078125,-0.023622,2193.11,2222529
0.0314941,0.0297852,0.945374,-0.004,0,-0.05,359.94,0,0,0,0,0,-0.0078125,-0.023622,2193.13,2222559
0.0352173,0.0286255,0.951477,0,0,-0.05,359.94,0,0,0,0,0,-0.0078125,-0.023622,2193.15,2222574
0.0374756,0.0316162,0.95459,0.001,0.002,-0.05,359.94,0,0,0,0,0,-0.0078125,-0.023622,2193.17,2222604
0.0355835,0.0305786,0.946716,0,0.001,-0.05,359.94,0,0,0,0,0,-0.0078125,-0.023622,2193.19,2222619
0.0370483,0.0274658,0.949829,0,-0.001,-0.06,359.93,0,0,0,0,0,-0.0078125,-0.023622,2193.21,2222634
0.0378418,0.0276489,0.950439,0.001,-0.001,-0.05,359.94,0,0,0,0,0,-0.0078125,-0.023622,2193.23,2222649
0.0373535,0.0271606,0.950745,0.001,-0.001,-0.05,359.94,0,0,0,0,0,-0.0078125,-0.023622,2193.25,2222679
0.0379639,0.0296631,0.948486,0.001,0,-0.05,359.94,0,0,0,0,0,-0.0078125,-0.023622,2193.27,2222694
0.0357056,0.0305176,0.949646,0,0.001,-0.05,359.94,0,0,0,0,0,-0.0078125,-0.023622,2193.29,2222724
0.0319824,0.0328979,0.949707,-0.004,0.003,-0.05,359.94,0,0,0,0,0,-0.0078125,-0.023622,2193.31,2222739
0.0378418,0.0291748,0.952881,0.001,0,-0.05,359.94,0,0,0,0,0,-0.0078125,-0.023622,2193.33,2222754
0.0359497,0.027771,0.95459,0,-0.001,-0.05,359.94,0,0,0,0,0,-0.0078125,-0.023622,2193.35,2222784
0.0357666,0.0291138,0.946167,0,0,-0.05,359.94,0,0,0,0,0,-0.0078125,-0.023622,2193.37,2222799
0.0370483,0.0308838,0.954102,0,0.001,-0.05,359.94,0,0,0,0,0,-0.0078125,-0.023622,2193.39,2222814
0.0397949,0.0259399,0.937195,0.004,-0.002,-0.05,359.94,0,0,0,0,0,-0.0078125,-0.023622,2193.41,2222829
0.0366821,0.0270996,0.944885,0,-0.001,-0.05,359.94,0,0,0,0,0,-0.0078125,-0.023622,2193.43,2222859
0.0346069,0.0325317,0.953186,-0.001,0.003,-0.05,359.94,0,0,0,0,0,-0.0078125,-0.023622,2193.45,2222874
0.0372925,0.027771,0.949402,0.001,-0.001,-0.05,359.94,0,0,0,0,0,-0.0078125,-0.023622,2193.47,2222888
0.034668,0.0290527,0.950012,-0.001,0,-0.06,359.93,0,0,0,0,0,-0.0078125,-0.023622,2193.49,2222918
0.0328979,0.0308838,0.950195,-0.003,0.001,-0.06,359.93,0,0,0,0,0,-0.0078125,-0.023622,2193.51,2222933
0.0396729,0.0274658,0.947632,0.003,-0.001,-0.06,359.93,0,0,0,0,0,-0.0078125,-0.023622,2193.53,2222948
0.0344849,0.0271606,0.948547,-0.001,-0.001,-0.06,359.93,0,0,0,0,0,-0.0078125,-0.023622,2193.55,2222978
0.0349121,0.026123,0.949341,-0.001,-0.002,-0.06,359.93,0,0,0,0,0,-0.0078125,-0.023622,2193.57,2222993
0.0362549,0.0269775,0.942322,0,-0.001,-0.06,359.93,0,0,0,0,0,-0.0078125,-0.023622,2193.59,2223008
0.0348511,0.0285034,0.947571,-0.001,0,-0.06,359.93,0,0,0,0,0,-0.0078125,-0.023622,2193.61,2223038
0.0380249,0.0298462,0.958252,0.001,0,-0.06,359.93,0,0,0,0,0,-0.0078125,-0.023622,2193.63,2223053
0.0386353,0.0328979,0.948975,0.002,0.003,-0.06,359.93,0,0,0,0,0,-0.0078125,-0.023622,2193.65,2223084
0.0372925,0.0308838,0.948181,0.001,0.001,-0.06,359.93,0,0,0,0,0,-0.0078125,-0.023622,2193.67,2223098
0.0343018,0.0254517,0.954346,-0.002,-0.003,-0.06,359.93,0,0,0,0,0,-0.0078125,-0.023622,2193.69,2223113
0.0391846,0.0289917,0.945984,0.003,0,-0.07,359.92,0,0,0,0,0,-0.0078125,-0.023622,2193.71,2223128
0.0393066,0.0255737,0.942627,0.003,-0.003,-0.07,359.92,0,0,0,0,0,-0.0078125,-0.023622,2193.73,2223158
0.0308228,0.0308228,0.958008,-0.005,0.001,-0.07,359.92,0,0,0,0,0,-0.0078125,-0.023622,2193.75,2223173
0.0377808,0.0274658,0.940552,0.001,-0.001,-0.07,359.92,0,0,0,0,0,-0.0078125,-0.023622,2193.77,2223188
0.0358887,0.0293579,0.944519,0,0,-0.07,359.92,0,0,0,0,0,-0.0078125,-0.023622,2193.79,2223218
0.0337524,0.0328979,0.961182,-0.002,0.003,-0.06,359.93,0,0,0,0,0,-0.0078125,-0.023622,2193.81,2223233
0.0325317,0.0308228,0.948914,-0.003,0.001,-0.06,359.93,0,0,0,0,0,-0.0078125,-0.023622,2193.83,2223264
0.0335693,0.0291138,0.947083,-0.002,0,-0.06,359.93,0,0,0,0,0,-0.0078125,-0.023622,2193.85,2223278
0.0357056,0.0309448,0.949768,0,0.001,-0.06,359.93,0,0,0,0,0,-0.0078125,-0.023622,2193.87,2223293
0.0352173,0.0268555,0.951904,-0.001,-0.002,-0.06,359.93,0,0,0,0,0,-0.0078125,-0.023622,2193.89,2223324
0.0372314,0.0296631,0.941223,0.001,0,-0.06,359.93,0,0,0,0,0,-0.0078125,-0.023622,2193.91,2223338
0.0383301,0.0321655,0.954956,0.001,0.002,-0.06,359.93,0,0,0,0,0,-0.0078125,-0.023622,2193.93,2223353
0.0328979,0.0302734,0.957397,-0.003,0,-0.06,359.93,0,0,0,0,0,-0.0078125,-0.023622,2193.95,2223384
0.0379639,0.0294189,0.943726,0.001,0,-0.06,359.93,0,0,0,0,0,-0.0078125,-0.023622,2193.97,2223398
0.0316772,0.0321045,0.95459,-0.004,0.002,-0.06,359.93,0,0,0,0,0,-0.0078125,-0.023622,2193.99,2223413
0.0372314,0.0285645,0.935059,0.001,0,-0.06,359.93,0,0,0,0,0,-0.0078125,-0.023622,2194.01,2223444
0.0339966,0.0297852,0.951904,-0.002,0,-0.06,359.93,0,0,0,0,0,-0.0078125,-0.023622,2194.03,2223458
0.0366821,0.0272827,0.937378,0,-0.001,-0.06,359.93,0,0,0,0,0,-0.0078125,-0.023622,2194.05,2223473
0.0383301,0.0300293,0.940735,0.002,0.001,-0.06,359.93,0,0,0,0,0,-0.0078125,-0.023622,2194.07,2223504
0.0342407,0.0288696,0.954773,-0.002,0,-0.06,359.93,0,0,0,0,0,-0.0078125,-0.023622,2194.09,2223518
0.0363159,0.0283203,0.944153,0,0,-0.06,359.93,0,0,0,0,0,-0.0078125,-0.023622,2194.11,2223533
0.0355225,0.0270386,0.945435,0,-0.001,-0.06,359.93,0,0,0,0,0,-0.0078125,-0.023622,2194.13,2223563
0.0361938,0.0282593,0.942688,0,0,-0.07,359.92,0,0,0,0,0,-0.0078125,-0.023622,2194.15,2223578
0.0352783,0.0328979,0.944092,0,0.003,-0.07,359.92,0,0,0,0,0,-0.0078125,-0.023622,2194.17,2223593
0.0352783,0.031311,0.954102,-0.001,0.002,-0.07,359.92,0,0,0,0,0,-0.0078125,-0.023622,2194.19,2223608
0.0341187,0.0306396,0.955139,-0.002,0.001,-0.07,359.92,0,0,0,0,0,-0.0078125,-0.023622,2194.21,2223638
0.0390625,0.0280762,0.941101,0.003,0,-0.07,359.92,0,0,0,0,0,-0.0078125,-0.023622,2194.23,2223653
0.0413208,0.0258789,0.941895,0.005,-0.002,-0.07,359.92,0,0,0,0,0,-0.0078125,-0.023622,2194.25,2223683
0.0351562,0.0308228,0.956116,-0.001,0.001,-0.07,359.92,0,0,0,0,0,-0.0078125,-0.023622,2194.27,2223698
0.0343018,0.0261841,0.942444,-0.001,-0.002,-0.07,359.92,0,0,0,0,0,-0.0078125,-0.023622,2194.29,2223713
0.0356445,0.0287476,0.948059,0,0,-0.07,359.92,0,0,0,0,0,-0.0078125,-0.023622,2194.31,2223728
0.0390625,0.0302124,0.945984,0.003,0.001,-0.07,359.92,0,0,0,0,0,-0.0078125,-0.023622,2194.33,2223758
0.0369263,0.0309448,0.948914,0,0.001,-0.07,359.92,0,0,0,0,0,-0.0078125,-0.023622,2194.35,2223773
0.038147,0.0286255,0.947327,0.002,0,-0.07,359.92,0,0,0,0,0,-0.0078125,-0.023622,2194.37,2223788
0.0358887,0.0285034,0.944885,0,0,-0.06,359.93,0,0,0,0,0,-0.0078125,-0.023622,2194.39,2223818
0.0367432,0.0266724,0.946106,0,-0.002,-0.06,359.93,0,0,0,0,0,-0.0078125,-0.023622,2194.41,2223833
0.0373535,0.026062,0.954407,0,-0.003,-0.06,359.93,0,0,0,0,0,-0.0078125,-0.023622,2194.43,2223863
0.0377197,0.0263062,0.942322,0.001,-0.002,-0.06,359.93,0,0,0,0,0,-0.0078125,-0.023622,2194.45,2223878
0.0342407,0.0270386,0.947083,-0.001,-0.001,-0.06,359.93,0,0,0,0,0,-0.0078125,-0.023622,2194.47,2223893
0.0321655,0.0307007,0.954651,-0.004,0.001,-0.06,359.93,0,0,0,0,0,-0.0078125,-0.023622,2194.49,2223923
0.0403442,0.0296021,0.946716,0.004,0,-0.06,359.93,0,0,0,0,0,-0.0078125,-0.023622,2194.51,2223938
0.0374756,0.0316772,0.949158,0.001,0.002,-0.06,359.93,0,0,0,0,0,-0.0078125,-0.023622,2194.53,2223953
0.0349731,0.0296631,0.951904,-0.001,0,-0.06,359.93,0,0,0,0,0,-0.0078125,-0.023622,2194.55,2223983
0.0352173,0.02948,0.948181,0,0,-0.06,359.93,0,0,0,0,0,-0.0078125,-0.023622,2194.57,2223998
0.0343018,0.0290527,0.947815,-0.001,0,-0.06,359.93,0,0,0,0,0,-0.0078125,-0.023622,2194.6,2224028
0.0358887,0.0289917,0.942505,0,0,-0.06,359.93,0,0,0,0,0,-0.0078125,-0.023622,2194.61,2224043
0.0348511,0.0300293,0.958374,-0.001,0,-0.07,359.92,0,0,0,0,0,-0.0078125,-0.023622,2194.63,2224058
0.0389404,0.0264282,0.943054,0.002,-0.002,-0.07,359.92,0,0,0,0,0,-0.015625,-0.023622,2194.65,2224073
0.0324707,0.0306396,0.961365,-0.004,0.001,-0.07,359.92,0,0,0,0,0,-0.015625,-0.023622,2194.68,2224118
0.0371704,0.02771,0.940063,0.001,-0.001,-0.06,359.93,0,0,0,0,0,-0.015625,-0.023622,2194.7,2224133
0.0385742,0.0292358,0.947449,0.002,0,-0.06,359.93,0,0,0,0,0,-0.015625,-0.023622,2194.71,2224148
0.0385742,0.0292358,0.947449,0.002,0,-0.06,359.93,0,0,0,0,0,-0.015625,-0.023622,2194.73,2224148
0.0372314,0.0266724,0.954651,0,-0.002,-0.07,359.92,0,0,0,0,0,-0.015625,-0.023622,2194.75,2224178
0.034729,0.0253906,0.941284,-0.001,-0.003,-0.07,359.92,0,0,0,0,0,-0.015625,-0.023622,2194.77,2224193
0.034668,0.0303955,0.95343,-0.001,0.001,-0.07,359.92,0,0,0,0,0,-0.015625,-0.023622,2194.79,2224208
0.0351562,0.0285645,0.959229,-0.001,0,-0.07,359.92,0,0,0,0,0,-0.015625,-0.023622,2194.81,2224238
0.0380249,0.0286865,0.942627,0.002,0,-0.07,359.92,0,0,0,0,0,-0.015625,-0.023622,2194.83,2224253
0.0358276,0.0269775,0.948303,0,-0.002,-0.07,359.92,0,0,0,0,0,-0.015625,-0.023622,2194.85,2224283
0.0361328,0.0288696,0.953552,0,0,-0.07,359.92,0,0,0,0,0,-0.015625,-0.023622,2194.87,2224298
0.0353394,0.0250244,0.943115,0,-0.003,-0.07,359.92,0,0,0,0,0,-0.015625,-0.023622,2194.89,2224313
0.0393677,0.0252075,0.948975,0.003,-0.003,-0.07,359.92,0,0,0,0,0,-0.015625,-0.023622,2194.91,2224328
0.0349731,0.0291138,0.948608,-0.001,0,-0.07,359.92,0,0,0,0,0,0.0866142,-0.023622,2194.93,2224358
0.0333252,0.0307007,0.941528,-0.002,0.001,-0.07,359.92,0,0,0,0,0,0.110236,-0.023622,2194.95,2224373
0.036438,0.101135,0.956055,0,0.071,-0.07,359.92,0,4.57764e-05,0,-35.3457,0,0.133858,-0.023622,2194.97,2224403
-0.0249023,0.11145,1.00122,-0.063,0.079,-0.08,359.91,-3.05176e-05,0.000198364,0,-24.896,0,0.0708661,-0.023622,2194.99,2224418
0.0523682,0.0639038,0.934448,0.016,0.033,-0.09,359.9,-0.000106812,0.000427246,0,-26.8245,25.6094,0.00787402,-0.023622,2195.01,2224433
-0.00622559,0.0109253,0.949158,-0.042,-0.02,-0.08,359.91,-0.000198364,0.000915527,0,-26.8245,26.9302,-0.0078125,-0.023622,2195.03,2224463
0.0428467,-0.0289917,0.963013,0.006,-0.06,-0.06,359.93,-0.000274658,0.00109863,0,-11.6252,25.5169,-0.0078125,-0.023622,2195.05,2224478
0.0552368,-0.0521851,0.937683,0.019,-0.081,-0.07,359.92,-0.000274658,0.00117493,0,-11.6252,25.5169,-0.0390625,-0.023622,2195.07,2224493
0.0552979,0.003479,0.959839,0.018,-0.025,-0.08,359.91,-0.000274658,0.00111389,0,-11.6252,25.5169,-0.078125,-0.023622,2195.09,2224523
0.0509033,0.050415,0.963257,0.013,0.021,-0.07,359.92,-0.000274658,0.00105286,0,-11.6252,25.5169,-0.132812,-0.023622,2195.11,2224537
0.0352783,-0.0251465,0.927368,0,-0.052,-0.07,359.92,-0.000274658,0.000961304,0,-11.6252,25.5169,-0.15625,-0.023622,2195.13,2224552
0.0518188,0.0222168,0.921265,0.016,-0.004,-0.08,359.91,-0.000274658,0.000656128,0,0,3.8291,-0.179688,-0.023622,2195.15,2224583
0.108215,0.0245972,1.01294,0.069,-0.005,-0.08,359.91,-0.000213623,0.000656128,0,115.407,0,-0.179688,-0.023622,2195.17,2224598
-0.0435791,-0.0795898,0.951843,-0.079,-0.107,-0.07,359.92,-0.000152588,0.000579834,0,103.42,-20.7772,-0.179688,-0.023622,2195.19,2224612
0.0403442,-0.0377197,0.985229,0.003,-0.063,-0.04,359.95,-6.10352e-05,-3.05176e-05,0,78.5799,-35.5928,-0.09375,-0.023622,2195.21,2224643
0.0206909,0.0511475,0.893982,-0.013,0.027,-0.03,359.96,0,-0.000442505,0,54.0599,-34.475,-0.03125,-0.023622,2195.23,2224657
0.0792236,0.0768433,0.9151,0.043,0.052,-0.02,359.97,0.000335693,-0.00108337,0,37.1872,-58.128,-0.0078125,-0.023622,2195.26,2224687
-0.0513916,0.108948,0.973083,-0.089,0.081,-0.04,359.95,0.000534058,-0.00128174,0,37.1872,-58.128,-0.0078125,-0.023622,2195.27,2224703
0.0244751,0.0811768,0.882874,-0.009,0.055,-0.05,359.94,0.000671387,-0.00138855,0,37.1872,-38.5834,0,0.0546875,2195.29,2224717
0.057373,0.0129395,0.907471,0.022,-0.013,-0.05,359.94,0.00100708,-0.0014801,0,37.1872,-24.2616,0.015748,0.21875,2195.31,2224747
-0.00238037,0.0889893,0.959656,-0.039,0.06,-0.05,359.94,0.00117493,-0.00149536,0,37.1872,-24.2616,0.0944882,0.421875,2195.33,2224763
0.0639648,0.0767212,0.89032,0.029,0.05,-0.05,359.94,0.00135803,-0.00141907,0,8.71251,-142.629,0.19685,0.742188,2195.35,2224777
0.106873,0.0542603,1.02728,0.067,0.022,-0.05,359.94,0.00158691,-0.00131226,0,7.39079,-315.09,0.385827,0.898438,2195.37,2224792
0.250549,-0.457703,0.941833,0.213,-0.477,-0.2,359.79,0.00263977,-0.00248718,0,-184.276,-417.467,0.503937,1,2195.39,2224823
0.539185,-0.141418,0.757812,0.506,-0.151,-0.37,359.62,0.00378418,-0.00384521,0,-149.591,-513.334,0.669291,1,2195.41,2224837
0.404724,-0.336548,1.46021,0.335,-0.353,-0.67,359.32,0.00549316,-0.0055542,0,-237.959,-664.187,0.787402,1,2195.43,2224852
0.422302,-0.0144043,1.17645,0.355,-0.015,-1.62,358.37,0.0105133,-0.00984192,0,-292.697,-603.409,0.850394,1,2195.45,2224883
0.574524,-0.329895,0.857483,0.531,-0.314,-2.24,357.75,0.0139008,-0.0122681,0,-420.654,-651.572,0.874016,1,2195.47,2224897
0.475708,-0.198486,1.15875,0.407,-0.181,-2.96,357.03,0.0179138,-0.0150452,0,-483.781,-488.484,0.92126,1,2195.49,2224912
0.177246,-0.127991,0.985352,0.112,-0.117,-4.6,355.39,0.0272827,-0.0211334,0,-645.161,-868.998,0.952756,1,2195.51,2224943
0.589722,-0.0535278,0.821472,0.527,0,-5.49,354.5,0.032547,-0.0243225,0,-643.998,-613.44,0.952756,1,2195.53,2224957
0.355957,0.0465698,1.00421,0.265,0.081,-6.46,353.53,0.0383606,-0.0274658,0,-806.257,-861.215,1,1,2195.55,2224972
0.303284,0.19635,0.799744,0.2,0.233,-8.57,351.42,0.0507507,-0.033371,0,-743.356,-851.716,1,1,2195.57,2225003
0.388794,0.0174561,1.08081,0.284,0.072,-9.72,350.27,0.0574036,-0.036026,0,-846.74,-610.258,1,1,2195.59,2225017
0.217346,0.0345459,0.96637,0.119,0.064,-10.92,349.07,0.0643158,-0.0385895,0,-746.854,-920.938,1,1,2195.61,2225032
0.193542,0.0456543,0.701416,0.112,0.078,-13.43,346.56,0.0787201,-0.0432587,0,-856.568,-922.807,1,1,2195.63,2225063
0.265747,0.139832,0.970581,0.128,0.185,-14.73,345.26,0.0861816,-0.0453339,0,-885.544,-930.536,1,1,2195.65,2225077
0.291199,0.152588,1.18872,0.122,0.202,-16.06,343.93,0.0938263,-0.0471497,0,-824.368,-886.957,1,1,2195.67,2225092
0.237732,0.0975952,0.752197,0.122,0.146,-17.41,342.58,0.101624,-0.0487213,0,-861.326,-896.58,1,1,2195.69,2225107
0.0108032,0.131165,0.147034,-0.049,0.122,-20.19,339.8,0.11731,-0.0512543,0,-837.311,-921.914,1,1,2195.71,2225137
0.0985718,0.203064,1.2149,-0.105,0.187,-21.6,338.39,0.125031,-0.0522003,0,-823.689,-924.385,1,1,2195.73,2225152
0.343079,0.142822,0.647095,0.186,0.247,-24.5,335.49,0.140762,-0.0534668,0,-945.716,-861.141,1,1,2195.75,2225183
0.16571,0.177673,1.1535,-0.044,0.186,-25.97,334.02,0.148849,-0.0536957,0,-811.589,-1062.19,1,1,2195.77,2225197
0.294556,0.212463,0.305908,0.131,0.31,-27.46,332.53,0.156982,-0.0535736,0,-865.838,-912.034,1,1,2195.79,2225212
0.0496216,0.188599,0.34906,-0.087,0.17,-30.51,329.48,0.172653,-0.0526123,0,-923.063,-1109.32,1,1,2195.81,2225242
-0.0845947,0.0727539,1.23682,-0.231,-0.047,-32.09,327.9,0.18013,-0.0519562,0,-978.713,-1106.38,1,1,2195.83,2225257
0.0808716,0.152771,0.595459,-0.074,0.139,-33.67,326.32,0.187393,-0.051239,0,-953.243,-907.318,1,1,2195.85,2225272
0.432739,0.134949,1.17487,0.153,0.294,-36.86,323.13,0.202164,-0.0488892,0,-1019.06,-1131.16,0.622047,1,2195.87,2225302
0.296448,0.357666,1.67627,-0.16,0.352,-40.13,319.86,0.21701,-0.0454559,0,-781.219,-1105.83,0.244094,1,2195.91,2225332
0.296448,0.357666,1.67627,-0.16,0.352,-40.13,319.86,0.21701,-0.0454559,0,-790.576,-1289.66,0.244094,1,2195.91,2225332
0.154114,0.102295,0.710754,-0.024,0.128,-43.43,316.56,0.231552,-0.0409698,0,-534.888,-984.107,-0.0078125,1,2195.93,2225362
0.272827,0.104187,0.791748,0.044,0.206,-45.09,314.9,0.238846,-0.0384216,0,-341.618,-1234.19,-0.273438,1,2195.95,2225377
0.109863,0.010376,1.31506,-0.054,-0.015,-46.74,313.25,0.246124,-0.0357361,0,-109.434,-1176.68,-0.4375,1,2195.97,2225392
0.139587,-0.0605469,1.23218,0.023,-0.032,-49.9,310.09,0.260574,-0.0301666,0,123.496,-950.751,-0.539062,1,2195.99,2225422
-0.0613403,-0.275024,0.695374,0.112,-0.276,-51.37,308.62,0.267899,-0.0275421,0,406.43,-994.036,-0.578125,1,2196.01,2225437
0.0137329,0.0010376,1.45032,-0.122,-0.102,-52.73,307.26,0.275208,-0.0251923,0,438.779,-1088.61,-0.585938,1,2196.03,2225452
-0.203613,-0.319397,0.832581,0.07,-0.411,-55.18,304.81,0.289902,-0.0214081,0,428.752,-1164.42,-0.484375,1,2196.05,2225482
-0.22583,-0.310974,0.827515,0.058,-0.417,-56.27,303.72,0.297394,-0.0202942,0,534.531,-1177.79,-0.289062,1,2196.07,2225497
-0.053894,-0.322144,1.00488,0.15,-0.285,-57.3,302.69,0.305023,-0.0196686,0,492.756,-1185.26,-0.109375,1,2196.09,2225512
-0.0266113,-0.0824585,0.584229,0.007,-0.097,-60.11,299.88,0.3284,-0.0202637,0,390.145,-1296.09,-0.03125,1,2196.12,2225557
-0.0266113,-0.0824585,0.584229,0.007,-0.097,-60.11,299.88,0.3284,-0.0202637,0,330.355,-1268.55,-0.03125,1,2196.13,2225557
0.204224,-0.135986,1.25818,0.107,0.039,-60.97,299.02,0.336243,-0.0209045,0,425.777,-1288.58,-0.0078125,1,2196.15,2225572
0.00805664,0.0820923,0.868469,-0.14,-0.004,-62.68,297.31,0.351822,-0.0221252,0,502.828,-1162.93,-0.0078125,1,2196.17,2225602
0.175354,0.00811768,0.734558,0.01,0.117,-63.54,296.45,0.359451,-0.0226593,0,605.309,-1387.25,-0.0078125,1,2196.19,2225617
0.0906982,-0.043396,1.2619,-0.022,-0.01,-64.38,295.61,0.367065,-0.0231018,0,609.255,-1133.92,-0.132812,1,2196.21,2225632
0.220886,-0.0317383,0.623657,0.068,0.151,-65.99,294,0.382339,-0.0240631,0,517.545,-1338.33,-0.484375,1,2196.23,2225662
-0.181152,0.0611572,1.43494,-0.237,-0.223,-66.73,293.26,0.389877,-0.0245667,0,596.997,-1123.03,-0.734375,1,2196.25,2225677
-0.0581665,0.0374756,0.911438,-0.126,-0.089,-67.44,292.55,0.397171,-0.0252838,0,833.854,-1225.79,-0.976562,1,2196.27,2225692
-0.0623779,-0.0957031,0.837402,0.003,-0.139,-68.78,291.21,0.411331,-0.0268555,0,852.261,-1154,-1,1,2196.29,2225722
-0.140991,-0.192627,0.853088,0.066,-0.246,-69.35,290.64,0.418411,-0.0279541,0,1055.63,-1267.19,-1,1,2196.31,2225737
-0.369934,-0.184448,1.10382,-0.038,-0.467,-69.87,290.12,0.425522,-0.0295258,0,1094.15,-1254.71,-1,1,2196.33,2225752
-0.135742,-0.383667,1.09363,0.232,-0.302,-70.55,289.44,0.440186,-0.0345764,0,1123.22,-1252.35,-1,1,2196.35,2225782
-0.39856,-0.140625,0.486511,-0.036,-0.441,-70.78,289.21,0.447784,-0.0379028,0,1155.6,-1424.81,-1,1,2196.37,2225797
0.128235,0.00927734,0.98584,-0.043,0.09,-70.94,289.05,0.455338,-0.0414581,0,1315.27,-1223.39,-1,1,2196.39,2225812
-0.319458,0.0428467,1.95123,-0.293,-0.341,-71.14,288.85,0.47049,-0.0491638,0,1371.65,-1400.46,-1,1,2196.41,2225842
0.0875244,-0.259094,0.530151,0.231,-0.014,-71.16,288.83,0.477966,-0.0534668,0,1352.45,-1466.6,-1,1,2196.43,2225857
0.0424805,-0.0812988,0.366272,0.061,0.005,-71.16,288.83,0.485641,-0.0577545,0,1370.14,-1551.59,-1,1,2196.45,2225872
0.38623,-0.169434,0.980713,0.206,0.289,-71.13,288.86,0.501343,-0.0666656,0,1310.7,-1468.11,-1,1,2196.47,2225902
0.120667,-0.109192,0.346008,0.114,0.071,-71.13,288.86,0.509491,-0.0708466,0,1419.35,-1061.46,-1,1,2196.49,2225917
0.0944214,-0.0175781,0.882507,-0.023,0.066,-71.13,288.86,0.517715,-0.0749512,0,1372.78,-1487.54,-1,1,2196.51,2225932
-0.00604248,-0.212708,0.0709839,0.192,-0.076,-71.1,288.89,0.534454,-0.0827637,0,1311.82,-1257.78,-1,1,2196.53,2225962
0.169556,-0.236694,0.14386,0.266,0.08,-71.07,288.92,0.551453,-0.0906067,0,1304.8,-1545.71,-1,1,2196.56,2225992
-0.0108643,-0.00787354,1.99994,-0.16,-0.053,-71.06,288.93,0.560043,-0.0944824,0,1342.73,-1410.24,-1,1,2196.57,2226007
-0.127502,-0.146729,0.675537,0.041,-0.181,-71.04,288.95,0.568558,-0.0985107,0,1493.65,-1582.53,-1,1,2196.59,2226022
0.15741,-0.302246,0.879578,0.263,0.032,-71.03,288.96,0.577271,-0.102646,0,1477,-1574.43,-1,1,2196.61,2226037
0.0817261,0.00585938,1.99994,-0.139,0.043,-70.98,289.01,0.586075,-0.106735,0,1520.57,-1608.88,-1,1,2196.63,2226052
-0.244385,-0.211914,1.24023,0.018,-0.325,-70.97,289.02,0.594788,-0.115311,0,1461.56,-1537.04,-1,1,2196.65,2226082
-0.406799,0.287659,1.99994,-0.567,-0.327,-70.96,289.03,0.594406,-0.120193,0,1450.75,-1382.17,-1,1,2196.67,2226097
0.254944,-0.285034,-0.914124,0.428,0.166,-70.96,289.03,0.593948,-0.125198,0,1588.69,-1291.24,-1,1,2196.69,2226112
0.348633,0.149658,1.99994,-0.189,0.338,-70.92,289.07,0.592758,-0.135208,0,1405.48,-1765.69,-1,1,2196.71,2226142
0.191833,-0.00939941,0.296204,0.047,0.171,-70.88,289.11,0.591888,-0.139832,0,1458.26,-1610.44,-1,1,2196.73,2226157
-0.10614,-0.118225,1.32013,-0.029,-0.169,-70.86,289.13,0.591019,-0.144455,0,1474.93,-1718.66,-1,1,2196.75,2226172
0.0708618,-0.222473,0.0148926,0.231,-0.007,-70.76,289.23,0.589127,-0.154312,0,1538.11,-1815.54,-1,1,2196.77,2226202
-0.293457,0.132874,0.499817,-0.259,-0.241,-70.68,289.31,0.588196,-0.159485,0,1601.92,-1598.85,-1,1,2196.79,2226217
0.332031,-0.151306,1.08551,0.17,0.243,-70.62,289.37,0.587189,-0.164658,0,1557.88,-1574.8,-1,1,2196.81,2226231
0.122925,0.0814209,0.697693,-0.088,0.131,-70.57,289.42,0.585281,-0.174286,0,1649.76,-1315.7,-1,1,2196.83,2226262
-0.378357,0.0371704,1.99994,-0.311,-0.374,-70.55,289.44,0.584015,-0.179169,0,1546.31,-1893.76,-1,1,2196.85,2226276
-0.423584,-0.251648,-1.3244,0.2,-0.46,-70.56,289.43,0.582657,-0.184631,0,1576.29,-1585.54,-1,1,2196.87,2226291
0.264404,0.281128,1.69751,-0.301,0.317,-70.54,289.45,0.579102,-0.195633,0,1546.43,-1681.52,-1,0.859375,2196.89,2226322
0.22345,0.0317993,0.102295,0.036,0.219,-70.54,289.45,0.576889,-0.200607,0,1608.23,-1526.48,-1,0.664062,2196.91,2226336
-0.150024,-0.0951538,1.96008,-0.101,-0.199,-70.5,289.49,0.574631,-0.205566,0,1713.65,-1568.26,-1,0.320312,2196.93,2226351
-0.00683594,0.101318,0.151428,-0.108,0.025,-70.42,289.57,0.570175,-0.215286,0,1651.53,-1306.42,-0.90625,0.132812,2196.95,2226382
0.123779,0.194702,1.50439,-0.24,0.159,-70.33,289.66,0.567734,-0.219925,0,1632.12,-972.195,-0.59375,0.0078125,2196.97,2226396
-0.183228,0.528198,0.542603,-0.592,-0.001,-70.21,289.78,0.564713,-0.224457,0,1471.35,-1322.58,-0.226562,0.0078125,2196.99,2226411
0.267456,0.00756836,0.101929,0.081,0.251,-69.49,290.5,0.552124,-0.237869,0,1086.6,-1536.57,-0.0625,0.0078125,2197.03,2226456
-0.334534,0.515015,1.32794,-0.656,-0.163,-69.19,290.8,0.542114,-0.245102,0,827.883,-1567.03,-0.0078125,0.0078125,2197.06,2226486
0.215942,0.170288,0.367981,-0.097,0.251,-69.21,290.78,0.536331,-0.248474,0,787.588,-1434.72,-0.0078125,0.0078125,2197.07,2226502
0.297485,0.448303,1.80676,-0.377,0.382,-69.28,290.71,0.530228,-0.251419,0,791.609,-1305.06,-0.0078125,0.0078125,2197.09,2226516
0.198669,0.176575,0.288208,-0.105,0.237,-69.41,290.58,0.523788,-0.253937,0,1035.41,-1422.17,-0.0078125,0.0078125,2197.11,2226531
-0.0383911,0.30072,1.26044,-0.328,0.021,-69.67,290.32,0.509613,-0.258514,0,1044.44,-1218.47,-0.0078125,0.0078125,2197.13,2226562
0.0186768,0.159363,0.310181,-0.15,0.061,-69.77,290.22,0.501938,-0.260712,0,1154.27,-1247.58,-0.0078125,0.0078125,2197.15,2226576
-0.180298,0.153076,1.01855,-0.228,-0.153,-69.84,290.15,0.493988,-0.262985,0,1105.77,-1107.54,-0.0078125,0.0078125,2197.17,2226591
-0.0819092,0.0866089,1.02637,-0.129,-0.082,-69.86,290.13,0.477493,-0.268143,0,987.752,-1199.83,-0.0078125,0.0078125,2197.19,2226622
0.0865479,0.0889282,0.464111,-0.062,0.095,-69.85,290.14,0.46904,-0.270798,0,1103.69,-1110.12,-0.0078125,0.0078125,2197.21,2226636
-0.184082,0.209473,0.908203,-0.274,-0.132,-69.84,290.15,0.460358,-0.273499,0,1101.02,-667.557,-0.0078125,0.0078125,2197.23,2226651
0.0819092,0.158813,0.967224,-0.133,0.097,-69.78,290.21,0.442444,-0.2789,0,1028.33,-1125.94,-0.0078125,0.0078125,2197.25,2226682
-0.174133,0.213989,1.01855,-0.273,-0.125,-69.74,290.25,0.433151,-0.28157,0,953.925,-957.258,-0.0078125,0.0078125,2197.27,2226696
-0.0393677,0.130859,0.429504,-0.14,-0.006,-69.69,290.3,0.423569,-0.284332,0,892.937,-969.697,-0.0078125,0.0078125,2197.29,2226711
0.0272827,0.085083,0.495728,-0.073,0.037,-69.58,290.41,0.403732,-0.290039,0,959.877,-1091.7,-0.0078125,0.0078125,2197.31,2226742
-0.0123901,0.0737305,1.61047,-0.081,-0.046,-69.53,290.46,0.3936,-0.292908,0,991.572,-1023.65,-0.0078125,0.0078125,2197.33,2226756
0.152283,-0.0352173,0.850891,0.083,0.097,-69.5,290.49,0.383469,-0.295746,0,1005.88,-937.69,-0.0078125,0.0078125,2197.35,2226771
0.0435791,0.0612793,1.20453,-0.041,0.013,-69.45,290.54,0.36319,-0.301178,0,904.364,-969.227,-0.0078125,0.0078125,2197.37,2226802
0.107239,0.17926,1.14832,-0.129,0.117,-69.44,290.55,0.352905,-0.303772,0,970.214,-817.595,-0.0078125,0.0078125,2197.39,2226816
0.106445,0.104675,0.758423,-0.058,0.106,-69.43,290.56,0.33165,-0.308838,0,865.052,-995.768,-0.0078125,0.0078125,2197.42,2226846
-0.0461426,0.0579224,0.639343,-0.068,-0.049,-69.43,290.56,0.320847,-0.311295,0,903.751,-868.961,-0.0078125,0.0078125,2197.43,2226861
0.0405273,0.140564,1.21106,-0.11,0.038,-69.41,290.58,0.309937,-0.313766,0,807.428,-806.419,-0.0078125,0.0078125,2197.45,2226876
0.142761,0.0224609,1.02972,0.036,0.1,-69.38,290.61,0.29895,-0.316147,0,800.16,-743.577,-0.0078125,0.0078125,2197.47,2226891
0.185486,0.17395,0.886658,-0.09,0.198,-69.34,290.65,0.276611,-0.320786,0,820.244,-714.107,-0.0078125,0.0078125,2197.49,2226921
0.0178833,0.148499,0.777161,-0.126,0.035,-69.33,290.66,0.265213,-0.322891,0,762.951,-570.809,-0.0078125,0.0078125,2197.51,2226936
0.103943,0.110474,1.12518,-0.054,0.087,-69.32,290.67,0.253677,-0.324921,0,810.767,-939.805,-0.0078125,0.0078125,2197.53,2226951
0.0720215,0.149719,1.06512,-0.101,0.072,-69.27,290.72,0.230255,-0.328751,0,820.311,-874.279,-0.0078125,0.0078125,2197.55,2226981
0.0863647,0.0755615,0.862183,-0.029,0.068,-69.25,290.74,0.218384,-0.330536,0,836.4,-801.218,-0.0078125,0.0078125,2197.57,2226996
-0.0481567,0.0909424,0.864197,-0.09,-0.052,-69.24,290.75,0.206421,-0.332306,0,710.101,-891.464,-0.0078125,0.0078125,2197.59,2227011
0.18335,0.145508,1.02496,-0.055,0.174,-69.23,290.76,0.182175,-0.33577,0,840.336,-772.917,-0.0078125,0.0078125,2197.61,2227041
0.0300293,0.122681,0.996643,-0.088,0.023,-69.24,290.75,0.169891,-0.337311,0,845.737,-834.864,-0.0078125,0.0078125,2197.63,2227056
-0.00927734,0.0888672,0.87561,-0.072,-0.019,-69.24,290.75,0.157501,-0.338837,0,714.464,-697.983,-0.0078125,0.0078125,2197.65,2227071
0.0686646,0.145996,0.835632,-0.097,0.074,-69.24,290.75,0.132248,-0.341766,0,734.322,-557.678,-0.0078125,0.0078125,2197.67,2227101
-0.0148315,0.130188,0.80304,-0.111,-0.008,-69.24,290.75,0.1194,-0.343155,0,681.686,-666.956,-0.0078125,0.0078125,2197.69,2227116
0.0430298,0.0640259,1.08734,-0.022,0.007,-69.23,290.76,0.106461,-0.343155,0,731.529,-731.342,-0.0078125,0.0078125,2197.71,2227131
-0.102112,0.190125,1.00195,-0.192,-0.08,-69.23,290.76,0.0800781,-0.343216,0,693.77,-708.24,-0.0078125,0.0078125,2197.73,2227161
-0.072937,0.12793,0.701721,-0.129,-0.059,-69.21,290.78,0.0665436,-0.343384,0,696.04,-597.532,-0.0078125,0.0078125,2197.75,2227176
0.0586548,0.0584106,1.26898,-0.002,0.009,-69.2,290.79,0.0529175,-0.343582,0,585.806,-706.814,-0.0078125,0.0078125,2197.77,2227191
-0.0130615,0.130554,1.06519,-0.098,-0.022,-69.2,290.79,0.0254974,-0.343735,0,579.307,-610.612,-0.0078125,0.0078125,2197.79,2227221
0.143005,0.163879,0.84021,-0.078,0.147,-69.2,290.79,0.0116272,-0.343704,0,589.797,-589.154,-0.0078125,0.0078125,2197.81,2227236
-0.109314,0.20752,1.27527,-0.194,-0.095,-69.21,290.78,-0.00242615,-0.343628,0,556.127,-490.064,-0.0078125,0.0078125,2197.83,2227251
0.107117,0.165161,1.28217,-0.073,0.092,-69.21,290.78,-0.030777,-0.343155,0,570.044,-569.103,-0.0078125,0.0078125,2197.85,2227281
-0.0479736,0.12793,0.848328,-0.108,-0.044,-69.23,290.76,-0.045105,-0.342773,0,494.059,-500.475,-0.0078125,0.0078125,2197.87,2227296
-0.000244141,0.085022,0.825439,-0.051,-0.013,-69.23,290.76,-0.0595245,-0.342438,0,523.478,-398.7,-0.0078125,0.0078125,2197.89,2227311
0.0444336,0.154358,0.886841,-0.097,0.049,-69.26,290.73,-0.088623,-0.341797,0,493.657,-473.675,-0.0078125,0.0078125,2197.91,2227341
0.13208,0.123108,0.914062,-0.034,0.118,-69.27,290.72,-0.103317,-0.341354,0,490.93,-576.651,-0.0078125,0.0078125,2197.93,2227356
0.0393677,0.0859985,1.00848,-0.028,0.013,-69.27,290.72,-0.118057,-0.34082,0,449.065,-467.694,-0.0078125,0.0078125,2197.95,2227371
0.00115967,0.144287,0.92865,-0.098,0.002,-69.31,290.68,-0.147736,-0.33963,0,473.563,-458.022,-0.0078125,0.0078125,2197.97,2227401
0.0309448,0.120544,0.985657,-0.062,0.018,-69.3,290.69,-0.162735,-0.339005,0,408.388,-435.085,-0.0078125,0.0078125,2197.99,2227416
0.117615,0.116089,0.985107,-0.027,0.097,-69.29,290.7,-0.177795,-0.338303,0,419.754,-364.99,-0.0078125,0.0078125,2198.01,2227431
0.0380249,0.0646973,0.718323,-0.017,0.019,-69.31,290.68,-0.208008,-0.3367,0,401.647,-434.877,-0.0078125,0.0078125,2198.03,2227461
0.00946045,0.137756,1.04041,-0.081,0,-69.31,290.68,-0.223206,-0.3367,0,383.355,-342.05,-0.0078125,0.0078125,2198.05,2227476
0.0627441,0.0866699,1.02332,-0.015,0.033,-69.31,290.68,-0.23848,-0.336685,0,350.797,-384.504,0.0944882,-0.023622,2198.07,2227491
0.0397949,0.174805,0.953308,-0.107,0.046,-69.32,290.67,-0.26915,-0.336517,0,250.278,-380.88,0.354331,-0.307087,2198.09,2227521
0.17865,0.20929,1.01709,-0.086,0.184,-69.32,290.67,-0.284683,-0.336273,0,76.3481,-189.811,0.590551,-0.559055,2198.11,2227536
0.251648,0.357666,0.781921,-0.209,0.315,-69.34,290.65,-0.3004,-0.335663,0,0,-83.7184,0.874016,-0.80315,2198.13,2227551
0.203369,0.651428,0.838318,-0.487,0.363,-69.4,290.59,-0.333908,-0.333466,0,-249.513,238.194,0.968504,-0.968504,2198.15,2227581
0.0357056,0.738647,1.06165,-0.607,0.218,-69.43,290.56,-0.351807,-0.331787,0,-356.665,510.243,1,-1,2198.17,2227596
-0.00512695,0.609314,0.81604,-0.511,0.149,-69.46,290.53,-0.370483,-0.329849,0,-407.456,523.177,1,-1,2198.19,2227611
0.106812,0.713562,0.997375,-0.546,0.272,-69.57,290.42,-0.409729,-0.325333,0,-602.791,707.789,1,-1,2198.21,2227641
-0.323486,0.50061,0.758118,-0.513,-0.189,-69.62,290.37,-0.43042,-0.322876,0,-616.029,720.435,1,-1,2198.23,2227656
0.0269165,0.557129,0.953674,-0.423,0.142,-69.68,290.31,-0.451736,-0.32045,0,-578.352,934.842,1,-1,2198.25,2227671
0.70636,0.656433,0.94928,-0.271,0.807,-69.77,290.22,-0.495956,-0.31366,0,-573.954,906.208,1,-1,2198.27,2227701
0.0697021,0.668152,1.15198,-0.474,0.192,-69.82,290.17,-0.518799,-0.309097,0,-636.051,751.371,1,-1,2198.29,2227716
0.201294,0.68042,0.820129,-0.472,0.345,-69.84,290.15,-0.542282,-0.304169,0,-678.841,702.025,1,-1,2198.31,2227731
-0.0574341,0.488586,0.999573,-0.35,0.02,-69.84,290.15,-0.590729,-0.293579,0,-870.815,747.859,1,-1,2198.33,2227761
0.103882,0.416748,0.546936,-0.283,0.186,-69.83,290.16,-0.615601,-0.288101,0,-857.302,775.524,1,-1,2198.35,2227776
-0.310303,0.461548,1.3418,-0.36,-0.26,-69.83,290.16,-0.6409,-0.282669,0,-859.143,1021.55,0.929134,-1,2198.37,2227791
0.0777588,0.363098,0.532837,-0.239,0.144,-69.84,290.15,-0.692383,-0.271729,0,-894.935,1028.81,0.740157,-1,2198.39,2227821
-0.0213623,0.319458,0.951355,-0.174,-0.003,-69.85,290.14,-0.718521,-0.266052,0,-892.22,1026.54,0.23622,-1,2198.41,2227836
0.271484,0.325134,1.38031,-0.017,0.232,-69.86,290.13,-0.744781,-0.260239,0,-1008.22,1054.19,0.0472441,-1,2198.43,2227850
-0.163635,0.405396,1.82513,-0.178,-0.193,-69.83,290.16,-0.797333,-0.248383,0,-619.579,1143.25,-0.046875,-1,2198.46,2227881
-0.143372,-0.0245361,0.39386,0.027,-0.18,-69.73,290.26,-0.823746,-0.242783,0,-539.651,1066.15,-0.210938,-1,2198.47,2227895
-0.227905,0.0760498,1.09039,0.001,-0.289,-69.56,290.43,-0.850143,-0.237503,0,-535.088,1370.8,-0.53125,-1,2198.49,2227910
-0.609436,0.0759888,1.25024,-0.117,-0.652,-68.98,291.01,-0.902344,-0.227844,0,-202.362,1240.77,-0.734375,-1,2198.52,2227941
-0.264954,-0.22876,0.288635,0.153,-0.351,-68.56,291.43,-0.92836,-0.223938,0,-126.118,995.57,-0.890625,-1,2198.53,2227955
-0.494995,-0.334839,0.904297,0.244,-0.648,-68.04,291.95,-0.954086,-0.220703,0,145.543,1237.62,-1,-1,2198.55,2227970
-0.402466,-0.234009,0.684875,0.142,-0.504,-66.78,293.21,-1.00443,-0.216293,0,292.65,1103.02,-1,-1,2198.57,2228001
-0.221802,-0.351196,0.762695,0.323,-0.386,-66,293.99,-1.02911,-0.214996,0,410.029,1169.45,-1,-1,2198.59,2228015
-0.0130005,-0.239258,1.01416,0.332,-0.166,-65.13,294.86,-1.05334,-0.214096,0,539.098,1191.04,-1,-1,2198.61,2228030
-0.0693359,-0.317932,0.674622,0.328,-0.234,-63.23,296.76,-1.10069,-0.213211,0,533.333,1097.69,-1,-1,2198.63,2228061
-0.128784,-0.18219,0.783936,0.188,-0.23,-62.14,297.85,-1.12383,-0.213257,0,579.693,975.753,-1,-1,2198.65,2228075
-0.226257,-0.193909,0.989685,0.168,-0.33,-60.94,299.05,-1.14671,-0.213684,0,561.183,994.777,-1,-1,2198.67,2228090
-0.251404,-0.103577,0.69281,0.03,-0.289,-58.42,301.57,-1.19188,-0.21579,0,644.538,1046.96,-1,-1,2198.69,2228121
-0.336487,-0.190552,0.899963,0.07,-0.411,-57.03,302.96,-1.21434,-0.217529,0,580.703,1060.95,-1,-1,2198.71,2228135
-0.0502319,-0.0178223,0.881958,0.074,-0.07,-54.07,305.92,-1.25877,-0.222107,0,707.764,925.712,-1,-1,2198.73,2228165
-0.367249,-0.106445,0.627747,-0.075,-0.367,-52.51,307.48,-1.28091,-0.224808,0,568.424,919.456,-1,-1,2198.75,2228181
-0.0969238,-0.0993652,1.5965,0.178,-0.163,-50.86,309.13,-1.30299,-0.227859,0,667.468,946.208,-1,-1,2198.77,2228195
-0.0258789,-0.0150757,0.946838,0.087,-0.038,-47.41,312.58,-1.34636,-0.234497,0,442.801,979.576,-1,-1,2198.79,2228225
-0.221008,-0.0178833,0.604797,-0.081,-0.175,-45.6,314.39,-1.36794,-0.238022,0,627.786,924.599,-1,-1,2198.81,2228241
-0.0695801,0.100952,1.33813,0.01,0.014,-43.73,316.26,-1.38956,-0.241653,0,729.501,1064.62,-1,-1,2198.83,2228255
-0.199707,0.220032,0.436462,-0.251,0.037,-39.92,320.07,-1.43311,-0.24852,0,980.392,1083.42,-1,-1,2198.85,2228285
-0.0339355,0.263367,0.79657,-0.097,0.194,-33.94,326.05,-1.49849,-0.257584,0,844.523,874.355,-1,-1,2198.9,2228330
-0.0339355,0.263367,0.79657,-0.097,0.194,-33.94,326.05,-1.49849,-0.257584,0,972.763,1008.83,-1,-1,2198.91,2228330
0.145569,0.0870972,0.641785,0.143,0.142,-29.82,330.17,-1.54126,-0.262222,0,893.296,917.053,-1,-1,2198.93,2228361
-0.0136108,0.345337,1.1062,-0.067,0.287,-27.72,332.27,-1.56244,-0.264099,0,950.751,966.137,-1,-1,2198.95,2228375
-0.0952759,0.0957031,0.285461,-0.1,0.041,-25.62,334.37,-1.58372,-0.265762,0,979.192,1019.84,-1,-1,2198.97,2228390
0.234192,0.359802,1.00098,0.176,0.406,-21.35,338.64,-1.6254,-0.268112,0,1066.15,1146.33,-1,-1,2198.99,2228421
0.0474243,0.180847,0.176575,0.001,0.183,-19.21,340.78,-1.64589,-0.268646,0,996.016,1098.66,-1,-1,2199.01,2228435
0.154846,0.267395,0.865295,0.157,0.281,-14.92,345.07,-1.68634,-0.268524,0,1057.87,852.697,-1,-1,2199.03,2228465
0.280029,0.0430908,0.124146,0.273,0.102,-12.78,347.21,-1.70616,-0.267975,0,1037.02,1087.02,-1,-1,2199.05,2228480
0.420044,0.443237,1.45428,0.454,0.478,-10.62,349.37,-1.72548,-0.267029,0,1144.75,1047.34,-1,-1,2199.07,2228495
0.0258179,0.376038,0.891296,0.068,0.35,-4.22,355.77,-1.78069,-0.261368,0,991.031,1039.02,-1,-1,2199.1,2228540
0.0258179,0.376038,0.891296,0.068,0.35,-4.22,355.77,-1.78069,-0.261368,0,967.071,902.894,-1,-1,2199.11,2228540
-0.265686,0.188904,0.683716,-0.218,0.157,-2.12,357.87,-1.79889,-0.258743,0,929.325,904.2,-1,-1,2199.13,2228555
0.0266113,0.27948,1.16595,0.123,0.236,2.01,2.01,-1.83507,-0.252441,0,1086.19,861.512,-1,-1,2199.15,2228585
-0.0671387,0.110229,1.02295,0.014,0.077,4.04,4.04,-1.85295,-0.248901,0,1065.36,833.194,-1,-0.834646,2199.17,2228600
0.149109,0.276428,0.642334,0.223,0.235,6.07,6.07,-1.87067,-0.245132,0,974.944,928.462,-1,-0.582677,2199.19,2228615
0.00891113,0.174316,0.4646,0.072,0.151,10.09,10.09,-1.90564,-0.236694,0,1073.88,802.858,-1,-0.0866142,2199.21,2228645
-0.0874023,0.232849,1.31824,0.058,0.191,12.09,12.09,-1.923,-0.232117,0,1110.99,462.396,-1,0.34375,2199.23,2228660
-0.0652466,0.153137,1.35577,0.07,0.106,14.09,14.09,-1.94026,-0.227325,0,1138.17,121.735,-1,0.742188,2199.25,2228675
0.074707,-0.0296631,0.685608,0.111,-0.077,16.05,16.05,-1.95741,-0.222519,0,1112.53,-21.701,-1,1,2199.27,2228690
0.167542,-0.244385,0.553772,0.112,-0.306,19.69,19.69,-1.99112,-0.213821,0,985.61,-595.699,-1,1,2199.29,2228720
0.346069,-0.799438,1.67603,0.14,-0.916,21.32,21.32,-2.00771,-0.210526,0,1051.03,-552.929,-1,1,2199.31,2228735
0.773438,-0.699158,0.134644,0.45,-0.945,22.75,22.75,-2.02388,-0.208481,0,1058.99,-571.772,-1,1,2199.33,2228750
0.644409,-0.45166,1.02319,0.443,-0.682,25.24,25.24,-2.05472,-0.207428,0,1206.64,-634.679,-1,1,2199.36,2228780
0.664001,-0.351379,0.918579,0.483,-0.602,26.3,26.3,-2.06926,-0.208206,0,1168.57,-764.848,-1,1,2199.37,2228795
0.455017,-0.243896,0.503174,0.315,-0.419,27.26,27.26,-2.08325,-0.209686,0,1192.75,-856.274,-1,1,2199.39,2228810
0.746521,-0.441589,0.939209,0.477,-0.726,28.93,28.93,-2.11018,-0.21463,0,1308.22,-1029.07,-1,1,2199.41,2228840
0.346741,-0.2229,0.980286,0.227,-0.335,29.57,29.57,-2.12297,-0.218231,0,1407.86,-963.252,-1,1,2199.43,2228855
0.486206,-0.218445,0.91095,0.341,-0.399,30.12,30.12,-2.13536,-0.222321,0,1113.34,-851.898,-1,1,2199.45,2228870
0.380798,-0.312927,1.63403,0.215,-0.392,30.98,30.98,-2.15923,-0.231995,0,1374.1,-1057.47,-1,1,2199.47,2228900
0.497009,-0.271423,0.669434,0.303,-0.457,31.27,31.27,-2.17067,-0.237656,0,1311.05,-1298.79,-1,1,2199.49,2228915
0.418457,-0.232483,1.05774,0.263,-0.36,31.52,31.52,-2.18175,-0.243866,0,1210.21,-1412.03,-1,1,2199.51,2228930
0.2677,-0.389587,0.84436,0.042,-0.42,31.82,31.82,-2.20316,-0.257935,0,1186.8,-1238.24,-1,1,2199.53,2228960
0.100647,-0.325073,1.12183,-0.058,-0.258,31.87,31.87,-2.21381,-0.265732,0,1226.09,-1240.46,-1,1,2199.55,2228975
0.0684204,-0.269165,0.668945,-0.067,-0.221,31.89,31.89,-2.22455,-0.273849,0,1474.17,-1422.48,-1,1,2199.57,2228990
-0.103516,-0.019104,1.49451,-0.059,0.135,31.86,31.86,-2.24611,-0.290314,0,1517.45,-1436.27,-1,1,2199.59,2229020
0.0859985,-0.16687,1.02716,0.011,-0.119,31.86,31.86,-2.25693,-0.298477,0,1378.64,-1674.9,-1,1,2199.61,2229035
0.277161,0.0682983,0.597229,0.287,-0.049,31.86,31.86,-2.26756,-0.306778,0,1302.68,-1380.45,-1,1,2199.63,2229050
0.19165,-0.12677,1.26099,0.125,-0.125,31.85,31.85,-2.28813,-0.323807,0,1358.23,-1410.14,-1,1,2199.65,2229080
0.237671,-0.0391235,0.82135,0.2,-0.104,31.86,31.86,-2.3083,-0.341202,0,1504.32,-1412.73,-1,1,2199.68,2229110
-0.219971,-0.130859,1.49658,-0.225,0.106,31.85,31.85,-2.31836,-0.349915,0,1526.6,-1759.79,-1,1,2199.69,2229125
0.0651245,-0.0562744,0.808411,0.044,-0.027,31.86,31.86,-2.32852,-0.358566,0,1391.98,-1404.79,-1,1,2199.71,2229140
0.00500488,-0.00543213,0.657532,0.016,0.037,31.86,31.86,-2.33865,-0.367218,0,1434.41,-1415.63,-1,0.78125,2199.73,2229155
-0.0938721,-0.0139771,0.0394897,-0.086,0.04,31.85,31.85,-2.35962,-0.383926,0,1654.94,-1201.2,-1,0.78125,2199.75,2229185
-0.302002,0.109375,0.613403,-0.185,0.293,31.85,31.85,-2.37042,-0.391953,0,1492.98,-1342.46,-1,0.414062,2199.77,2229200
0.222839,-0.0777588,1.52399,0.18,-0.087,31.85,31.85,-2.38124,-0.399826,0,1459.64,-1523.81,-1,0.0078125,2199.79,2229215
0.0377808,0.0762329,1.20514,0.098,0.121,31.88,31.88,-2.39186,-0.407684,0,1519.76,-1465.74,-1,0.0078125,2199.81,2229230
0.249146,0.63385,1.50732,0.578,0.499,31.89,31.89,-2.4131,-0.423172,0,1733.7,-1562.87,-1,0.0078125,2199.83,2229260
0.179932,0.19696,1.50122,0.287,0.156,31.99,31.99,-2.42303,-0.430344,0,1405.28,-1198.9,-1,0.0078125,2199.85,2229275
-0.235413,0.117371,1.75385,-0.107,0.321,32.21,32.21,-2.44292,-0.444595,0,1537.16,-1606.43,-1,0.0078125,2199.87,2229305
0.239746,-0.0700073,0.469116,0.172,-0.161,32.29,32.29,-2.45291,-0.451569,0,1485.22,-1322.14,-1,0.148438,2199.89,2229320
-0.0032959,0.197632,1.2663,0.121,0.239,32.36,32.36,-2.46271,-0.458481,0,1493.43,-1163.47,-1,0.484375,2199.91,2229335
0.0903931,0.083252,0.812683,0.132,0.065,32.42,32.42,-2.47232,-0.465179,0,1540,-1133.92,-1,0.726562,2199.93,2229350
-0.450745,0.4198,1.99994,-0.125,0.683,32.67,32.67,-2.49136,-0.477386,0,1404.1,-1368.93,-1,0.96875,2199.95,2229380
-0.325745,0.112,0.575562,-0.206,0.295,32.88,32.88,-2.50114,-0.482498,0,1450.01,-1350.62,-1,1,2199.97,2229395
-0.0927734,-0.113342,0.0228882,-0.139,-0.043,33.08,33.08,-2.51114,-0.487427,0,1421.67,-1387.73,-1,1,2199.99,2229425
0.438293,-0.243652,0.379211,0.237,-0.427,33.38,33.38,-2.53134,-0.497299,0,1471.67,-1558.48,-1,0.9375,2200.01,2229440
0.511047,-0.0809937,0.611511,0.39,-0.322,33.43,33.43,-2.54097,-0.502838,0,1406.27,-1614.99,-1,0.6875,2200.03,2229455
0.127808,0.118469,1.29883,0.188,0.089,33.45,33.45,-2.55931,-0.514282,0,1367.15,-1144.62,-1,0.453125,2200.05,2229485
-0.0670166,0.00543213,-0.171997,-0.055,0.032,33.43,33.43,-2.5683,-0.519897,0,1566.66,-1581.4,-1,0.140625,2200.07,2229500
0.0760498,0.0327148,0.62561,0.089,0.014,33.45,33.45,-2.57726,-0.525467,0,1538.46,-866.401,-1,0.015625,2200.09,2229514
-0.177185,0.446838,1.99994,0.126,0.554,33.5,33.5,-2.58606,-0.530655,0,1426.33,-1295.67,-1,0.015625,2200.11,2229529
-0.261292,0.793701,1.99994,0.255,0.878,33.77,33.77,-2.60442,-0.538681,0,1470.05,-1168.7,-1,0.164062,2200.13,2229560
0.123108,-0.254333,0.643799,-0.031,-0.258,33.97,33.97,-2.61353,-0.541809,0,1583.91,-978.617,-1,0.25,2200.15,2229574
-0.515991,0.257812,-0.046875,-0.282,0.501,34.15,34.15,-2.62286,-0.544769,0,1587.93,-929.411,-1,0.328125,2200.17,2229589
-0.570007,0.31427,1.74225,-0.27,0.626,34.65,34.65,-2.64171,-0.549347,0,1531.39,-945.984,-1,0.375,2200.19,2229620
0.119324,0.088501,0.687866,0.156,0.02,34.95,34.95,-2.65123,-0.550949,0,1510.8,-1215.51,-1,0.296875,2200.21,2229634
-0.195984,0.229858,1.47351,-0.008,0.321,35.65,35.65,-2.67,-0.552826,0,1420.66,-997.208,-1,0.195312,2200.23,2229664
-0.177368,0.0968628,0.583191,-0.079,0.19,35.99,35.99,-2.67944,-0.553131,0,1467.14,-945.224,-1,0.0625,2200.25,2229680
-0.125916,0.304688,1.0025,0.09,0.331,36.34,36.34,-2.68887,-0.553085,0,1437.81,-804.57,-1,0.0078125,2200.27,2229694
-0.187073,0.126526,1.11755,-0.063,0.223,36.7,36.7,-2.69829,-0.552658,0,1507.39,-757.719,-1,0.0078125,2200.29,2229709
0.0494385,0.264282,0.497192,0.205,0.181,37.53,37.53,-2.71756,-0.550476,0,1436.06,-922.807,-1,0.0078125,2200.31,2229740
0.09729,0.112122,0.596069,0.151,0.029,37.98,37.98,-2.72696,-0.549026,0,1181.89,-1072.44,-1,0.0078125,2200.33,2229754
-0.251221,-0.0730591,0.0230713,-0.241,0.1,38.75,38.75,-2.74548,-0.5457,0,1498.46,-1218.77,-1,0.0078125,2200.35,2229784
0.150024,0.0422974,1.8078,0.156,-0.055,39.08,39.08,-2.75485,-0.543915,0,1368.18,-1222.64,-1,0.0078125,2200.38,2229800
0.670471,-0.169983,0.914612,0.416,-0.551,39.37,39.37,-2.76382,-0.542542,0,1409.64,-1217.88,-1,0.0078125,2200.39,2229814
0.212708,0.251465,1.09668,0.33,0.062,39.64,39.64,-2.77229,-0.541504,0,1315.18,-1174.33,-1,0.0078125,2200.41,2229829
-0.103271,0.0202637,1.99994,-0.063,0.098,40.17,40.17,-2.78867,-0.5401,0,1196.32,-1117.63,-1,0.0078125,2200.43,2229860
0.168884,0.0139771,0.727173,0.139,-0.093,40.39,40.39,-2.79678,-0.539474,0,1257.78,-998.552,-1,0.0078125,2200.45,2229874
-0.225769,-0.116943,0.085144,-0.247,0.058,40.62,40.62,-2.80499,-0.538895,0,1369.58,-1152.6,-1,0.0078125,2200.47,2229889
0.149231,-0.177368,0.85144,-0.001,-0.226,41.05,41.05,-2.82118,-0.538315,0,1297.94,-1206.71,-1,0.0078125,2200.49,2229920
-0.252014,-0.0113525,1.14203,-0.193,0.167,41.22,41.22,-2.82932,-0.538223,0,1337.43,-1155.4,-1,0.0078125,2200.51,2229934
-0.0335083,-0.122925,1.34424,-0.104,-0.056,41.5,41.5,-2.84589,-0.538223,0,1454.12,-1173.92,-1,0.0078125,2200.53,2229964
-0.03125,0.00482178,1.01306,-0.018,0.035,41.61,41.61,-2.85428,-0.5383,0,1317.09,-1344.45,-1,0.125,2200.55,2229980
0.322571,-0.000488281,0.768982,0.241,-0.207,41.74,41.74,-2.86252,-0.538513,0,1411.33,-1053.57,-1,0.296875,2200.57,2229994
-0.766968,0.386169,0.691589,-0.31,0.807,42.01,42.01,-2.87959,-0.537857,0,1392.27,-1090.87,-1,0.617188,2200.59,2230024
-0.251282,0.0492554,0.774231,-0.151,0.208,42.25,42.25,-2.88867,-0.536438,0,1189.27,-1096.25,-1,0.804688,2200.61,2230040
0.000793457,0.0282593,0.961365,0.019,0.023,42.52,42.52,-2.89784,-0.534851,0,1386.58,-1246.81,-1,0.945312,2200.63,2230054
0.194397,-0.242432,0.370667,-0.022,-0.307,42.95,42.95,-2.9155,-0.53244,0,1245.41,-981.114,-1,0.992188,2200.65,2230084
0.340881,-0.0349121,0.816467,0.226,-0.25,43.09,43.09,-2.92407,-0.531815,0,1231.07,-1524.74,-1,1,2200.67,2230099
0.178467,0.155273,1.99994,0.238,0.013,43.19,43.19,-2.93234,-0.531342,0,1408.55,-1192.68,-1,1,2200.69,2230114
0.272827,-0.49884,-0.256592,-0.143,-0.554,43.22,43.22,-2.94054,-0.53125,0,1479.84,-1554.97,-1,1,2200.71,2230129
0.494324,-0.172119,1.99994,0.246,-0.42,43.21,43.21,-2.95677,-0.532181,0,1323.8,-1479.29,-1,1,2200.73,2230159
-0.176025,0.112305,1.29346,-0.046,0.231,43.21,43.21,-2.96463,-0.532928,0,1573.56,-1142.53,-1,1,2200.75,2230174
0.088562,-0.157349,0.78064,-0.04,-0.155,43.28,43.28,-2.98009,-0.535141,0,1320.31,-1330.05,-1,1,2200.77,2230204
1.77991,-0.078186,1.99994,1.251,-1.227,43.31,43.31,-2.98694,-0.537399,0,1468.64,-1422.68,-1,1,2200.79,2230219
0.83075,-0.35553,0.384155,0.36,-0.814,43.38,43.38,-2.99803,-0.544006,0,1389.08,-1428.16,-1,1,2200.82,2230249
0.441895,0.209106,1.99994,0.477,-0.101,43.43,43.43,-3.00278,-0.548172,0,1485.99,-1384.18,-1,1,2200.84,2230264
-0.188782,-0.015686,-1.01123,-0.153,0.081,43.45,43.45,-3.00729,-0.552368,0,1406.87,-1767.72,-1,1,2200.85,2230279
-0.160522,-0.172913,0.550354,-0.232,0.004,43.46,43.46,-3.01207,-0.556503,0,1650.57,-1468.97,-1,1,2200.87,2230294
0.127869,-0.0513916,0.781677,0.063,-0.095,43.44,43.44,-3.02184,-0.565094,0,1533.39,-1618.25,-1,1,2200.89,2230324
0.305176,0.233032,0.237244,0.383,-0.031,43.44,43.44,-3.02637,-0.569565,0,1533.86,-1356.21,-1,1,2200.91,2230339
0.299377,-0.152466,1.99994,0.127,-0.238,43.46,43.46,-3.03056,-0.574219,0,1498.35,-1434.93,-1,1,2200.93,2230354
-0.11261,-0.1521,0.449585,-0.182,-0.013,43.46,43.46,-3.03479,-0.579041,0,1376.94,-1584.53,-1,1,2200.95,2230369
-0.320068,-0.041687,1.22034,-0.249,0.241,43.48,43.48,-3.04297,-0.58876,0,1472.43,-1590.58,-1,1,2200.97,2230399
-0.142517,-0.107727,1.0473,-0.167,0.065,43.47,43.47,-3.04732,-0.593369,0,1497.57,-1643.52,-1,1,2200.99,2230414
-0.0386963,-0.022583,1.17438,-0.035,0.061,43.48,43.48,-3.05623,-0.60231,0,1479.07,-1685.06,-1,1,2201.01,2230444
0.255371,0.0359497,1.13763,0.219,-0.101,43.49,43.49,-3.06056,-0.606766,0,1515.73,-1738.07,-1,1,2201.03,2230459
0.221497,0.0476685,0.906311,0.199,-0.079,43.51,43.51,-3.06462,-0.611343,0,1588.94,-1501.28,-1,1,2201.05,2230474
-0.0723877,-0.0948486,0.122559,-0.117,-0.013,43.55,43.55,-3.07246,-0.615997,0,1679.54,-1514.92,-1,1,2201.07,2230504
-0.255493,0.0784302,1.32605,-0.123,0.289,43.57,43.57,-3.07657,-0.615799,0,1663.62,-1144.62,-1,1,2201.09,2230519
-0.0789185,-0.0447998,1.3515,-0.081,0.078,43.6,43.6,-3.08083,-0.615372,0,1691.19,-1640.55,-1,1,2201.11,2230534
0.58551,0.145752,0.972351,0.53,-0.255,43.61,43.61,-3.08476,-0.615051,0,1632.25,-1761.65,-1,1,2201.13,2230549
-0.489075,-0.0905151,1.99994,-0.408,0.352,43.63,43.63,-3.09225,-0.614304,0,1542.61,-1624.56,-1,1,2201.15,2230579
-0.314575,-0.134766,0.0586548,-0.32,0.122,43.62,43.62,-3.09665,-0.613449,0,1492.09,-1700.68,-1,1,2201.17,2230594
0.165466,-0.366089,1.05658,-0.129,-0.336,43.58,43.58,-3.10542,-0.611588,0,1602.95,-2113.05,-1,1,2201.19,2230624
0.215942,0.00256348,0.191956,0.159,-0.138,43.52,43.52,-3.10974,-0.611069,0,1756.08,-1716.44,-1,1,2201.21,2230639
0.51947,-0.164001,0.990295,0.267,-0.434,43.47,43.47,-3.11377,-0.610931,0,1459.53,-1344.72,-1,1,2201.23,2230654
-0.0699463,-0.391479,-0.277588,-0.32,-0.247,43.48,43.48,-3.12083,-0.610931,0,1722.21,-1223.47,-1,1,2201.25,2230684
0.00805664,0.544128,1.99994,0.388,0.465,43.47,43.47,-3.12428,-0.610779,0,1671.4,-1803.1,-1,1,2201.27,2230699
-0.439392,-0.116577,-0.560059,-0.4,0.194,43.5,43.5,-3.12773,-0.610184,0,1534.1,-1684.35,-1,1,2201.29,2230714
0.337585,-0.0767822,0.981201,0.194,-0.253,43.54,43.54,-3.1353,-0.608337,0,1591.98,-1639.75,-1,1,2201.31,2230744
-0.136841,0.120239,-0.841309,-0.018,0.148,43.54,43.54,-3.13895,-0.607498,0,1721.91,-1763.82,-1,1,2201.33,2230759
0.322571,-0.152954,0.539734,0.129,-0.31,43.57,43.57,-3.14252,-0.60675,0,1672.1,-1689.62,-1,1,2201.35,2230774
0.417358,-0.334656,-0.428711,0.07,-0.546,43.61,43.61,-3.14996,-0.60527,0,1707.8,-1770.38,-1,1,2201.37,2230804
-0.0783081,0.0457153,0.567932,-0.022,0.108,43.61,43.61,-3.15372,-0.604874,0,1844.17,-1665.83,-1,1,2201.39,2230819
0.154663,-0.0403442,1.10669,0.087,-0.095,43.61,43.61,-3.15742,-0.604477,0,1645.28,-1839.25,-1,1,2201.41,2230834
-0.055481,-0.119873,-0.436768,-0.123,-0.065,43.63,43.63,-3.16116,-0.604187,0,1590.2,-1588.18,-1,1,2201.43,2230849
-0.00567627,-0.0238647,1.18677,-0.02,0.027,43.66,43.66,-3.16917,-0.603271,0,1734.15,-1596.81,-1,1,2201.45,2230879
0.286865,0.0150757,-0.0617676,0.217,-0.189,43.67,43.67,-3.1731,-0.602859,0,1854.94,-1660.03,-1,1,2201.47,2230894
-0.125854,-0.127747,0.499023,-0.179,0.011,43.68,43.68,-3.18134,-0.601334,0,1558.97,-1520.22,-1,1,2201.49,2230924
0.65863,-0.0480347,0.2948,0.442,-0.478,43.7,43.7,-3.18541,-0.600723,0,1744.14,-1542.5,-1,1,2201.51,2230939
0.0197144,0.0428467,1.49707,0.041,0.065,43.72,43.72,-3.18916,-0.600403,0,1716.44,-1619.83,-1,1,2201.53,2230954
-0.620728,0.0710449,1.99994,-0.409,0.55,43.72,43.72,-3.19685,-0.600174,0,1766,-1522.42,-1,1,2201.55,2230984
0.019104,-0.086731,0.266174,-0.047,-0.067,43.71,43.71,-3.20114,-0.599686,0,1700.97,-1880.41,-1,1,2201.57,2230999
-0.0827026,-0.0932617,-0.659668,-0.12,-0.032,43.71,43.71,-3.20554,-0.599274,0,1584.66,-1689.33,-1,1,2201.59,2231014
0.147644,0.669434,1.99994,0.563,0.434,43.71,43.71,-3.20964,-0.598587,0,1460.71,-1763.36,-1,1,2201.61,2231029
0.0844116,0.128174,1.35034,0.143,0.071,43.73,43.73,-3.21771,-0.596893,0,1670.84,-1686.63,-1,1,2201.63,2231059
0.301147,-0.0032959,0.862488,0.211,-0.188,43.74,43.74,-3.22157,-0.596161,0,1532.45,-1851.17,-1,1,2201.65,2231073
0.0280151,0.321716,1.99994,0.233,0.26,43.73,43.73,-3.23264,-0.593689,0,1678.7,-1426.13,-1,1,2201.69,2231119
-0.381653,-0.0985107,-0.297241,-0.342,0.184,43.72,43.72,-3.2363,-0.592468,0,1718.21,-1061.8,-1,1,2201.71,2231133
-0.270325,0.0237427,1.4776,-0.19,0.243,43.73,43.73,-3.24396,-0.589676,0,1685.63,-1703.43,-1,1,2201.73,2231163
0.0302124,-0.159912,0.454346,-0.091,-0.124,43.74,43.74,-3.248,-0.58812,0,1537.28,-1846.55,-1,0.765625,2201.75,2231179
0.0438232,0.0141602,1.04663,0.035,0.004,43.76,43.76,-3.25209,-0.586655,0,1772.42,-1759.01,-1,0.515625,2201.77,2231195
-0.0669556,0.0911255,0.769348,0.008,0.131,43.81,43.81,-3.26013,-0.583328,0,1787.95,-1609.66,-1,0.171875,2201.79,2231223
-0.282959,0.156433,1.99994,-0.11,0.35,43.86,43.86,-3.26421,-0.581238,0,1765.23,-1090.69,-1,0.0078125,2201.81,2231239
-0.428772,0.153625,-0.168701,-0.201,0.404,43.92,43.92,-3.26848,-0.578644,0,1587.05,-1317.96,-1,0.0078125,2201.83,2231253
-0.701111,0.156433,0.768616,-0.4,0.608,44.25,44.25,-3.27713,-0.572037,0,1815.87,-1106.62,-1,0.0078125,2201.85,2231283
0.0732422,0.122803,-0.270508,0.14,0.033,44.47,44.47,-3.28168,-0.568024,0,1691.19,-1639.08,-1,0.0078125,2201.87,2231299
-0.0441284,-0.019165,0.600891,-0.049,0.02,44.7,44.7,-3.28618,-0.563965,0,1594.39,-1608.88,-1,0.0078125,2201.89,2231313
-0.536499,-0.00109863,0.829163,-0.389,0.384,44.88,44.88,-3.29097,-0.559631,0,1762.43,-1459.85,-1,0.0078125,2201.91,2231328
-0.0662842,-0.0731812,0.791443,-0.105,0,45.16,45.16,-3.30089,-0.550613,0,1502.18,-1647.31,-1,0.0078125,2201.93,2231359
-0.0613403,0.0505981,1.30518,-0.021,0.087,45.27,45.27,-3.30594,-0.546082,0,1628.13,-1561.77,-1,0.0078125,2201.95,2231373
-0.182373,0.170959,1.11957,-0.017,0.259,45.43,45.43,-3.3156,-0.537476,0,1417.43,-1590.71,-1,0.0078125,2201.97,2231403
0.00195312,-0.00653076,1.32257,-0.018,0.005,45.5,45.5,-3.32037,-0.533035,0,1533.62,-1313.11,-1,0.0078125,2201.99,2231419
0.0560913,-0.0231323,1.24316,0.009,-0.048,45.57,45.57,-3.32037,-0.528625,0,1748.71,-1454.44,-1,0.0078125,2202.01,2231433
0.115845,0.0552368,0.700623,0.111,-0.038,45.7,45.7,-3.32043,-0.519608,0,1464.88,-1441.65,-1,0.0078125,2202.03,2231463
0.185974,0.178162,1.86414,0.234,0.005,45.79,45.79,-3.32022,-0.515091,0,1639.34,-1471.02,-1,0.0078125,2202.05,2231479
-0.0748901,0.0328369,0.952209,-0.041,0.085,45.88,45.88,-3.31989,-0.510498,0,1499.25,-1723.4,-1,0.0078125,2202.07,2231493
0.0583496,-0.174744,1.14014,-0.102,-0.154,46.04,46.04,-3.31873,-0.50145,0,1467.89,-1563.23,-1,0.0078125,2202.09,2231523
-0.117371,0.131897,0.811035,0.001,0.183,46.12,46.12,-3.31816,-0.496979,0,1757.93,-1295.84,-1,0.0078125,2202.12,2231539
0.081604,0.053833,0.722717,0.085,-0.015,46.34,46.34,-3.31586,-0.483612,0,1586.8,-1438.85,-1,0.0078125,2202.16,2231583
0.081604,0.053833,0.722717,0.085,-0.015,46.34,46.34,-3.31586,-0.483612,0,1555.94,-1750.39,-1,0.0078125,2202.16,2231583
-0.12384,0.0817871,1.04303,-0.042,0.157,46.42,46.42,-3.31491,-0.479126,0,1677.01,-1535.86,-1,0.0078125,2202.17,2231599
0.191284,0.015625,1.64679,0.119,-0.116,46.48,46.48,-3.31392,-0.474625,0,1608.88,-1424.2,-1,0.0078125,2202.19,2231613
-0.168579,-0.0946655,-0.0134277,-0.184,0.057,46.61,46.61,-3.31181,-0.465775,0,1591.85,-1622.85,-1,0.0078125,2202.21,2231643
0.209045,-0.133362,0.402832,0.04,-0.239,46.74,46.74,-3.30998,-0.457001,0,1435.24,-1465.63,-1,-0,2202.24,2231673
0.209045,-0.133362,0.402832,0.04,-0.239,46.74,46.74,-3.30998,-0.457001,0,1527.53,-1458.04,-1,-0,2202.25,2231673
0.0532837,-0.124268,1.38837,-0.076,-0.114,46.85,46.85,-3.30769,-0.448532,0,1645.68,-1727.41,-1,-0.11811,2202.27,2231703
0.187012,0.0427856,0.971497,0.143,-0.099,46.9,46.9,-3.30646,-0.444443,0,1505.91,-1517.22,-1,-0.472441,2202.29,2231718
-0.316833,0.183289,0.743469,-0.094,0.363,46.98,46.98,-3.30519,-0.440155,0,1474.06,-564.366,-1,-0.724409,2202.31,2231733
0.0435791,0.46991,1.02747,0.355,0.284,47.3,47.3,-3.30211,-0.430328,0,1513.78,-198.616,-1,-0.976378,2202.33,2231763
0.184875,0.607544,0.787048,0.557,0.27,47.58,47.58,-3.29976,-0.424835,0,1443.94,334.61,-1,-1,2202.35,2231778
0.126709,0.285706,0.865417,0.277,0.088,47.88,47.88,-3.29683,-0.419098,0,1437.5,605.473,-1,-1,2202.37,2231793
-0.247375,0.323914,0.791626,0.059,0.388,48.55,48.55,-3.29005,-0.406647,0,1447.6,865.426,-1,-1,2202.39,2231823
-0.16925,0.445496,0.881592,0.201,0.402,48.91,48.91,-3.28638,-0.399658,0,1443.73,834.098,-1,-1,2202.41,2231838
-0.163513,0.204163,1.39417,0.011,0.223,49.3,49.3,-3.28256,-0.392227,0,1194.53,958.359,-1,-1,2202.43,2231853
-0.319946,0.440613,0.614929,0.115,0.51,50.15,50.15,-3.27457,-0.37619,0,1433.38,1109.32,-1,-1,2202.45,2231883
0.0323486,-0.117798,1.02185,-0.102,-0.13,50.63,50.63,-3.27049,-0.367645,0,1234.95,931.663,-1,-1,2202.47,2231898
-0.314087,0.593628,1.13385,0.229,0.579,51.12,51.12,-3.26631,-0.35878,0,1328.9,1077.12,-1,-1,2202.49,2231913
0.0423584,0.300415,1.06879,0.227,0.108,52.24,52.24,-3.25754,-0.339584,0,1146.72,996.959,-1,-1,2202.51,2231943
-0.057251,0.467468,1.53479,0.281,0.266,52.83,52.83,-3.25275,-0.329575,0,1434.82,960.615,-1,-1,2202.53,2231958
-0.294922,0.299805,0.267456,0.055,0.404,53.46,53.46,-3.24771,-0.319107,0,1355.93,908.43,-1,-1,2202.55,2231973
0.190063,0.280151,1.54242,0.279,-0.067,54.81,54.81,-3.23691,-0.297623,0,1193.96,926.784,-1,-1,2202.57,2232003
-0.271179,0.197388,1.99994,-0.061,0.223,57,57,-3.21988,-0.263809,0,1104.3,929.973,-1,-1,2202.62,2232048
-0.271179,0.197388,1.99994,-0.061,0.223,57,57,-3.21988,-0.263809,0,1030.4,1021.66,-1,-1,2202.62,2232048
-0.0753784,0.0314941,0.420227,-0.029,0.057,57.77,57.77,-3.21437,-0.252014,0,1223.24,938.438,-1,-1,2202.63,2232063
-0.115356,0.298157,0.896545,0.161,0.201,58.56,58.56,-3.20879,-0.240036,0,1247.27,943.174,-1,-1,2202.65,2232078
-0.142639,0.301453,1.1214,0.145,0.206,59.34,59.34,-3.20299,-0.227768,0,1278.94,997.258,-1,-1,2202.67,2232093
0.153503,0.25824,1.40887,0.248,-0.105,61.01,61.01,-3.19092,-0.202713,0,1144.1,1120.82,-1,-1,2202.69,2232123
-0.417603,0.110046,0.811279,-0.129,0.364,61.86,61.86,-3.18471,-0.189987,0,1175.64,1083.25,-1,-1,2202.71,2232138
-0.208374,0.133423,1.12256,-0.017,0.165,62.73,62.73,-3.17859,-0.176895,0,1111.3,989.658,-1,-1,2202.73,2232153
-0.242493,0.277405,1.65002,0.085,0.215,64.51,64.51,-3.16653,-0.149918,0,1083.48,976.324,-1,-1,2202.75,2232183
-0.285583,0.214844,0.445007,0.06,0.314,65.43,65.43,-3.1604,-0.135941,0,1147.05,934.623,-1,-1,2202.77,2232198
-0.171143,0.149231,1.23383,0.022,0.118,66.4,66.4,-3.15422,-0.121643,0,1065.19,916.38,-1,-1,2202.79,2232213
-0.205078,0.3255,1.67303,0.163,0.173,68.38,68.38,-3.14171,-0.0924988,0,979.336,1042.1,-1,-0.637795,2202.81,2232243
-0.253845,0.0829468,0.461914,-0.029,0.228,69.4,69.4,-3.13531,-0.0775452,0,1097.94,937.734,-1,-0.385827,2202.83,2232258
-0.360046,0.328735,1.19043,0.143,0.346,70.41,70.41,-3.12883,-0.0621948,0,1110.37,838.293,-1,-0.0393701,2202.85,2232273
0.00927734,0.194824,1.21271,0.142,-0.057,72.49,72.49,-3.11552,-0.0313721,0,971.865,429.185,-1,0.0234375,2202.87,2232303
-0.163879,0.119751,0.878967,0.035,0.112,73.54,73.54,-3.1087,-0.0159912,0,1086.01,249.181,-1,0.0703125,2202.89,2232318
0.0252686,0.125183,1.02112,0.088,-0.082,74.62,74.62,-3.10179,-0.000595093,0,1180.78,100.178,-1,0.117188,2202.91,2232333
-0.0414429,0.0489502,1.25903,-0.008,-0.059,76.75,76.75,-3.08794,0.0299683,0,1164.35,-126.181,-1,0.132812,2202.93,2232363
0.151245,-0.109497,0.95697,-0.109,-0.252,77.78,77.78,-3.08112,0.0449982,0,1006.19,-258.088,-1,0.148438,2202.95,2232378
-0.103455,-0.00457764,1.13043,-0.063,0.004,78.78,78.78,-3.07442,0.0598755,0,1011.74,-341.093,-1,0.148438,2202.97,2232393
0.102356,-0.0924072,1.14081,-0.11,-0.212,80.71,80.71,-3.06143,0.0893402,0,1182.03,-402.414,-1,0.15625,2202.99,2232423
0.112549,0.0184937,1.10089,0.002,-0.199,81.64,81.64,-3.0551,0.103699,0,1065.19,-418.787,-1,0.164062,2203.01,2232438
0.0318604,-0.118408,0.821289,-0.135,-0.112,82.55,82.55,-3.04884,0.117844,0,1107.42,-383.215,-1,0.1875,2203.03,2232453
0.112793,-0.0721436,0.850098,-0.082,-0.186,84.34,84.34,-3.03687,0.145828,0,1199.11,-404.032,-1,0.265625,2203.05,2232483
0.062439,-0.0886841,0.949402,-0.106,-0.144,85.21,85.21,-3.03107,0.159546,0,1076.31,-559.128,-1,0.367188,2203.07,2232498
-0.0215454,0.0179443,1.43628,-0.016,-0.086,86.04,86.04,-3.02536,0.173096,0,1027.96,-559.081,-1,0.421875,2203.09,2232513
-0.171204,-0.0518799,1.18573,-0.083,0.083,87.62,87.62,-3.01419,0.199875,0,1142.99,-514.218,-1,0.507812,2203.11,2232543
0.161743,-0.203796,0.481995,-0.208,-0.201,88.37,88.37,-3.00885,0.213165,0,1209.85,-686.884,-1,0.679688,2203.13,2232558
0.0623169,-0.0673218,1.14111,-0.085,-0.143,89.07,89.07,-3.00372,0.226212,0,1032.74,-704.523,-1,0.867188,2203.15,2232573
0.0610352,-0.256348,0.795532,-0.266,-0.111,90.37,90.37,-2.99406,0.251419,0,1149.23,-994.678,-1,0.960938,2203.17,2232603
0.0910645,-0.254272,0.814331,-0.263,-0.137,90.94,90.94,-2.98973,0.263702,0,1153.6,-1003.71,-1,0.992188,2203.19,2232618
0.358887,-0.291748,1.36237,-0.306,-0.43,91.43,91.43,-2.98579,0.275604,0,1205.04,-1131.03,-1,1,2203.21,2232633
0.270691,-0.237915,1.07629,-0.242,-0.315,92.11,92.11,-2.97919,0.29805,0,1211.46,-1097.33,-1,1,2203.23,2232663
0.0390015,-0.239807,0.488708,-0.237,-0.051,92.35,92.35,-2.97643,0.308823,0,1219.29,-1228.8,-1,1,2203.25,2232678
0.264343,-0.240417,1.43762,-0.237,-0.315,92.54,92.54,-2.97398,0.319351,0,1168.09,-1247.27,-1,0.921875,2203.27,2232693
0.0158081,-0.197449,0.753845,-0.185,-0.033,92.73,92.73,-2.97017,0.339355,0,1218.03,-1045.81,-1,0.742188,2203.29,2232723
 0.138,-0.21283,0.981079,-0.2,-0.161,92.76,92.76,-2.96869,0.349121,0,1244.17,-1231.07,-1,0.265625,2203.31,2232738
-0.0638428,-0.127869,0.640076,-0.11,0.048,92.79,92.79,-2.96742,0.35881,0,1457.83,-1069.8,-1,0.09375,2203.33,2232752
0.038269,-0.232788,0.619751,-0.22,-0.047,92.89,92.89,-2.96506,0.378387,0,1353.27,-724.953,-1,0.0078125,2203.35,2232782
0.0535278,0.22937,0.553955,0.238,-0.084,92.99,92.99,-2.96391,0.388092,0,1450.43,-679.417,-1,0.0078125,2203.37,2232798
-0.785278,0.424438,1.4566,0.493,0.708,93.18,93.18,-2.96227,0.398224,0,1501.61,-893.815,-1,0.0078125,2203.39,2232812
0.167114,0.238892,1.99994,0.251,-0.257,93.68,93.68,-2.95816,0.419891,0,1439.06,-1050.25,-1,0.0078125,2203.41,2232842
0.15332,-0.0238647,0.271973,-0.031,-0.161,93.95,93.95,-2.95589,0.430466,0,1375.99,-1121.45,-1,0.0078125,2203.43,2232858
0.0274048,-0.0916748,1.05554,-0.078,-0.06,94.2,94.2,-2.95367,0.440872,0,1272.26,-1227.07,-1,0.0078125,2203.45,2232872
0.257019,-0.0350342,0.580139,-0.048,-0.272,94.81,94.81,-2.94682,0.470779,0,1370.24,-1196.03,-1,0.0078125,2203.49,2232918
0.301819,-0.154297,1.12921,-0.166,-0.325,95.02,95.02,-2.94464,0.480255,0,1397.14,-1115.14,-1,-0.330709,2203.51,2232932
0.015625,0.15918,1.508,0.179,-0.073,95.35,95.35,-2.94035,0.498795,0,1478.42,-729.341,-1,-0.708661,2203.53,2232962
0.151855,0.211487,0.539551,0.201,-0.189,95.52,95.52,-2.9379,0.507858,0,1224.07,-238.538,-1,-0.92126,2203.55,2232978
-1.26617,0.761536,1.61243,0.894,1.133,95.74,95.74,-2.93469,0.517593,0,1472.43,82.7352,-1,-1,2203.57,2232993
0.00848389,0.411743,1.23083,0.401,-0.099,96.46,96.46,-2.92601,0.538467,0,1127.08,421.985,-1,-1,2203.59,2233022
0.00360107,0.334045,1.55707,0.314,-0.098,96.86,96.86,-2.92091,0.548737,0,1292.16,548.712,-1,-1,2203.61,2233038
0.15625,0.18158,0.601196,0.151,-0.2,97.3,97.3,-2.91551,0.558792,0,1318.83,743.494,-1,-1,2203.63,2233052
-0.142273,0.238464,1.04437,0.233,0.066,98.3,98.3,-2.90335,0.579163,0,1037.83,761.934,-1,-1,2203.65,2233082
-0.242371,0.259399,1.22375,0.26,0.15,98.87,98.87,-2.8967,0.5896,0,1192.82,566.412,-1,-1,2203.67,2233098
-0.0897217,0.263916,0.888977,0.245,0.004,100.12,100.12,-2.88234,0.610825,0,1127.27,1038.58,-1,-1,2203.69,2233127
-0.210815,0.305969,0.623901,0.316,0.122,100.81,100.81,-2.8746,0.621552,0,1064.06,663.482,-1,-0.905512,2203.71,2233142
-0.295776,0.475281,1.34113,0.469,0.134,101.53,101.53,-2.86633,0.632446,0,1085.25,715.538,-1,-0.527559,2203.73,2233158
0.0341187,0.250366,0.755432,0.203,-0.121,102.27,102.27,-2.8576,0.643356,0,1186.52,725.347,-1,-0.275591,2203.75,2233172
-0.0776367,0.268311,1.04102,0.225,-0.037,103.88,103.88,-2.83902,0.665237,0,1208.46,269.825,-1,0.0078125,2203.77,2233202
-0.455322,0.338806,1.13892,0.381,0.299,104.75,104.75,-2.82913,0.676392,0,1272.1,165.999,-1,0.0078125,2203.79,2233218
-0.166687,0.112183,1.04761,0.093,0.077,105.66,105.66,-2.81891,0.687805,0,1068.49,0,-1,0.0078125,2203.81,2233232
0.0249634,-0.0506592,0.872986,-0.107,-0.052,107.48,107.48,-2.79825,0.710815,0,1187.08,-207.314,-1,0.0078125,2203.83,2233262
-0.221985,-0.151611,1.08759,-0.138,0.201,108.35,108.35,-2.7881,0.722427,0,1115.39,-190.06,-1,0.0078125,2203.85,2233278
-0.11731,0.0147095,0.861389,0.002,0.058,109.17,109.17,-2.77803,0.734207,0,1110.25,-419.068,-1,0.0078125,2203.87,2233292
-0.0558472,-0.0640869,1.01056,-0.098,0.017,110.63,110.63,-2.758,0.75856,0,1013.02,-500.851,-1,0.0078125,2203.89,2233322
0.0594482,-0.0460815,1.16248,-0.13,-0.104,111.3,111.3,-2.74817,0.770798,0,1032.95,-431.826,-1,0.0078125,2203.91,2233337
-0.237244,-0.145752,0.700745,-0.083,0.235,111.94,111.94,-2.73849,0.783127,0,1082.31,-583.039,-1,0.0078125,2203.93,2233352
0.120911,-0.179932,0.75,-0.25,-0.08,113.19,113.19,-2.71977,0.808014,0,987.606,-593.331,-1,0.0078125,2203.95,2233382
0.0279541,-0.0767822,1.42487,-0.149,-0.07,113.79,113.79,-2.71083,0.820312,0,1101.93,-594.972,-1,0.0078125,2203.97,2233397
0.0629883,-0.0997314,0.733459,-0.149,-0.054,114.37,114.37,-2.70209,0.832535,0,1098.18,-601.269,-1,0.0078125,2203.99,2233412
0.101807,-0.117676,0.771179,-0.182,-0.079,115.51,115.51,-2.68509,0.856644,0,1088.91,-725.716,-1,0.0078125,2204.01,2233442
0.11084,-0.0386963,1.16223,-0.131,-0.14,116.05,116.05,-2.6769,0.868484,0,1108.03,-725.4,-1,0.0078125,2204.03,2233457
-0.0410767,-0.0391846,1.1601,-0.062,-0.002,116.58,116.58,-2.66884,0.880234,0,1275.35,-718.081,-1,0.0078125,2204.05,2233472
0.0891113,-0.0164795,1.13348,-0.099,-0.124,117.56,117.56,-2.65332,0.903381,0,1208.02,-634.256,-1,0.0078125,2204.07,2233502
0.0802612,-0.0199585,0.833679,-0.085,-0.1,118.03,118.03,-2.64578,0.914719,0,1191.54,-566.203,-1,0.0078125,2204.09,2233517
0.137146,0.0508423,1.14722,-0.06,-0.196,118.47,118.47,-2.63837,0.925858,0,1279.26,-769.645,-1,0.0078125,2204.11,2233532
0.182556,-0.0485229,1.47473,-0.181,-0.198,119.33,119.33,-2.62375,0.947586,0,1289.91,-856.678,-1,0.0078125,2204.13,2233562
0.304993,-0.164124,0.668884,-0.314,-0.21,119.72,119.72,-2.61685,0.958069,0,1156.87,-803.568,-1,0.0078125,2204.15,2233577
-0.0822144,0.105835,1.164,0.099,-0.028,120.09,120.09,-2.61009,0.968399,0,1323.1,-780.244,-1,0.0078125,2204.17,2233592
0.176331,-0.0463257,0.785889,-0.151,-0.158,120.82,120.82,-2.59669,0.988983,0,1340.39,-836.225,-1,0.0078125,2204.19,2233622
-0.0244751,-0.0805664,1.28278,-0.088,0.014,121.16,121.16,-2.59024,0.99913,0,1145.61,-825.048,-1,0.0078125,2204.21,2233637
0.105042,-0.166138,0.544556,-0.207,-0.022,121.5,121.5,-2.58398,1.00928,0,1335.2,-810.833,-1,0.0078125,2204.23,2233652
0.0439453,-0.10437,1.12201,-0.133,-0.021,122.11,122.11,-2.57225,1.02896,0,1312.25,-867.754,-1,0.0078125,2204.25,2233682
-0.0389404,-0.0614014,0.96759,-0.047,0.029,122.38,122.38,-2.56662,1.03871,0,1304.21,-780.457,-1,0.0078125,2204.27,2233697
0.0725098,-0.0638428,0.573181,-0.101,-0.048,122.65,122.65,-2.5611,1.04843,0,1372.4,-880.669,-1,0.0078125,2204.29,2233712
0.0117798,-0.0431519,1.00195,-0.055,-0.023,123.13,123.13,-2.55038,1.06773,0,1232.67,-954.608,-0.921875,0.0078125,2204.31,2233742
-0.0175171,-0.192078,0.584473,-0.156,0.098,123.33,123.33,-2.54523,1.07742,0,1103.14,-1093.02,-0.851562,0.0078125,2204.33,2233757
-0.268433,-0.136353,1.07861,0.023,0.258,123.54,123.54,-2.54015,1.08736,0,1179.94,-1029.87,-0.710938,0.0078125,2204.35,2233772
-0.0500488,0.0993652,1.27704,0.098,-0.061,123.88,123.88,-2.53027,1.10759,0,1104.61,-974.754,-0.625,0.0078125,2204.37,2233802
0.169373,-0.0392456,0.594788,-0.131,-0.139,123.99,123.99,-2.52539,1.11755,0,1128.67,-980.536,-0.578125,0.0078125,2204.39,2233817
0.214233,0.0768433,1.11261,-0.062,-0.259,124.07,124.07,-2.52065,1.12726,0,1056.19,-1099.14,-0.578125,0.0078125,2204.41,2233832
-0.0946655,0.175232,1.18939,0.191,-0.058,124.13,124.13,-2.51131,1.14565,0,999.5,-1030.18,-0.578125,0.0078125,2204.43,2233862
0.129395,0.00372314,0.685059,-0.072,-0.13,124.12,124.12,-2.50653,1.1546,0,1028.97,-855.286,-0.671875,0.0078125,2204.45,2233877
-0.0043335,0.0328369,1.07867,0.022,-0.049,124.11,124.11,-2.50179,1.16344,0,1151.34,-948.227,-0.867188,0.0078125,2204.47,2233892
-0.0452881,0.172546,1.26721,0.157,-0.098,124.08,124.08,-2.49217,1.18077,0,1182.31,-901.51,-0.945312,0.0078125,2204.49,2233922
-0.101074,0.0334473,0.897278,0.076,0.037,124.1,124.1,-2.48715,1.18933,0,1123.47,-967.961,-0.984375,0.0078125,2204.51,2233937
-0.171204,-0.120178,1.07788,-0.012,0.175,124.14,124.14,-2.48209,1.19804,0,1335.56,-1092.66,-1,0.0078125,2204.53,2233952
-0.112488,-0.0848389,0.964294,-0.014,0.109,124.34,124.34,-2.47215,1.21594,0,1145.41,-1012.2,-1,0.0078125,2204.55,2233982
0.0265503,-0.0227051,0.662842,-0.038,-0.03,124.46,124.46,-2.46724,1.22502,0,1302.68,-1052.02,-1,0.0078125,2204.57,2233997
-0.15271,-0.0367432,1.06177,0.05,0.113,124.61,124.61,-2.46233,1.23413,0,1131.16,-882.885,-1,0.0078125,2204.59,2234012
-0.071106,-0.0706177,1.15186,-0.02,0.061,125.05,125.05,-2.448,1.26163,0,1259.29,-890.869,-1,0.0078125,2204.62,2234057
-0.071106,-0.0706177,1.15186,-0.02,0.061,125.05,125.05,-2.448,1.26163,0,1345.08,-1039.66,-1,0.0078125,2204.63,2234057
0.151733,-0.0823975,0.910767,-0.158,-0.106,125.21,125.21,-2.44334,1.27081,0,1257.31,-1086.84,-1,0.0078125,2204.65,2234072
0.199768,-0.0259399,0.645752,-0.137,-0.168,125.48,125.48,-2.43459,1.28888,0,1156,-1039.12,-1,0.0078125,2204.67,2234102
-0.0112305,0.00531006,0.95929,0.01,-0.024,125.6,125.6,-2.43039,1.29771,0,1292.49,-1024.64,-1,0.0078125,2204.69,2234117
0.441284,-0.129272,1.08862,-0.363,-0.316,125.74,125.74,-2.42644,1.3063,0,1299.71,-1179.04,-1,0.0078125,2204.71,2234132
0.0845947,-0.10376,1.14374,-0.13,-0.042,125.95,125.95,-2.41908,1.3231,0,1297.44,-1221.22,-1,0.0078125,2204.73,2234162
0.0310059,-0.117493,0.718323,-0.111,0.021,126.04,126.04,-2.41562,1.3315,0,1302.76,-845.166,-1,0.0078125,2204.75,2234177
-0.343323,-0.116943,1.71326,0.114,0.296,126.15,126.15,-2.41216,1.34009,0,1301.15,-1037.83,-1,0.0078125,2204.77,2234192
-0.173828,-0.0852661,0.921326,0.039,0.162,126.34,126.34,-2.40492,1.35815,0,1253.68,-1203.37,-1,0.0078125,2204.79,2234222
-0.000244141,-0.055481,1.02295,-0.039,0.001,126.44,126.44,-2.40129,1.36742,0,1292.82,-1048.49,-1,0.0078125,2204.81,2234237
-0.0177612,-0.0848389,1.14526,-0.051,0.029,126.55,126.55,-2.39771,1.37671,0,1276.16,-1187.86,-1,0.0078125,2204.83,2234252
-0.0245972,0.0180054,0.721924,0.033,-0.014,126.78,126.78,-2.39084,1.39502,0,1402.72,-1102.54,-1,0.0078125,2204.85,2234282
0.200928,-0.10376,1.11975,-0.198,-0.134,126.89,126.89,-2.38754,1.40402,0,1354.65,-1186.03,-1,0.0078125,2204.87,2234297
-0.0475464,0.0802002,0.970398,0.099,-0.039,127.01,127.01,-2.38432,1.4129,0,1514.92,-1248.36,-1,0.0078125,2204.89,2234312
-0.0535889,0.0285034,1.08075,0.06,-0.008,127.23,127.23,-2.37796,1.42175,0,1392.66,-1217.95,-1,-0.19685,2204.91,2234341
-0.0592041,0.0119629,0.789246,0.05,0.015,127.33,127.33,-2.37473,1.42175,0,1307.19,-956.16,-1,-0.566929,2204.93,2234357
-0.228638,0.11499,1.21198,0.237,0.075,127.44,127.44,-2.37129,1.42181,0,1381.5,-379.672,-1,-0.80315,2204.95,2234371
-0.259583,0.501953,1.99994,0.55,-0.16,127.81,127.81,-2.36313,1.42162,0,1328.2,-148.652,-1,-0.992126,2204.97,2234401
0.184448,0.261169,0.12738,0.091,-0.309,128.09,128.09,-2.35832,1.42108,0,1139.99,380.72,-1,-1,2204.99,2234417
-0.328125,0.215698,0.852295,0.365,0.101,128.44,128.44,-2.35321,1.42041,0,1299.8,622.432,-1,-1,2205.01,2234431
-0.368958,0.365662,0.513916,0.508,0.043,129.2,129.2,-2.34178,1.41832,0,1233.81,697.277,-1,-1,2205.03,2234461
-0.379578,0.215515,0.728455,0.394,0.139,129.62,129.62,-2.33522,1.41725,0,1228.35,1078.23,-1,-1,2205.05,2234477
0.0285034,0.184509,0.584229,0.108,-0.153,130.08,130.08,-2.32832,1.41618,0,1230.09,975.657,-0.875,-1,2205.07,2234491
-0.37793,0.407349,0.234924,0.549,0.012,131.06,131.06,-2.31363,1.41365,0,1232.44,944.599,-0.539062,-1,2205.09,2234521
-0.200256,0.552368,1.34869,0.501,-0.242,131.61,131.61,-2.30533,1.41219,0,971.487,984.058,-0.304688,-1,2205.11,2234537
0.00616455,0.305847,0.835388,0.192,-0.224,132.21,132.21,-2.29655,1.41042,0,1025.75,1078.46,-0.0078125,-1,2205.13,2234551
0.18335,0.469666,1.08966,0.174,-0.468,133.32,133.32,-2.27847,1.40555,0,922.084,1002.51,-0.0078125,-1,2205.15,2234581
-0.211426,0.284058,0.457581,0.333,-0.047,133.77,133.77,-2.269,1.4025,0,853.024,925.369,-0.0078125,-1,2205.17,2234597
0.0919189,0.608826,1.29285,0.317,-0.496,134.21,134.21,-2.25908,1.39908,0,782.687,1146.46,-0.0078125,-1,2205.19,2234611
0.0418091,0.489929,0.896423,0.274,-0.375,135.03,135.03,-2.23843,1.39061,0,681.292,1175.09,-0.0078125,-1,2205.21,2234641
-0.168579,0.488281,1.20026,0.402,-0.224,135.43,135.43,-2.22751,1.38573,0,583.039,928.548,-0.0078125,-1,2205.23,2234657
0.020813,0.413086,0.90741,0.224,-0.303,135.81,135.81,-2.21617,1.38048,0,605.382,943.797,-0.0078125,-1,2205.25,2234671
-0.270203,0.289917,1.01196,0.335,-0.013,136.57,136.57,-2.19247,1.36928,0,556.932,964.46,-0.0078125,-1,2205.27,2234701
-0.184265,0.200928,0.55249,0.237,-0.015,136.96,136.96,-2.18004,1.36928,0,467.399,916.128,-0.0078125,-1,2205.29,2234717
-0.0905762,0.256714,1.20709,0.163,-0.112,137.33,137.33,-2.16733,1.36919,0,407.092,1090.45,-0.0078125,-1,2205.31,2234731
0.156433,0.325989,1.02979,0.03,-0.329,138,138,-2.14108,1.36829,0,325.478,1138.24,-0.0078125,-1,2205.33,2234761
0.0889282,0.328552,0.884338,0.089,-0.286,138.31,138.31,-2.12776,1.36725,0,253.209,963.67,-0.0078125,-1,2205.35,2234777
-0.0441284,0.39386,0.823975,0.234,-0.246,138.61,138.61,-2.11421,1.36584,0,234.219,1045.26,-0.0078125,-1,2205.37,2234791
-0.202393,0.409912,1.38062,0.311,-0.139,139.27,139.27,-2.08611,1.3624,0,143.022,900.739,-0.0078125,-1,2205.39,2234821
-0.0646973,0.325195,0.414368,0.226,-0.192,139.61,139.61,-2.07149,1.36035,0,111.529,1017.45,-0.0078125,-1,2205.41,2234837
0.111389,0.245972,0.867798,0,-0.229,140.29,140.29,-2.04172,1.35527,0,55.5956,811.227,-0.0078125,-1,2205.43,2234866
0.041626,0.481567,1.18903,0.172,-0.353,140.62,140.62,-2.02669,1.35216,0,55.5956,792.393,-0.0078125,-1,2205.45,2234881
-0.219055,0.243835,0.801086,0.254,-0.018,140.96,140.96,-2.01135,1.34879,0,0,1024.38,-0.0078125,-1,2205.47,2234897
-0.0335693,0.226685,0.925659,0.087,-0.117,141.3,141.3,-1.99579,1.34532,0,-81.5182,755.658,-0.0078125,-1,2205.49,2234911
-0.0393677,0.384766,0.931519,0.182,-0.237,142.04,142.04,-1.96405,1.33766,0,-122.517,780.671,-0.0078125,-1,2205.51,2234941
0.0201416,0.420654,1.4234,0.108,-0.279,142.47,142.47,-1.94786,1.33334,0,-151.072,1068.89,-0.0078125,-1,2205.53,2234956
-0.177185,0.212952,0.756714,0.198,-0.026,142.9,142.9,-1.93146,1.3288,0,-146.715,1110.31,-0.0078125,-1,2205.55,2234971
-0.106873,0.198975,1.16705,0.089,-0.039,143.83,143.83,-1.89818,1.31952,0,-208.257,1073.77,-0.0078125,-1,2205.57,2235001
-0.0373535,0.328003,0.877747,0.135,-0.199,144.31,144.31,-1.88135,1.31467,0,-231.08,1048.77,-0.0078125,-1,2205.59,2235016
-0.0877686,0.274048,0.834717,0.146,-0.129,144.82,144.82,-1.8643,1.3096,0,-254.959,874.738,-0.0078125,-1,2205.61,2235031
0.105652,0.275879,0.727295,-0.006,-0.248,145.87,145.87,-1.82996,1.29861,0,-302.608,1101.38,-0.0078125,-1,2205.63,2235061
-0.0239258,0.184143,0.912842,0.028,-0.089,146.43,146.43,-1.81276,1.29272,0,-320.574,1081.9,-0.0078125,-1,2205.65,2235076
-0.0184326,0.318176,1.104,0.075,-0.194,146.99,146.99,-1.79549,1.28665,0,-365.43,995.223,-0.0078125,-1,2205.67,2235091
0.071167,0.228821,0.948181,-0.035,-0.175,148.13,148.13,-1.76085,1.2737,0,-351.679,1285.93,-0.0078125,-1,2205.69,2235121
-0.0144043,0.154907,0.952515,-0.001,-0.065,148.69,148.69,-1.74355,1.26692,0,-386.653,1185.54,-0.0078125,-1,2205.71,2235136
0.0206909,0.0999146,0.936523,-0.059,-0.038,149.27,149.27,-1.7263,1.26007,0,-362.549,1122.78,-0.0078125,-1,2205.73,2235151
-0.0617676,0.213684,1.05896,0.056,-0.085,150.43,150.43,-1.69197,1.24586,0,-461.35,1038.1,-0.179688,-1,2205.75,2235181
-0.146179,0.226624,0.835083,0.155,-0.07,151.03,151.03,-1.67465,1.23856,0,-323.939,1228.73,-0.375,-1,2205.77,2235196
-0.0626221,0.216125,1.06451,0.054,-0.086,151.64,151.64,-1.65721,1.23114,0,-236.373,1160.7,-0.726562,-1,2205.79,2235211
-0.277161,-0.0189819,0.583191,0.18,0.182,152.97,152.97,-1.62192,1.21663,0,-104.137,1057.47,-0.890625,-1,2205.81,2235241
-0.181946,-0.10968,1.12103,0.005,0.248,154.64,154.64,-1.58577,1.20317,0,299.007,986.388,-0.890625,-1,2205.83,2235271
-0.386169,-0.0478516,0.988098,0.231,0.264,155.56,155.56,-1.56746,1.19695,0,350.171,1024.38,-1,-1,2205.85,2235286
-0.273865,-0.0536499,0.966553,0.13,0.214,156.58,156.58,-1.5489,1.19104,0,410.509,965.111,-1,-1,2205.87,2235301
-0.228149,-0.0116577,0.79718,0.124,0.141,157.66,157.66,-1.53017,1.18538,0,540.146,960.984,-1,-1,2205.89,2235316
-0.336975,-0.130371,0.99939,0.161,0.296,158.79,158.79,-1.51125,1.18001,0,547.81,867.227,-1,-1,2205.91,2235331
-0.478394,-0.104736,0.342773,0.38,0.269,161.31,161.31,-1.47272,1.17041,0,696.185,1025.12,-1,-1,2205.93,2235361
-0.0584106,-0.00805664,1.02264,-0.057,0.068,162.68,162.68,-1.45308,1.16602,0,747.524,1091.23,-1,-1,2205.95,2235376
-0.425659,-0.0407715,0.963013,0.291,0.197,164.09,164.09,-1.43327,1.1618,0,700.992,968.289,-1,-1,2205.97,2235391
-0.298706,0.0706177,0.848328,0.212,0.031,167.12,167.12,-1.3927,1.15393,0,733.622,973.331,-1,-1,2205.99,2235421
-0.102722,0.160095,0.591187,0.066,-0.114,168.73,168.73,-1.37207,1.14998,0,759.417,1057.92,-1,-1,2206.01,2235436
-0.0667114,0.119202,1.45245,-0.074,-0.05,170.4,170.4,-1.35146,1.14594,0,847.494,938.527,-1,-1,2206.03,2235451
-0.0494995,0.194885,1.56604,-0.101,-0.127,173.86,173.86,-1.31049,1.13756,0,802.729,1167.75,-1,-0.874016,2206.05,2235481
0.0463257,0.0958862,1.0661,-0.153,-0.057,175.66,175.66,-1.29022,1.13319,0,910.747,1089.68,-1,-0.496063,2206.07,2235496
-0.271179,0.0895996,0.3526,0.235,-0.063,177.48,177.48,-1.2699,1.12874,0,931.055,869.301,-1,-0.11811,2206.09,2235511
-0.0098877,0.0106812,1.10162,-0.109,0.032,-178.7,181.29,-1.22929,1.11951,0,968.429,622.181,-1,0.0078125,2206.11,2235541
0.125916,-0.107849,1.10321,-0.236,0.156,-176.78,183.21,-1.2093,1.11499,0,975.324,443.981,-1,0.0078125,2206.13,2235556
-0.0249634,-0.245789,0.247559,0.02,0.25,-174.94,185.05,-1.18947,1.11073,0,1038.75,494.425,-1,0.0078125,2206.15,2235571
0.201538,-0.196045,0.960754,-0.265,0.249,-171.4,188.59,-1.15051,1.10326,0,1039.45,347.427,-0.726562,0.0078125,2206.17,2235601
-0.081543,-0.144653,0.914612,0.016,0.149,-169.72,190.27,-1.13139,1.09995,0,950.299,356.36,-0.351562,0.0078125,2206.19,2235616
0.104004,-0.140198,0.77301,-0.146,0.174,-168.08,191.91,-1.11237,1.09686,0,865.351,271.883,-0.109375,0.0078125,2206.21,2235631
0.465881,-0.0596313,0.868896,-0.507,0.192,-164.9,195.09,-1.07562,1.09143,0,672.902,253.598,-0.0078125,0.0078125,2206.23,2235661
0.631775,0.195496,1.00916,-0.74,0.006,-163.41,196.58,-1.05843,1.08897,0,575.027,142.94,-0.0078125,0.0078125,2206.25,2235676
0.230896,0.250488,1.34918,-0.392,-0.15,-162.01,197.98,-1.04198,1.08641,0,474.024,90.1274,-0.0078125,0.0078125,2206.27,2235691
0.368713,0.0218506,1.18408,-0.428,0.118,-159.45,200.54,-1.01076,1.08165,0,524.219,80.425,-0.0078125,0.0078125,2206.29,2235721
0.455383,0.0415039,0.605286,-0.474,0.133,-158.31,201.68,-0.996048,1.07956,0,522.002,63.2013,-0.0078125,0.0078125,2206.31,2235736
0.544678,-0.0430298,1.03595,-0.52,0.267,-155.31,204.68,-0.956726,1.07457,0,471.276,15.9701,-0.0078125,0.0078125,2206.34,2235781
0.544678,-0.0430298,1.03595,-0.52,0.267,-155.31,204.68,-0.956726,1.07457,0,448.37,-14.9022,-0.0078125,0.0078125,2206.36,2235781
0.455688,0.0742188,0.410339,-0.458,0.128,-154.48,205.51,-0.945129,1.07344,0,417.084,-42.8879,-0.0078125,0.0078125,2206.37,2235796
0.384949,0.119812,0.872498,-0.428,0.06,-153.73,206.26,-0.934143,1.07245,0,386.466,-35.3748,-0.0078125,0.0078125,2206.39,2235811
0.365967,0.205017,0.960571,-0.443,-0.017,-152.42,207.57,-0.913803,1.07068,0,372.072,-25.0344,-0.0078125,0.0078125,2206.41,2235841
0.312256,0.102417,0.895874,-0.341,0.052,-151.87,208.12,-0.904465,1.06984,0,338.129,-98.8494,-0.0078125,0.0078125,2206.43,2235856
0.291016,0.057373,0.973999,-0.298,0.084,-151.38,208.61,-0.895538,1.06911,0,285.625,-110.724,-0.0078125,0.0078125,2206.45,2235871
0.267334,0.0383301,1.08069,-0.263,0.089,-150.63,209.36,-0.878891,1.06812,0,317.849,-110.104,-0.0078125,0.0078125,2206.47,2235901
0.258545,0.0743408,1.07178,-0.268,0.053,-150.32,209.67,-0.871109,1.06781,0,296.498,-85.9265,-0.0078125,0.0078125,2206.49,2235916
0.302612,0.00891113,0.711853,-0.268,0.135,-150.05,209.94,-0.863693,1.06763,0,214.28,-111.709,-0.0078125,0.0078125,2206.51,2235931
0.299438,0.0783081,1.06769,-0.292,0.069,-149.61,210.38,-0.843628,1.06778,0,152.508,-150.938,-0.0078125,0.0078125,2206.54,2235976
0.299438,0.0783081,1.06769,-0.292,0.069,-149.61,210.38,-0.843628,1.06778,0,134.511,-140.974,-0.0078125,0.0078125,2206.55,2235976
0.0679932,0.0897217,0.895813,-0.093,-0.055,-149.59,210.4,-0.832047,1.06836,0,128.955,-160.717,-0.0078125,0.0078125,2206.57,2236005
-0.0901489,0.0675049,1.03217,0.055,-0.117,-149.6,210.39,-0.826416,1.06853,0,131.752,-133.617,-0.0078125,0.0078125,2206.59,2236020
0.0323486,0.0725098,0.866455,-0.054,-0.056,-149.6,210.39,-0.82077,1.06857,0,116.724,-97.1034,-0.0078125,0.0078125,2206.61,2236036
0.0552979,0.0662231,0.992188,-0.069,-0.04,-149.59,210.4,-0.815216,1.06856,0,100.924,-95.0796,-0.0078125,0.0078125,2206.63,2236050
0.0269775,0.104675,0.850098,-0.064,-0.085,-149.6,210.39,-0.804428,1.06824,0,69.8629,-87.19,-0.0078125,0.0078125,2206.65,2236080
0.0403442,0.118713,0.974548,-0.08,-0.09,-149.6,210.39,-0.799179,1.06789,0,59.2784,-76.8941,-0.0078125,0.0078125,2206.67,2236096
0.00201416,0.120117,0.970947,-0.047,-0.11,-149.6,210.39,-0.794006,1.0674,0,64.5544,-59.4216,-0.0078125,0.0078125,2206.69,2236110
0.0654907,0.0818481,0.986938,-0.081,-0.043,-149.6,210.39,-0.78392,1.06621,0,54.5337,-49.5057,-0.0078125,0.0078125,2206.71,2236140
0.0626221,0.102234,0.886719,-0.09,-0.061,-149.59,210.4,-0.779037,1.06552,0,43.7019,-39.0975,-0.0078125,0.0078125,2206.73,2236156
0.0446167,0.0456543,0.872131,-0.045,-0.02,-149.59,210.4,-0.769531,1.0638,0,31.9953,-32.9929,-0.0078125,0.0078125,2206.75,2236185
0.0389404,0.09198,0.996887,-0.061,-0.063,-149.59,210.4,-0.764877,1.06284,0,31.9953,-26.5514,-0.0078125,0.0078125,2206.77,2236200
0.0114746,0.0767822,0.996582,-0.028,-0.062,-149.6,210.39,-0.755783,1.06068,0,19.9623,-26.5514,-0.0078125,0.0078125,2206.8,2236230
0.0801392,0.0758667,0.900269,-0.088,-0.026,-149.6,210.39,-0.751343,1.05951,0,19.9623,-26.5514,-0.0078125,0.0078125,2206.82,2236245
0.00958252,0.0543823,0.98407,-0.014,-0.043,-149.6,210.39,-0.746964,1.05829,0,19.9623,-26.5514,-0.0078125,0.0078125,2206.83,2236260
0.0117798,0.0341797,0.921143,-0.007,-0.024,-149.59,210.4,-0.746964,1.05702,0,19.9623,-26.5514,-0.0078125,0.0078125,2206.85,2236276
0.0618286,0.0239258,0.971741,-0.044,0.009,-149.6,210.39,-0.747009,1.05574,0,3.94484,-3.85157,-0.0078125,0.0078125,2206.87,2236290
0.0255127,0.0231934,0.94104,-0.012,-0.007,-149.6,210.39,-0.747192,1.05574,0,0,0,-0.0078125,0.0078125,2206.89,2236320
0.0498657,0.00158691,0.961792,-0.021,0.022,-149.6,210.39,-0.747314,1.05574,0,0,0,-0.0078125,0.0078125,2206.91,2236336
0.0322876,0.00787354,0.943115,-0.01,0.008,-149.6,210.39,-0.747467,1.05577,0,-3.05169,2.98314,0,0.0078125,2206.93,2236350
0.0546265,0.000549316,0.945984,-0.025,0.025,-149.6,210.39,-0.747803,1.05586,0,-5.8361,2.98314,0.015748,0.0625,2206.95,2236380
0.0367432,0.0110474,0.951965,-0.014,0.007,-149.59,210.4,-0.748016,1.05594,0,-5.8361,2.98314,0.0629921,0.171875,2206.97,2236396
0.0206909,0.0115356,0.935364,-0.001,0,-149.59,210.4,-0.74823,1.05603,0,-5.8361,2.98314,0.125984,0.453125,2206.99,2236410
0.0390625,0.0123901,0.947327,-0.017,0.007,-149.59,210.4,-0.74823,1.05603,0,-5.8361,-184.688,0.204724,0.757812,2207.01,2236440
0.185059,-0.188782,0.902893,-0.042,0.254,-149.6,210.39,-0.74826,1.05621,0,-8.6501,-345.316,0.314961,0.898438,2207.03,2236456
0.582581,-0.329407,0.950439,-0.314,0.571,-149.68,210.31,-0.74855,1.05695,0,-42.3909,-447.477,0.464567,0.992188,2207.05,2236470
0.283508,-0.187927,0.815796,-0.13,0.291,-150.08,209.91,-0.749435,1.06006,0,-59.3609,-555.232,0.748031,1,2207.07,2236500
0.285767,-0.0643921,0.89325,-0.191,0.18,-150.37,209.62,-0.750122,1.06215,0,-255.912,-749.906,0.929134,1,2207.09,2236516
0.414856,-0.227966,0.949097,-0.222,0.375,-151.21,208.78,-0.75235,1.06738,0,-505.153,-724.559,0.992126,1,2207.11,2236545
0.453125,-0.155029,1.05634,-0.288,0.32,-151.78,208.21,-0.753952,1.07071,0,-555.078,-774.653,1,1,2207.13,2236560
0.319153,-0.188477,0.90564,-0.16,0.285,-152.46,207.53,-0.755875,1.07443,0,-553.388,-756.744,1,1,2207.15,2236576
0.370178,-0.11969,0.981445,-0.236,0.232,-154.04,205.95,-0.760483,1.08308,0,-696.088,-729.235,1,1,2207.17,2236605
0.387512,-0.234375,1.19757,-0.194,0.326,-154.93,205.06,-0.763229,1.08798,0,-863.297,-766.254,1,1,2207.19,2236620
0.158325,-0.162415,0.763428,-0.039,0.179,-155.85,204.14,-0.766129,1.09323,0,-958.405,-814.1,1,1,2207.21,2236635
0.359009,-0.155273,0.932068,-0.222,0.235,-157.74,202.25,-0.772522,1.10443,0,-955.795,-489.093,1,1,2207.23,2236665
0.146057,-0.148621,0.77533,-0.038,0.154,-158.73,201.26,-0.776047,1.11044,0,-888.612,-828.638,1,1,2207.25,2236680
0.240112,-0.112488,1.03906,-0.125,0.136,-159.78,200.21,-0.779678,1.11664,0,-1027.91,-837.907,1,1,2207.27,2236695
0.209167,-0.0645142,1.12244,-0.108,0.073,-160.87,199.12,-0.783463,1.12299,0,-1014.51,-824.81,1,1,2207.29,2236710
0.0108032,-0.0421143,0.984253,0.064,-0.005,-163.13,196.86,-0.791763,1.13594,0,-1068.95,-1002.61,1,1,2207.31,2236740
0.539795,-0.0682373,1.05872,-0.43,0.157,-164.31,195.68,-0.796234,1.14253,0,-1011.48,-987.606,1,1,2207.33,2236755
-0.057373,0.0255737,0.824585,0.106,-0.079,-165.52,194.47,-0.800919,1.14919,0,-960.338,-942.729,1,1,2207.35,2236770
0.115723,-0.0779419,1.06897,-0.018,0.05,-168.03,191.96,-0.810364,1.16206,0,-1104.55,-790.889,1,1,2207.37,2236800
0.34082,0.174194,1.03094,-0.291,-0.155,-169.3,190.69,-0.815338,1.1684,0,-942.152,-931.88,1,1,2207.39,2236815
0.362305,0.0841675,1.1228,-0.28,-0.087,-173.21,186.78,-0.831497,1.18652,0,-1038.42,-794.187,1,1,2207.42,2236860
0.362305,0.0841675,1.1228,-0.28,-0.087,-173.21,186.78,-0.831497,1.18652,0,-1057.64,-1121.2,1,1,2207.43,2236860
-0.105347,0.0193481,0.862976,0.171,-0.063,-174.53,185.46,-0.837189,1.19232,0,-997.258,-1100.05,1,1,2207.45,2236875
-0.046814,0.112,0.403931,0.073,-0.128,-177.2,182.79,-0.848541,1.20334,0,-965.95,-1061.97,1,1,2207.47,2236905
0.508423,0.0984497,1.03253,-0.424,-0.12,-178.56,181.43,-0.854477,1.20859,0,-967.82,-1022.34,1,1,2207.5,2236920
0.0917358,0.0491943,1.21191,0.009,-0.084,-179.92,180.07,-0.860703,1.21368,0,-1001.45,-928.29,1,1,2207.51,2236935
0.0463867,0.123047,0.552002,0.003,-0.139,178.7,178.7,-0.866913,1.21863,0,-1087.31,-1004.77,1,1,2207.53,2236950
0.593506,0.109314,0.836853,-0.509,-0.17,175.93,175.93,-0.879272,1.22775,0,-965.904,-1004.47,1,1,2207.55,2236980
0.0182495,0.170959,1.40613,0.121,-0.198,174.51,174.51,-0.885834,1.23193,0,-1062.81,-1243.01,1,1,2207.57,2236995
0.113342,0.133667,0.722778,-0.028,-0.158,171.66,171.66,-0.899139,1.23932,0,-1115.14,-1011.84,1,1,2207.59,2237025
0.355103,0.136292,1.32159,-0.206,-0.208,170.23,170.23,-0.906036,1.24261,0,-1141.03,-1067.35,1,1,2207.61,2237040
0.0406494,0.0268555,0.835693,0.043,-0.04,168.81,168.81,-0.913025,1.24574,0,-1120.01,-1166.32,1,1,2207.63,2237055
-0.0529785,0.156921,1.45032,0.219,-0.144,166.03,166.03,-0.926727,1.25153,0,-1243.78,-1223.02,1,1,2207.65,2237085
0.00671387,-0.000915527,0.765137,0.063,-0.001,164.67,164.67,-0.933304,1.25421,0,-1119.88,-1115.7,1,1,2207.67,2237100
0.327637,0.0852661,0.551025,-0.236,-0.175,163.28,163.28,-0.939987,1.25677,0,-1144.69,-1214.26,1,1,2207.69,2237115
0.239014,0.258423,1.40887,-0.006,-0.317,160.48,160.48,-0.953354,1.26132,0,-1054.96,-1109.63,1,1,2207.71,2237145
0.172668,0.166199,1.13293,0.002,-0.207,159.07,159.07,-0.953354,1.26311,0,-1205.91,-1126.38,1,1,2207.73,2237160
0.290649,0.114502,0.425964,-0.183,-0.211,157.63,157.63,-0.953476,1.2646,0,-1074.63,-1162.25,1,1,2207.75,2237175
0.292297,0.256653,0.74823,-0.086,-0.344,154.78,154.78,-0.95343,1.26712,0,-1020.04,-1107.05,0.811024,1,2207.77,2237205
0.42218,0.231873,0.752808,-0.201,-0.38,153.33,153.33,-0.953522,1.26778,0,-979.144,-1162.12,0.425197,1,2207.79,2237220
0.340759,0.267517,1.69611,-0.017,-0.352,151.89,151.89,-0.953781,1.26793,0,-797.925,-1211.17,0.425197,1,2207.81,2237235
0.454041,0.175537,0.480713,-0.253,-0.368,149.06,149.06,-0.954666,1.26707,0,-604.467,-1044.28,-0.140625,1,2207.83,2237265
0.191406,0.121277,1.09741,0.005,-0.166,147.61,147.61,-0.955414,1.26608,0,-303.721,-1340.21,-0.476562,1,2207.85,2237280
0.138489,0.106201,0.868469,0.03,-0.132,143.33,143.33,-0.95755,1.26222,0,325.6,-977.04,-0.726562,1,2207.89,2237325
-0.185364,-0.0856323,0.854675,0.167,0.216,142.02,142.02,-0.958069,1.26083,0,676.476,-1264.7,-1,1,2207.91,2237340
0.0683594,-0.0309448,1.28571,0.037,0.03,140.82,140.82,-0.958435,1.25963,0,682.874,-1308.56,-1,1,2207.93,2237355
-0.123291,-0.238159,1.11401,0.032,0.3,139.71,139.71,-0.95874,1.25865,0,746.38,-1197.03,-1,1,2207.95,2237370
-0.337158,-0.318481,0.928101,0.11,0.483,137.86,137.86,-0.959167,1.25864,0,677.277,-1200.91,-1,1,2207.97,2237400
-0.407776,-0.128418,0.753418,0.269,0.384,137.12,137.12,-0.959076,1.25958,0,918.147,-1190.83,-1,1,2207.99,2237415
-0.347534,-0.135803,0.636841,0.2,0.344,135.88,135.88,-0.957809,1.26295,0,949.532,-1352.91,-1,1,2208.01,2237445
-0.234009,-0.115967,0.909973,0.148,0.25,135.4,135.4,-0.956787,1.26527,0,996.959,-1143.97,-1,1,2208.03,2237460
-0.373291,-0.178528,0.60553,0.175,0.388,134.65,134.65,-0.954391,1.27104,0,1135.33,-1114.08,-1,1,2208.06,2237490
-0.237305,-0.109131,1.5235,0.186,0.234,134.4,134.4,-0.952866,1.27458,0,1261.03,-1045.1,-1,1,2208.07,2237505
-0.352234,-0.153564,0.70813,0.18,0.353,134.21,134.21,-0.951111,1.2785,0,1286.92,-1404.3,-1,1,2208.09,2237520
-0.232788,-0.0889282,1.05414,0.164,0.216,134.08,134.08,-0.949112,1.28284,0,1162.93,-1201.27,-1,1,2208.11,2237535
-0.0687866,-0.0273438,1.17303,0.101,0.048,133.93,133.93,-0.945053,1.29222,0,1302.34,-1305.06,-1,1,2208.13,2237565
0.00750732,-0.0426636,1.65326,0.068,-0.005,133.91,133.91,-0.942932,1.29703,0,1437.19,-1178.2,-1,1,2208.15,2237580
0.175354,-0.253235,0.468689,-0.273,0.04,133.9,133.9,-0.940933,1.30186,0,1398.5,-1336.63,-1,1,2208.17,2237595
0.0205688,-0.0349121,1.73615,0.073,-0.023,133.9,133.9,-0.93692,1.31194,0,1303.36,-1361.56,-1,1,2208.19,2237624
0.118103,-0.196045,0.430847,-0.194,0.043,133.9,133.9,-0.934921,1.31703,0,1603.59,-1543.09,-1,1,2208.21,2237639
-0.0501709,-0.116699,0.927551,0.011,0.1,133.89,133.89,-0.933044,1.32224,0,1296.43,-1582.9,-1,1,2208.23,2237655
0.0841675,-0.0372314,1.11041,-0.012,-0.055,133.88,133.88,-0.933044,1.32747,0,1446.76,-1279.02,-1,1,2208.25,2237669
0.303101,-0.0321045,1.06006,-0.162,-0.218,133.82,133.82,-0.933487,1.33772,0,1465.85,-1823.65,-1,1,2208.27,2237699
0.153809,0.109741,1.17554,0.051,-0.209,133.78,133.78,-0.933899,1.3425,0,1517.34,-1566.66,-1,1,2208.29,2237715
-0.0805054,0.0977173,0.951172,0.189,-0.027,133.78,133.78,-0.934631,1.35161,0,1510.46,-1416.33,-1,1,2208.31,2237744
0.41626,-0.282471,0.606567,-0.448,-0.116,133.77,133.77,-0.935135,1.35603,0,1510.69,-1286.34,-1,1,2208.33,2237759
-0.170471,-0.0012207,1.89728,0.243,0.089,133.78,133.78,-0.935776,1.36044,0,1675.32,-2053.81,-1,1,2208.35,2237775
-0.193787,-0.236816,-0.478516,-0.07,0.312,133.79,133.79,-0.93631,1.36513,0,1477.76,-1577.16,-1,1,2208.37,2237789
0.00946045,-0.153809,1.2326,-0.032,0.078,133.79,133.79,-0.937271,1.37494,0,1631.85,-1599.62,-1,1,2208.39,2237819
0.243835,-0.0682373,0.423401,-0.188,-0.136,133.8,133.8,-0.937881,1.37984,0,1526.83,-1600.38,-1,1,2208.41,2237835
-0.138733,-0.0999146,1.11334,0.101,0.15,133.81,133.81,-0.938797,1.38972,0,1547.99,-1406.87,-1,1,2208.43,2237864
0.274414,-0.138977,1.35132,-0.198,-0.128,133.84,133.84,-0.939209,1.39478,0,1535.16,-1440.82,-1,1,2208.45,2237879
-0.188904,-0.0758057,0.754517,0.126,0.174,133.85,133.85,-0.939667,1.39984,0,1538.94,-1644.74,-1,1,2208.47,2237895
0.441711,-0.0345459,0.812866,-0.277,-0.31,133.86,133.86,-0.939987,1.41022,0,1621.4,-1588.81,-1,1,2208.49,2237924
-0.0620117,0.161743,0.999695,0.225,-0.085,133.86,133.86,-0.940186,1.41507,0,1679.54,-1475.47,-1,1,2208.51,2237939
0.179199,-0.186218,1.2486,-0.177,-0.022,133.87,133.87,-0.940338,1.41983,0,1523.23,-1426.94,-1,1,2208.53,2237956
-0.323425,0.0649414,0.926697,0.331,0.173,133.87,133.87,-0.940964,1.42946,0,1386.58,-1709.26,-1,1,2208.55,2237984
0.151001,0.0383301,1.17084,0,-0.154,133.86,133.86,-0.940994,1.43434,0,1514.23,-1644.2,-1,1,2208.57,2237999
0.26416,-0.0646362,0.856689,-0.172,-0.159,133.86,133.86,-0.941132,1.43901,0,1591.22,-1356.67,-1,1,2208.59,2238015
0.260132,-0.168274,0.513123,-0.266,-0.078,133.83,133.83,-0.941406,1.44852,0,1790.83,-1797.75,-1,1,2208.61,2238044
-0.178284,-0.0342407,0.591248,0.137,0.144,133.83,133.83,-0.941635,1.45335,0,1568.87,-1732.95,-1,1,2208.63,2238059
-0.102356,0.0689697,1.99994,0.251,0,133.81,133.81,-0.94162,1.45831,0,1657.82,-1624.17,-1,1,2208.65,2238075
0.067688,-0.0982666,0.809448,-0.065,0.008,133.83,133.83,-0.941284,1.46324,0,1601.92,-1876.7,-1,1,2208.67,2238104
-0.197815,-0.0179443,1.50671,0.219,0.138,133.81,133.81,-0.94104,1.46335,0,1533.98,-1731.9,-1,1,2208.69,2238119
0.202576,0.00415039,0.314392,-0.117,-0.153,133.84,133.84,-0.940735,1.46344,0,1533.62,-1618.12,-1,1,2208.71,2238135
0.2677,-0.0355835,0.685608,-0.167,-0.177,133.86,133.86,-0.940613,1.4633,0,1488.1,-1587.18,-1,1,2208.73,2238149
0.515747,-0.09552,0.132935,-0.417,-0.307,133.87,133.87,-0.940445,1.46268,0,1630.66,-1619.3,-1,1,2208.75,2238179
-0.347656,0.152039,1.72894,0.456,0.125,133.85,133.85,-0.940384,1.46216,0,1694.05,-1585.04,-1,1,2208.77,2238195
-0.0682983,-0.100159,0.411011,0,0.113,133.87,133.87,-0.940338,1.46101,0,1686.91,-1742.01,-1,1,2208.79,2238224
0.0723877,-0.0350952,1.84149,0.033,-0.046,133.86,133.86,-0.940399,1.46048,0,1655.08,-1464.34,-0.8125,1,2208.81,2238239
0.043457,-0.108582,0.708679,-0.066,0.036,133.89,133.89,-0.940475,1.45992,0,1471.02,-1520.68,-0.453125,1,2208.83,2238254
0.255737,-0.133362,0.953979,-0.216,-0.1,133.89,133.89,-0.940338,1.45901,0,1722.5,-1589.07,-0.21875,1,2208.85,2238284
0.196106,-0.00866699,0.835815,-0.092,-0.142,133.88,133.88,-0.94046,1.4584,0,1229.94,-1630.66,-0.015625,1,2208.87,2238299
-0.170959,0.307556,0.84729,0.391,-0.093,133.85,133.85,-0.940384,1.45764,0,1123.6,-1363.23,-0.0078125,1,2208.89,2238314
0.0738525,0.0293579,-0.19873,-0.041,-0.073,133.59,133.59,-0.939667,1.45543,0,1223.84,-1940.05,-0.0078125,1,2208.91,2238344
-0.2276,0.342651,1.78967,0.504,-0.064,133.42,133.42,-0.938995,1.45412,0,1388.5,-1937.8,0.015748,1,2208.93,2238359
-0.387207,0.0740967,1.99994,0.421,0.237,133.26,133.26,-0.937698,1.45293,0,1382.27,-1711.45,0.0314961,1,2208.95,2238374
-0.00756836,0.0536499,1.72083,0.13,-0.018,132.94,132.94,-0.934372,1.45094,0,1150.22,-1117.38,0.0866142,1,2208.97,2238404
0.216919,0.29718,1.69202,0.149,-0.349,132.83,132.83,-0.932449,1.44971,0,763.825,-1397.04,0.165354,1,2208.99,2238419
1.0451,0.523804,0.255371,-0.309,-1.12,132.63,132.63,-0.930649,1.44746,0,468.044,-1403.51,0.228346,1,2209.01,2238434
0.176636,-0.0228882,0.485535,-0.112,-0.106,132.1,132.1,-0.926727,1.44119,0,162.4,-1807.83,0.23622,1,2209.03,2238464
0.0507812,0.167908,0.365479,0.108,-0.142,131.8,131.8,-0.924667,1.43782,0,96.4232,-1357.31,0.23622,1,2209.05,2238479
0.272583,0.533142,1.74091,0.296,-0.514,131.45,131.45,-0.922348,1.43401,0,63.4965,-1686.34,0.149606,1,2209.07,2238494
0.157288,0.177612,0.642334,0.06,-0.212,130.63,130.63,-0.917435,1.42476,0,63.4965,-1802.94,0.0551181,1,2209.09,2238524
0.230591,0.0363159,0.940857,-0.08,-0.163,130.17,130.17,-0.915009,1.41969,0,19.6715,-1630.12,0.023622,1,2209.11,2238539
0.206299,0.18158,1.20599,0.059,-0.228,129.7,129.7,-0.912598,1.41435,0,215.68,-1499.36,-0.0078125,1,2209.13,2238554
0.0404053,0.248657,1.31683,0.223,-0.123,128.63,128.63,-0.907333,1.40204,0,345.68,-1632.25,-0.0078125,1,2209.15,2238584
0.278564,0.0316772,0.703369,-0.119,-0.204,128.11,128.11,-0.904526,1.3954,0,500.15,-1289.08,-0.0078125,1,2209.17,2238599
0.258118,0.200928,0.84137,0.035,-0.284,127.56,127.56,-0.901779,1.38844,0,551.283,-1264.22,-0.0078125,1,2209.19,2238614
0.00842285,0.244568,1.25806,0.238,-0.087,127,127,-0.898834,1.38123,0,733.783,-1511.03,-0.0078125,1,2209.21,2238629
0.00494385,0.140747,0.118469,0.115,-0.079,125.91,125.91,-0.892578,1.36584,0,707.064,-1415.63,-0.0078125,1,2209.23,2238659
0.178528,0.174805,1.69604,0.096,-0.149,125.37,125.37,-0.889267,1.35783,0,844.416,-1428.27,-0.0078125,1,2209.25,2238674
0.244873,-0.0181885,0.870605,-0.126,-0.141,124.87,124.87,-0.885986,1.34962,0,813.107,-1546.55,-0.0078125,1,2209.27,2238689
-0.166321,-0.0184937,1.19513,0.114,0.217,123.94,123.94,-0.879349,1.33304,0,891.782,-1530.92,-0.0078125,1,2209.29,2238719
0.0407104,-0.0088501,0.768555,-0.007,0.013,123.52,123.52,-0.875885,1.32497,0,964.32,-1152.01,-0.0078125,1,2209.31,2238734
-0.190308,0.0447388,0.839966,0.166,0.182,122.74,122.74,-0.86911,1.30902,0,1032.42,-1609.53,-0.0078125,1,2209.33,2238764
-0.196411,-0.124146,0.984558,0.029,0.285,122.41,122.41,-0.86557,1.30144,0,1102.05,-1276.08,-0.0078125,1,2209.35,2238779
-0.0325928,-0.0899658,0.63623,-0.039,0.108,122.11,122.11,-0.862045,1.29413,0,1071.47,-1473.84,-0.0078125,1,2209.37,2238794
0.0282593,-0.0439453,0.575378,-0.034,0.028,121.84,121.84,-0.858551,1.28691,0,1088.14,-1473.84,-0.0078125,1,2209.39,2238809
0.104919,0.00762939,0.610901,-0.029,-0.062,121.35,121.35,-0.851562,1.27272,0,1138.43,-1233.81,-0.0078125,1,2209.41,2238839
-0.0424805,0.0249634,0.90033,0.07,0.068,121.13,121.13,-0.848038,1.26566,0,1013.53,-1423.69,-0.0078125,1,2209.43,2238854
0.0791016,-0.0995483,1.23303,-0.089,0.041,120.76,120.76,-0.841187,1.25197,0,1089.74,-1209.41,-0.0078125,1,2209.45,2238884
-0.209045,0.0454712,0.524048,0.161,0.18,120.61,120.61,-0.837799,1.24535,0,1321.35,-1478.31,-0.0078125,1,2209.47,2238899
0.0365601,-0.0995483,1.13354,-0.071,0.072,120.48,120.48,-0.834335,1.23889,0,1196.96,-1359.71,-0.0078125,1,2209.49,2238914
-0.0427856,0.038269,0.400024,0.066,0.035,120.26,120.26,-0.827225,1.2265,0,1212.34,-944.555,-0.0078125,1,2209.51,2238944
-0.238586,-0.0917969,0.539185,0.056,0.277,120.17,120.17,-0.823517,1.22061,0,1260.72,-1416.63,-0.0078125,1,2209.53,2238959
-0.311035,-0.164307,1.56897,0.057,0.423,120.06,120.06,-0.819733,1.21518,0,1212.78,-1308.13,-0.0078125,1,2209.55,2238974
0.181213,0.0102539,0.905823,-0.053,-0.12,119.86,119.86,-0.812454,1.20457,0,1169.32,-1491.76,-0.0078125,1,2209.57,2239004
0.0285034,-0.0307007,0.630737,-0.021,0.02,119.75,119.75,-0.808945,1.19911,0,1210.8,-1259.76,-0.0078125,1,2209.59,2239019
-0.298462,0.100342,1.54382,0.282,0.279,119.64,119.64,-0.805237,1.19385,0,1203.51,-1502.29,-0.0078125,1,2209.61,2239034
-0.0704956,-0.0396118,0.743774,0.023,0.114,119.46,119.46,-0.797455,1.18396,0,1223.69,-1208.53,-0.0078125,1,2209.63,2239064
-0.098877,0.0359497,1.14777,0.115,0.118,119.27,119.27,-0.789429,1.17435,0,1207,-1423.99,-0.0078125,0.773438,2209.67,2239094
-0.0360107,-0.0171509,0.152466,0.007,0.046,119.18,119.18,-0.785278,1.16968,0,1179.25,-1425.72,-0.0078125,0.773438,2209.67,2239109
-0.112366,0.0115967,1.77704,0.122,0.171,119.09,119.09,-0.781052,1.16515,0,1253.92,-1409.05,-0.0078125,0.523438,2209.69,2239124
0.225891,0.0301514,0.74176,-0.06,-0.18,119,119,-0.776764,1.16061,0,1352.81,-1634.39,-0.0078125,0.0078125,2209.71,2239139
-0.298218,0.240234,0.595032,0.372,0.169,118.93,118.93,-0.772278,1.15608,0,1300.05,-1257.62,-0.0078125,0.0078125,2209.73,2239154
-0.0966187,0.141357,1.33557,0.199,0.073,118.91,118.91,-0.756348,1.14392,0,1325.64,-1179.11,-0.0078125,0.0078125,2209.77,2239198
-0.0966187,0.141357,1.33557,0.199,0.073,118.91,118.91,-0.756348,1.14392,0,1357.68,-1311.05,-0.0078125,0.0078125,2209.77,2239198
-0.0684814,0.255493,0.699158,0.27,-0.033,118.92,118.92,-0.750381,1.14009,0,1314.84,-1197.82,-0.0078125,0.0078125,2209.79,2239214
0.0870972,0.191956,1.88171,0.154,-0.084,119.02,119.02,-0.737732,1.13191,0,1157.41,-1123.22,-0.0078125,0.0078125,2209.81,2239243
0.0710449,0.0621338,0.587341,0.028,-0.065,119.06,119.06,-0.731201,1.12762,0,1208.46,-1246.49,-0.0078125,0.0078125,2209.83,2239258
-0.081543,0.13855,0.911987,0.173,0.047,119.07,119.07,-0.724518,1.12334,0,1269.52,-1216.1,-0.0078125,0.0078125,2209.85,2239274
0.0492554,0.0672607,0.657104,0.041,-0.044,119.12,119.12,-0.710968,1.11462,0,1142.99,-1090.16,-0.0078125,0.0078125,2209.87,2239303
-0.138306,0.123413,1.41022,0.188,0.128,119.12,119.12,-0.70401,1.11029,0,1110.43,-1017.5,-0.0078125,0.0078125,2209.89,2239318
-0.226257,0.167297,0.755798,0.262,0.151,119.14,119.14,-0.696762,1.10616,0,1068.55,-741.043,-0.0078125,0.0078125,2209.91,2239334
0.181152,0.268921,1.64899,0.155,-0.207,119.16,119.16,-0.681808,1.09761,0,1083.13,-1422.78,-0.0078125,0.0078125,2209.93,2239363
0.0227661,0.139404,0.716797,0.114,-0.051,119.15,119.15,-0.674088,1.09305,0,1081.2,-1080.21,-0.0078125,0.0078125,2209.95,2239378
0.133179,0.134827,0.797485,0.056,-0.14,119.13,119.13,-0.666245,1.08835,0,1032.74,-1078.28,-0.0078125,0.0078125,2209.97,2239394
0.263184,0.0328369,0.840576,-0.097,-0.202,119.13,119.13,-0.650208,1.0788,0,1001.3,-1135.14,-0.0078125,0.0078125,2209.99,2239423
-0.0570679,0.119629,1.09967,0.133,0.05,119.1,119.1,-0.64212,1.07388,0,985.707,-1028.17,-0.0078125,0.0078125,2210.01,2239438
-0.0250854,0.060791,0.746033,0.065,0.033,119.07,119.07,-0.633911,1.06902,0,989.266,-780.244,-0.0078125,0.0078125,2210.03,2239454
0.052124,0.0681152,0.959167,0.033,-0.025,119.07,119.07,-0.625626,1.06416,0,1023.49,-972.432,-0.0078125,0.0078125,2210.05,2239468
-0.131958,0.142822,1.23529,0.186,0.114,119.08,119.08,-0.608658,1.05434,0,939.541,-1066.21,-0.0078125,0.0078125,2210.07,2239498
0.210266,0.0487061,0.711243,-0.062,-0.167,119.09,119.09,-0.599976,1.04938,0,1021.24,-1046.41,-0.0078125,0.0078125,2210.09,2239514
0.158997,0.116455,0.961731,0.018,-0.141,119.1,119.1,-0.572983,1.03445,0,838.153,-959.509,-0.0078125,0.0078125,2210.13,2239558
-0.053894,0.191711,1.14716,0.181,0.02,119.13,119.13,-0.535294,1.01384,0,848.428,-875.618,-0.0078125,0.0078125,2210.19,2239618
-0.053894,0.191711,1.14716,0.181,0.02,119.13,119.13,-0.535294,1.01384,0,926.312,-983.333,-0.0078125,0.0078125,2210.19,2239618
-0.0783691,0.185608,0.855652,0.19,0.028,119.15,119.15,-0.525406,1.0087,0,830.323,-892.499,-0.0078125,0.0078125,2210.21,2239634
-0.0209961,0.125793,1.03522,0.105,0.017,119.2,119.2,-0.505463,0.998169,0,809.618,-888.731,-0.0078125,0.0078125,2210.23,2239663
0.107849,0.105957,0.762878,0.028,-0.1,119.2,119.2,-0.495377,0.992813,0,817.494,-936.242,-0.0078125,0.0078125,2210.25,2239678
0.00524902,0.160889,0.864014,0.124,-0.031,119.21,119.21,-0.485199,0.987366,0,881.29,-765.785,-0.0078125,0.0078125,2210.27,2239694
-0.0113525,0.176697,1.31946,0.136,0.003,119.23,119.23,-0.474838,0.981903,0,818.867,-788.768,-0.0078125,0.0078125,2210.29,2239708
-0.0113525,0.176697,1.31946,0.136,0.003,119.23,119.23,-0.474838,0.981903,0,842.815,-762.544,-0.0078125,0.0078125,2210.31,2239708
-0.0113525,0.176697,1.31946,0.136,0.003,119.23,119.23,-0.474838,0.981903,0,806.354,-690.393,-0.0078125,0.0078125,2210.33,2239708
0.0673218,0.108826,0.881592,0.044,-0.056,119.24,119.24,-0.421478,0.952789,0,695.386,-664.033,-0.0078125,0.0078125,2210.35,2239783
0.10437,0.116638,0.81311,0.033,-0.096,119.24,119.24,-0.410522,0.946762,0,718.184,-806.907,-0.0078125,0.0078125,2210.37,2239798
-0.065918,0.117676,1.08038,0.111,0.069,119.24,119.24,-0.39946,0.940735,0,722.152,-775.374,-0.0078125,0.0078125,2210.39,2239813
0.0328369,0.16156,0.872375,0.105,-0.051,119.25,119.25,-0.376953,0.928696,0,650.893,-705.542,-0.0078125,0.0078125,2210.41,2239843
-0.0130005,0.129639,0.879822,0.098,0.005,119.26,119.26,-0.365494,0.922623,0,657.635,-611.92,-0.0078125,0.0078125,2210.43,2239858
0.0289917,0.104736,0.934753,0.054,-0.015,119.25,119.25,-0.353928,0.91655,0,676.43,-648.803,-0.0078125,0.0078125,2210.45,2239873
0.0292969,0.117859,0.974304,0.063,-0.018,119.25,119.25,-0.330475,0.904312,0,573.066,-711.44,-0.0078125,0.0078125,2210.47,2239903
0.0963745,0.122498,0.966797,0.034,-0.079,119.27,119.27,-0.318634,0.898117,0,629.465,-633.894,-0.0078125,0.0078125,2210.49,2239918
-0.0150146,0.104004,1.08545,0.069,0.034,119.27,119.27,-0.306717,0.891876,0,614.024,-605.528,-0.0078125,0.0078125,2210.51,2239933
-0.0141602,0.151978,1.02356,0.111,0.007,119.25,119.25,-0.282684,0.879303,0,585.36,-486.098,-0.0078125,0.0078125,2210.53,2239963
0.0181274,0.150269,0.880737,0.097,-0.029,119.25,119.25,-0.270493,0.872986,0,540.176,-573.723,-0.0078125,0.0078125,2210.55,2239978
0.046875,0.105774,1.01947,0.04,-0.023,119.25,119.25,-0.258194,0.866623,0,543.936,-562.414,-0.0078125,0.0078125,2210.57,2239993
0.0629272,0.125488,0.993896,0.049,-0.049,119.27,119.27,-0.233429,0.853821,0,551.42,-604.467,-0.15625,-0,2210.59,2240023
0.00286865,0.125061,0.924927,0.08,-0.001,119.27,119.27,-0.220932,0.847366,0,462.588,-569.444,-0.632812,-0.188976,2210.61,2240038
0.0922852,0.124146,0.831299,0.037,-0.084,119.27,119.27,-0.195541,0.834549,0,550.252,-240.691,-0.75,-0.307087,2210.64,2240068
-0.140869,0.366455,0.922607,0.357,0.006,119.28,119.28,-0.182526,0.828079,0,642.281,-129.124,-0.984375,-0.795276,2210.66,2240083
-0.122864,0.400085,1.09467,0.365,-0.014,119.38,119.38,-0.169022,0.828079,0,756.945,-82.8645,-1,-0.96063,2210.67,2240098
-0.349182,0.165344,0.747925,0.283,0.271,119.55,119.55,-0.155075,0.828247,0,789.204,229.04,-1,-1,2210.69,2240113
-0.264099,0.136963,0.878906,0.207,0.21,120.28,120.28,-0.125702,0.829819,0,772.082,355.593,-1,-1,2210.71,2240143
-0.311768,0.245239,1.02234,0.315,0.199,120.81,120.81,-0.110428,0.831055,0,781.555,483.033,-1,-1,2210.73,2240158
-0.436157,0.192078,0.955566,0.339,0.323,121.39,121.39,-0.0947113,0.832672,0,757.805,703.755,-1,-1,2210.75,2240173
-0.154236,0.168579,1.03516,0.161,0.089,122.76,122.76,-0.0619202,0.83667,0,807.787,949.037,-1,-1,2210.77,2240203
-0.119385,0.251343,0.728027,0.229,-0.003,123.55,123.55,-0.0450745,0.838806,0,809.815,696.258,-1,-1,2210.79,2240218
-0.229309,0.112549,0.82428,0.168,0.163,124.39,124.39,-0.0279541,0.841049,0,882.145,649.836,-1,-1,2210.81,2240233
-0.155334,0.250305,0.978821,0.225,0.021,126.26,126.26,0.00709534,0.84584,0,920.048,768.108,-1,-1,2210.83,2240263
-0.127747,0.300049,0.697632,0.265,-0.048,127.27,127.27,0.0251007,0.848221,0,974.042,867.303,-1,-1,2210.85,2240278
0.093811,0.304749,1.29242,0.085,-0.206,128.32,128.32,0.0433655,0.850433,0,926.913,877.078,-1,-1,2210.87,2240293
-0.233459,0.0248413,0.882935,0.104,0.198,130.5,130.5,0.0800781,0.854355,0,937.515,873.134,-1,-1,2210.89,2240323
-0.0453491,-0.0712891,0.941345,-0.093,0.116,131.63,131.63,0.0984802,0.856522,0,921.659,902.079,-1,-1,2210.91,2240338
-0.151001,0.0211792,0.764099,0.06,0.123,132.78,132.78,0.116852,0.858871,0,874.049,864.94,-1,-1,2210.93,2240353
-0.171265,0.212219,1.23981,0.176,0.012,135.1,135.1,0.153702,0.863632,0,851.571,1041.5,-1,-1,2210.95,2240383
-0.237427,0.0181885,1.5144,0.071,0.191,137.45,137.45,0.19075,0.868683,0,804.473,1015.02,-1,-1,2210.98,2240413
-0.237427,0.0181885,1.5144,0.071,0.191,137.45,137.45,0.19075,0.868683,0,816.76,892.061,-1,-1,2210.99,2240413
-0.258545,0.045105,0.961914,0.15,0.158,139.8,139.8,0.228226,0.874146,0,874.393,891.266,-1,-1,2211.02,2240443
-0.287048,0.263611,1.22125,0.29,0.008,141.03,141.03,0.24736,0.877014,0,846.991,731.475,-1,-1,2211.03,2240458
-0.0280151,0.0175781,0.444336,-0.002,0.014,142.29,142.29,0.266693,0.877014,0,933.881,829.222,-1,-1,2211.05,2240473
-0.111084,0.0750122,1.09149,0.044,0.031,144.91,144.91,0.305664,0.876755,0,882.457,817.027,-1,-1,2211.07,2240503
-0.168518,0.187378,0.78949,0.177,-0.042,146.25,146.25,0.325363,0.876587,0,869.527,828.363,-1,-1,2211.09,2240518
-0.235779,0.172668,1.2605,0.181,0.011,147.62,147.62,0.345306,0.876404,0,861.141,932.705,-1,-1,2211.11,2240533
-0.136047,0.199768,0.92334,0.135,-0.084,150.42,150.42,0.385422,0.876068,0,836.715,806.582,-1,-1,2211.13,2240563
-0.374756,0.228516,1.04199,0.345,0,151.83,151.83,0.405838,0.875824,0,928.548,892.299,-1,-1,2211.15,2240578
0.00335693,0.0914307,1.11749,-0.06,-0.056,153.26,153.26,0.426437,0.875534,0,1046.57,1052.58,-1,-1,2211.17,2240593
-0.131653,0.107422,0.520142,0.116,-0.032,156.14,156.14,0.467987,0.874863,0,949.668,1040.42,-1,-1,2211.19,2240623
-0.135559,0.14917,1.59393,0.035,-0.048,157.62,157.62,0.488953,0.874451,0,909.008,990.442,-1,-1,2211.21,2240638
0.00494385,0.198975,0.763367,-0.002,-0.168,159.11,159.11,0.509949,0.873886,0,867.19,1036.48,-1,-1,2211.23,2240653
-0.0861206,0.147522,0.664978,0.066,-0.095,162.1,162.1,0.552063,0.871994,0,903.342,1035.68,-1,-1,2211.25,2240683
-0.0637817,0.0928955,0.355652,0.054,-0.061,163.62,163.62,0.573227,0.870819,0,989.707,796.527,-1,-1,2211.27,2240698
0.179199,0.31488,1.76312,-0.255,-0.298,165.18,165.18,0.594254,0.8694,0,996.612,771.516,-1,-1,2211.29,2240713
0.00292969,0.319641,1.18085,-0.044,-0.275,168.31,168.31,0.635452,0.865707,0,1072.44,890.67,-1,-1,2211.31,2240743
-0.18457,0.158691,0.377075,0.175,-0.111,169.86,169.86,0.656036,0.863449,0,1040.2,1187.58,-1,-1,2211.33,2240758
-0.0663452,0.0350342,0.617737,0.015,-0.004,171.44,171.44,0.676758,0.86113,0,965.437,822.978,-1,-1,2211.35,2240773
0.0426025,0.260254,0.847229,-0.088,-0.236,174.55,174.55,0.717606,0.85614,0,844.274,1063.21,-1,-1,2211.37,2240802
0.00610352,0.171814,0.348572,-0.023,-0.16,176.11,176.11,0.737823,0.853271,0,965.997,1186.17,-1,-1,2211.39,2240817
0.0505981,0.193726,1.68597,-0.182,-0.137,177.67,177.67,0.757904,0.850204,0,923.489,1038.69,-1,-1,2211.41,2240833
-0.213562,0.228699,0.688965,0.152,-0.206,-179.23,180.76,0.798096,0.843689,0,1017.04,932.966,-1,-1,2211.43,2240862
-0.451721,0.428894,1.70697,0.293,-0.381,-177.63,182.36,0.818573,0.839966,0,1078.34,1067.41,-1,-1,2211.45,2240877
-0.11554,0.200012,0.507751,0.059,-0.187,-176.05,183.94,0.839279,0.835831,0,1045.86,782.963,-1,-1,2211.47,2240893
-0.140625,0.445007,1.44928,-0.037,-0.396,-172.8,187.19,0.880905,0.826767,0,899.969,778.968,-1,-1,2211.49,2240922
-0.0637817,0.207153,0.626343,-0.02,-0.187,-171.19,188.8,0.901688,0.82164,0,971.487,754.916,-1,-1,2211.51,2240937
0.11731,0.260254,1.10931,-0.252,-0.184,-169.54,190.45,0.922287,0.816269,0,945.046,738.089,-1,-1,2211.53,2240953
-0.246033,0.192444,0.785339,0.129,-0.206,-166.25,193.74,0.962662,0.804596,0,957.763,849.618,-1,-1,2211.55,2240982
0.121216,0.306885,1.14099,-0.29,-0.205,-164.59,195.4,0.982697,0.798309,0,1045.64,1028.38,-1,-1,2211.57,2240997
-0.132568,0.214966,0.715454,0.007,-0.206,-162.93,197.06,1.00253,0.791763,0,1043.68,1105.64,-1,-1,2211.59,2241013
-0.188232,0.384155,0.912231,-0.03,-0.374,-159.58,200.41,1.04205,0.778107,0,943.574,1030.18,-1,-1,2211.61,2241042
-0.0921631,0.0825195,0.457825,0.017,-0.084,-157.9,202.09,1.06177,0.770844,0,921.277,724.927,-0.804688,-1,2211.63,2241057
-0.28418,0.152405,1.42535,0.083,-0.17,-156.23,203.76,1.08154,0.763397,0,928.333,1034.13,-0.554688,-0.685039,2211.65,2241073
 0.112,0.140076,0.935059,-0.237,-0.017,-152.88,207.11,1.12062,0.748047,0,825.287,901.469,-0.203125,-0.433071,2211.67,2241102
0.130188,0.383667,0.623779,-0.351,-0.227,-149.64,210.35,1.15862,0.731689,0,696.84,567.988,-0.0390625,-0.0551181,2211.7,2241133
0.130188,0.383667,0.623779,-0.351,-0.227,-149.64,210.35,1.15862,0.731689,0,680.643,541.213,-0.0078125,0.0078125,2211.71,2241133
0.12146,0.34668,0.772461,-0.341,-0.173,-146.65,213.34,1.19469,0.714294,0,586.527,276.843,-0.0078125,0.0078125,2211.73,2241162
0.182007,0.289551,1.16089,-0.384,-0.057,-145.27,214.72,1.21198,0.705353,0,626.351,79.944,-0.0078125,0.0078125,2211.75,2241177
0.389771,0.164246,1.10443,-0.474,0.169,-143.98,216.01,1.22867,0.696487,0,527.788,59.6472,-0.0078125,0.0078125,2211.77,2241193
0.394287,0.0848389,0.931335,-0.407,0.231,-141.84,218.15,1.26048,0.679886,0,538.358,22.9841,-0.0078125,0.0078125,2211.79,2241222
0.400574,0.0826416,0.981079,-0.405,0.242,-140.9,219.09,1.2756,0.672119,0,499.675,19.2029,-0.0078125,0.0078125,2211.81,2241237
0.478882,0.0975342,0.905884,-0.464,0.278,-140.02,219.97,1.29012,0.664688,0,449.448,19.2029,-0.0078125,0.0078125,2211.83,2241253
0.456787,-0.0167236,0.738892,-0.352,0.348,-138.42,221.57,1.3176,0.650787,0,422.726,5.30296,-0.0078125,0.0078125,2211.85,2241282
0.372437,0.0651245,1.12671,-0.349,0.249,-137.74,222.25,1.33063,0.644424,0,462.481,-6.69049,-0.0078125,0.0078125,2211.87,2241297
0.300415,0.132385,0.79895,-0.328,0.138,-137.15,222.84,1.3432,0.638321,0,373.232,-27.8106,-0.0078125,0.0078125,2211.89,2241313
0.289795,0.0286865,0.95105,-0.244,0.214,-136.1,223.89,1.36705,0.626755,0,365.764,-64.5986,-0.0078125,0.0078125,2211.91,2241342
0.28125,0.0820312,0.997864,-0.272,0.171,-135.64,224.35,1.37843,0.621368,0,295.255,-78.8348,-0.0078125,0.0078125,2211.93,2241357
0.304993,0.0222778,0.934387,-0.243,0.227,-135.26,224.73,1.38947,0.616241,0,267.183,-87.3843,-0.0078125,0.0078125,2211.95,2241373
0.278687,0.129578,1.07886,-0.294,0.136,-134.66,225.33,1.41055,0.606812,0,203.306,-88.9039,-0.0078125,0.0078125,2211.97,2241402
0.317993,0.0618286,0.798523,-0.269,0.203,-134.44,225.55,1.42053,0.602448,0,184.689,-95.8433,-0.0078125,0.0078125,2211.99,2241417
0.278259,0.0918579,1.09241,-0.259,0.16,-134.27,225.72,1.43015,0.598312,0,146.372,-116.82,-0.0078125,0.0078125,2212.01,2241432
0.302246,-0.00726318,0.963257,-0.199,0.239,-134.13,225.86,1.44839,0.590805,0,116.476,-138.294,-0.0078125,0.0078125,2212.03,2241462
0.142151,0.101562,1.04089,-0.163,0.048,-134.13,225.86,1.45711,0.587387,0,100.341,-127.02,-0.0078125,0.0078125,2212.05,2241477
-0.0430908,0.131775,0.816406,-0.056,-0.109,-134.16,225.83,1.46568,0.583923,0,98.4557,-96.189,-0.0078125,0.0078125,2212.07,2241492
0.0474854,0.0761719,0.959351,-0.078,-0.001,-134.16,225.83,1.4827,0.576599,0,82.2054,-85.4274,-0.0078125,0.0078125,2212.09,2241522
0.0783691,0.079895,0.924255,-0.101,0.017,-134.17,225.82,1.49106,0.576599,0,69.2274,-78.1134,-0.15625,0.0546875,2212.11,2241537
0.00683594,0.090332,0.951599,-0.058,-0.04,-134.18,225.81,1.4993,0.576584,0,63.9108,-58.1291,-0.320312,0.132812,2212.13,2241552
0.0244751,0.0855713,0.9776,-0.065,-0.023,-134.18,225.81,1.51564,0.576462,0,189.371,-56.5173,-0.320312,0.132812,2212.16,2241582
0.0452881,0.0684814,0.926208,-0.067,0.002,-134.18,225.81,1.52368,0.57637,0,146.364,-62.3451,-0.664062,0.460938,2212.17,2241597
-0.232544,-0.188965,0.820984,0.308,-0.019,-134.16,225.83,1.53189,0.576279,0,172.721,-259.804,-0.765625,0.632812,2212.19,2241612
-0.0183105,-0.517456,1.14996,0.393,0.362,-134.02,225.97,1.54945,0.576416,0,276.997,-285.792,-0.835938,0.71875,2212.21,2241642
-0.0713501,-0.762329,0.668884,0.599,0.483,-133.98,226.01,1.55911,0.577209,0,328.521,-373.086,-0.851562,0.726562,2212.23,2241657
-0.0690918,-0.666931,1.01239,0.523,0.415,-134.01,225.98,1.56955,0.578613,0,514.602,-468.801,-0.851562,0.648438,2212.25,2241672
-0.0751953,-0.333435,0.935303,0.281,0.171,-134.04,225.95,1.59195,0.582901,0,525.652,-543.744,-0.851562,0.585938,2212.27,2241702
-0.0282593,-0.26886,0.998352,0.199,0.157,-134.02,225.97,1.60368,0.585464,0,556.7,-573.197,-0.851562,0.523438,2212.29,2241717
-0.160767,-0.437622,1.01038,0.409,0.176,-133.99,226,1.61584,0.588257,0,690.536,-361.998,-0.851562,0.515625,2212.31,2241732
0.0922241,-0.267334,0.886475,0.109,0.238,-133.91,226.08,1.64117,0.594543,0,740.494,-711.187,-0.851562,0.515625,2212.33,2241762
0.0271606,-0.158325,0.921448,0.074,0.113,-133.85,226.14,1.65407,0.598038,0,799.456,-670.354,-0.851562,0.484375,2212.35,2241777
0.0257568,-0.289124,1.07977,0.165,0.198,-133.79,226.2,1.66713,0.601761,0,795.64,-694.975,-0.742188,0.421875,2212.37,2241792
-0.106323,-0.378235,0.838562,0.324,0.165,-133.66,226.33,1.69385,0.609833,0,818.23,-655.716,-0.476562,0.304688,2212.39,2241822
0.00787354,-0.213684,1.23615,0.115,0.124,-133.59,226.4,1.70766,0.614151,0,814.299,-784.098,-0.1875,0.078125,2212.41,2241837
0.0454102,-0.0373535,0.635864,-0.022,0.043,-133.52,226.47,1.72151,0.618591,0,756.63,-626.566,-0.015625,0.015625,2212.43,2241852
-0.132446,0.472473,0.854736,-0.273,-0.44,-133.45,226.54,1.74889,0.626907,0,695.12,-597.443,-0.0078125,0.0078125,2212.45,2241882
0.00183105,0.483276,1.40057,-0.381,-0.352,-133.36,226.63,1.76201,0.63031,0,602.21,-683.901,-0.0078125,0.0078125,2212.47,2241897
0.152893,0.113831,0.531555,-0.196,0.025,-133.28,226.71,1.77475,0.633499,0,742.666,-517.036,-0.0078125,0.0078125,2212.49,2241912
-0.0128174,0.0720825,0.725525,-0.051,-0.069,-133.32,226.67,1.79909,0.639694,0,626.488,-660.546,-0.0078125,0.0078125,2212.51,2241942
0.0458984,0.168457,0.950439,-0.164,-0.095,-133.36,226.63,1.81094,0.642624,0,683.901,-583.703,-0.0078125,0.0078125,2212.53,2241957
0.0908203,0.138672,0.863647,-0.171,-0.039,-133.37,226.62,1.82259,0.645462,0,601.016,-548.336,-0.0078125,0.0078125,2212.55,2241972
0.0551147,0.129272,0.906677,-0.137,-0.058,-133.36,226.63,1.84552,0.650986,0,641.704,-724.848,-0.0078125,0.0078125,2212.57,2242002
-0.0241699,0.143005,1.02362,-0.092,-0.124,-133.36,226.63,1.85678,0.653595,0,535.762,-563.047,-0.0078125,0.0078125,2212.59,2242017
0.079895,0.122986,0.868225,-0.147,-0.033,-133.35,226.64,1.86789,0.656082,0,563.682,-641.396,-0.0078125,0.0078125,2212.61,2242032
0.0670776,0.0875244,0.819031,-0.11,-0.017,-133.34,226.65,1.88962,0.660843,0,511.718,-415.705,-0.0078125,0.0078125,2212.63,2242062
-0.0463257,0.0249634,0.955872,0.013,-0.056,-133.34,226.65,1.90034,0.663116,0,482.928,-561.356,-0.0078125,0.0078125,2212.65,2242077
0.0646362,0.10553,1.15833,-0.12,-0.031,-133.34,226.65,1.911,0.665344,0,510.061,-480.215,-0.0078125,0.0078125,2212.67,2242092
0.0401611,0.14978,1.09656,-0.132,-0.078,-133.36,226.63,1.93172,0.669601,0,455.063,-552.96,-0.0078125,0.0078125,2212.69,2242122
0.0108643,0.0679932,0.942139,-0.052,-0.042,-133.37,226.62,1.94185,0.6716,0,477.418,-426.557,-0.0078125,0.0078125,2212.71,2242137
0.0397339,0.144531,0.947876,-0.126,-0.073,-133.38,226.61,1.95186,0.673523,0,453.793,-228.65,-0.0078125,0.0078125,2212.73,2242152
