raw_accel_x,raw_accel_y,raw_accel_z,raw_gyro_x,raw_gyro_y,raw_gyro_z,world_accel_x,world_accel_y,yaw,x,y,z,left_encoder_rate,right_encoder_rate,left_motor,right_motor,temp,fpga time,navx time
-0.0111694,-0.0176392,1.01538,0.0610352,0,-0.12207,-0.006,-0.001,54.5,0.152161,-0.0696259,0,0,0,0,0,40.96,1349.32,2580946
-0.0111694,-0.0176392,1.01538,0.0610352,0,-0.12207,-0.006,-0.001,54.5,0.152161,-0.0696259,0,0,0,0,0,40.96,1349.33,2580946
-0.0088501,-0.00872803,1.01208,-0.0610352,-0.12207,-0.183105,0,0.002,0,0,0,0,0,0,0,0,40.96,1349.35,2580975
-0.00939941,-0.0109253,1.01007,0.0610352,-0.12207,0,0,0,0,0,0,0,0,0,0,0,40.96,1349.37,2580990
-0.0067749,-0.0108032,1.01544,0,0.12207,0,0.002,0,0,0,0,0,0,0,0,0,40.96,1349.39,2581005
-0.0043335,-0.0108032,1.01392,0,0,-0.0610352,0.004,0,0,0,0,0,0,0,0,0,40.96,1349.41,2581035
-0.00976562,-0.0106201,1.00623,0,0,-0.0610352,-0.001,0,0,0,0,0,0,0,0,0,40.96,1349.43,2581050
-0.00799561,-0.00823975,1.01672,-0.12207,0,-0.12207,0,0.002,0,0,0,0,0,0,0,0,40.96,1349.45,2581065
-0.0107422,-0.00946045,1.0144,-0.12207,-0.0610352,0,-0.001,0.001,0,0,0,0,0,0,0,0,40.96,1349.47,2581095
-0.0098877,-0.00866699,1.01471,-0.12207,-0.12207,0.0610352,-0.001,0.002,0,0,0,0,0,0,0,0,40.96,1349.49,2581110
-0.0090332,-0.0119629,1.01685,-0.0610352,0,-0.0610352,0,0,0,0,0,0,0,0,0,0,40.96,1349.51,2581126
-0.0088501,-0.00860596,1.01538,-0.12207,-0.0610352,0,0,0.002,0,0,0,0,0,0,0,0,40.96,1349.53,2581155
-0.00842285,-0.0119629,1.0094,-0.12207,-0.0610352,0.0610352,0,0,0,0,0,0,0,0,0,0,40.96,1349.55,2581170
-0.00762939,-0.0110474,1.01508,-0.0610352,-0.183105,-0.12207,0.001,0,0,0,0,0,0,0,0,0,40.96,1349.57,2581186
-0.0101318,-0.0108032,1.01575,-0.183105,-0.0610352,0,-0.001,0,0,0,0,0,0,0,0,0,40.96,1349.59,2581215
-0.00561523,-0.0108032,1.01428,-0.183105,-0.12207,-0.12207,0.003,0,0,0,0,0,0,0,0,0,40.96,1349.61,2581230
-0.010437,-0.0137939,1.01465,-0.0610352,-0.12207,-0.0610352,-0.001,-0.002,0,0,0,0,0,0,0,0,40.96,1349.63,2581246
-0.00775146,-0.0108032,1.01562,0,0.0610352,-0.12207,0.001,0,0,0,0,0,0,0,0,0,40.96,1349.65,2581275
-0.00854492,-0.0100098,1.01129,0.12207,0.0610352,0,0,0.001,0,0,0,0,0,0,0,0,40.96,1349.67,2581290
-0.00750732,-0.0150757,1.00964,0.0610352,0,-0.0610352,0.001,-0.004,0,0,0,0,0,0,0,0,40.96,1349.69,2581306
-0.00958252,-0.0090332,1.01196,0,-0.0610352,-0.0610352,0,0.001,0,0,0,0,0,0,0,0,40.96,1349.71,2581320
-0.0111084,-0.0103149,1.00983,0,0.0610352,-0.0610352,-0.002,0,0,0,0,0,0,0,0,0,40.96,1349.73,2581350
-0.00762939,-0.00915527,1.01495,0,0.0610352,-0.12207,0.001,0.001,0,0,0,0,0,0,0,0,40.95,1349.75,2581366
-0.00750732,-0.00585938,1.01526,-0.0610352,-0.0610352,-0.12207,0.001,0.005,0,0,0,0,0,0,0,0,40.95,1349.77,2581395
-0.00683594,-0.00952148,1.01428,-0.0610352,-0.12207,-0.0610352,0.002,0.001,0,0,0,0,0,0,0,0,40.95,1349.79,2581410
-0.00952148,-0.00958252,1.01239,-0.12207,-0.0610352,-0.0610352,0,0.001,0,0,0,0,0,0,0,0,40.95,1349.81,2581426
-0.00732422,-0.0111084,1.01337,-0.0610352,-0.183105,-0.0610352,0.001,0,0,0,0,0,0,0,0,0,40.95,1349.83,2581455
-0.00952148,-0.00976562,1.008,-0.0610352,0,-0.0610352,0,0.001,0,0,0,0,0,0,0,0,40.95,1349.85,2581470
-0.00439453,-0.0100708,1.01624,0,0,0,0.004,0,0,0,0,0,0,0,0,0,40.95,1349.87,2581486
-0.00701904,-0.00897217,1.01044,0,0.0610352,0.0610352,0.001,0.001,0,0,0,0,0,0,0,0,40.95,1349.89,2581515
-0.00897217,-0.00982666,1.00677,-0.12207,-0.0610352,-0.0610352,0,0,0,0,0,0,0,0,0,0,40.95,1349.91,2581530
-0.0119019,-0.00933838,1.01514,-0.12207,-0.183105,0,-0.003,0.001,0,0,0,0,0,0,0,0,40.95,1349.93,2581546
-0.00921631,-0.00805664,1.01367,0,-0.12207,0,0,0.002,0,0,0,0,0,0,0,0,40.95,1349.95,2581575
-0.0109863,-0.0136719,1.0144,-0.0610352,-0.183105,-0.0610352,-0.002,-0.002,0,0,0,0,0,0,0,0,40.95,1349.97,2581590
-0.00787354,-0.0148315,1.0144,-0.0610352,-0.12207,-0.12207,0,-0.003,0,0,0,0,0,0,0,0,40.95,1350,2581621
-0.00604248,-0.0122681,1.01874,0,0.0610352,0,0.002,-0.001,0,0,0,0,0,0,0,0,40.95,1350.01,2581636
-0.00860596,-0.0125732,1.00989,-0.0610352,-0.0610352,-0.0610352,0,-0.001,0,0,0,0,0,0,0,0,40.95,1350.03,2581651
-0.00872803,-0.0090332,1.01099,-0.0610352,-0.0610352,-0.0610352,0,0.001,0,0,0,0,0,0,0,0,40.95,1350.05,2581666
-0.00964355,-0.0117188,1.00983,0,0,-0.0610352,0,0,0,0,0,0,0,0,0,0,40.95,1350.07,2581696
-0.00939941,-0.0111694,1.01013,-0.0610352,-0.12207,0.0610352,0,0,0,0,0,0,0,0,0,0,40.95,1350.09,2581711
-0.00732422,-0.00775146,1.01532,-0.0610352,-0.0610352,-0.183105,0.001,0.003,0,0,0,0,0,0,0,0,40.95,1350.11,2581726
-0.00762939,-0.0108032,1.01953,-0.0610352,-0.183105,0,0.001,0,0,0,0,0,0,0,0,0,40.95,1350.13,2581741
-0.00683594,-0.0130005,1.01294,-0.0610352,-0.244141,-0.12207,0.001,-0.002,0,0,0,0,0,0,0,0,40.95,1350.15,2581771
-0.00866699,-0.0114136,1.01556,0,0,-0.0610352,0,0,0,0,0,0,0,0,0,0,40.95,1350.17,2581786
-0.00842285,-0.0128174,1.00946,-0.12207,-0.183105,-0.0610352,0,-0.002,0,0,0,0,0,0,0,0,40.95,1350.19,2581816
-0.00927734,-0.00830078,1.01367,-0.0610352,-0.0610352,0.0610352,0,0.002,0,0,0,0,0,0,0,0,40.95,1350.21,2581831
-0.00756836,-0.0100708,1.01483,-0.0610352,-0.0610352,0.0610352,0.001,0,0,0,0,0,0,0,0,0,40.95,1350.23,2581846
-0.00805664,-0.00897217,1.0119,0,0.0610352,-0.0610352,0,0.001,0,0,0,0,0,0,0,0,40.95,1350.25,2581876
-0.00830078,-0.0112915,1.0163,-0.0610352,-0.0610352,0.12207,0,0,-0.01,0,0,0,0,0,0,0,40.95,1350.27,2581891
-0.00695801,-0.0111694,1.01013,0,0,0,0.001,0,-0.01,0,0,0,0,0,0,0,40.95,1350.3,2581921
-0.0090332,-0.00939941,1.01569,-0.0610352,-0.183105,-0.0610352,0,0.001,-0.01,0,0,0,0,0,0,0,40.95,1350.31,2581936
-0.00909424,-0.00921631,1.0094,0.0610352,0.0610352,0,0,0.001,-0.01,0,0,0,0,0,0,0,40.95,1350.33,2581951
-0.00787354,-0.012207,1.013,-0.0610352,-0.12207,-0.0610352,0,-0.001,-0.01,0,0,0,0,0,0,0,40.95,1350.35,2581966
-0.00836182,-0.0109253,1.01343,-0.0610352,-0.12207,0,0,0,0,0,0,0,0,0,0,0,40.95,1350.37,2581981
-0.00799561,-0.0105591,1.01758,-0.0610352,-0.183105,-0.0610352,0,0,-0.01,0,0,0,0,0,0,0,40.95,1350.39,2582011
-0.00915527,-0.0105591,1.0097,0,-0.0610352,0,0,0,-0.01,0,0,0,0,0,0,0,40.95,1350.41,2582026
-0.00708008,-0.0130005,1.01349,0,0,-0.12207,0.001,-0.002,-0.01,0,0,0,0,0,0,0,40.95,1350.43,2582056
-0.0108643,-0.00970459,1.0094,0.0610352,-0.0610352,0,-0.002,0,-0.01,0,0,0,0,0,0,0,40.95,1350.45,2582071
-0.00866699,-0.00970459,1.00781,-0.0610352,-0.12207,-0.12207,0,0,-0.01,0,0,0,0,0,0,0,40.95,1350.47,2582086
-0.00750732,-0.0112915,1.01025,0,0,0,0.001,0,-0.01,0,0,0,0,0,0,0,40.95,1350.49,2582116
-0.00866699,-0.0109253,1.01263,-0.0610352,-0.183105,-0.0610352,0,0,-0.01,0,0,0,0,0,0,0,40.95,1350.51,2582131
-0.00561523,-0.0103149,1.01233,-0.0610352,-0.0610352,0,0.003,0,-0.01,0,0,0,0,0,0,0,40.95,1350.53,2582146
-0.00750732,-0.00848389,1.01056,-0.0610352,-0.0610352,-0.12207,0.001,0.002,-0.01,0,0,0,0,0,0,0,40.95,1350.55,2582176
-0.00695801,-0.00915527,1.0174,-0.0610352,-0.0610352,0,0.001,0.001,-0.01,0,0,0,0,0,0,0,40.95,1350.57,2582191
-0.0115967,-0.00872803,1.01477,0,0,-0.12207,-0.002,0.001,-0.01,0,0,0,0,0,0,0,40.95,1350.59,2582206
-0.00872803,-0.012146,1.01178,0,-0.12207,0.0610352,0,-0.001,-0.01,0,0,0,0,0,0,0,40.95,1350.61,2582221
-0.00622559,-0.0118408,1.01086,-0.0610352,-0.0610352,0,0.002,-0.001,-0.01,0,0,0,0,0,0,0,40.95,1350.63,2582251
-0.0109253,-0.0144043,1.01318,0,0,0,-0.002,-0.003,-0.01,0,0,0,0,0,0,0,40.95,1350.65,2582266
-0.0117188,-0.0120239,1.01392,0,-0.0610352,-0.0610352,-0.002,-0.001,-0.01,0,0,0,0,0,0,0,40.95,1350.67,2582296
-0.00787354,-0.0119629,1.01477,0.12207,-0.12207,-0.12207,0,-0.001,-0.01,0,0,0,0,0,0,0,40.95,1350.69,2582311
-0.00842285,-0.0098877,1.0094,0.183105,0,-0.0610352,0,0,-0.01,0,0,0,0,0,0,0,40.95,1350.71,2582326
-0.0057373,-0.00854492,1.01178,-0.0610352,-0.183105,-0.0610352,0.003,0.002,-0.01,0,0,0,0,0,0,0,40.95,1350.73,2582356
-0.00799561,-0.0123291,1.01331,-0.12207,-0.0610352,0.0610352,0,-0.001,-0.01,0,0,0,0,0,0,0,40.95,1350.75,2582371
-0.00604248,-0.0102539,1.00897,-0.12207,-0.12207,-0.12207,0.002,0,-0.01,0,0,0,0,0,0,0,40.96,1350.77,2582388
-0.00634766,-0.00939941,1.01263,0,0,-0.12207,0.002,0.001,-0.01,0,0,0,0,0,0,0,40.96,1350.79,2582416
-0.00762939,-0.0127563,1.00824,-0.0610352,-0.12207,-0.0610352,0.001,-0.002,-0.01,0,0,0,0,0,0,0,40.96,1350.81,2582431
-0.00921631,-0.00830078,1.01227,-0.12207,-0.0610352,-0.0610352,0,0.002,-0.01,0,0,0,0,0,0,0,40.96,1350.83,2582446
-0.00817871,-0.0132446,1.01526,-0.183105,-0.183105,-0.0610352,0,-0.002,-0.01,0,0,0,0,0,0,0,40.96,1350.85,2582476
-0.00769043,-0.0110474,1.01392,0,-0.0610352,-0.0610352,0.001,0,-0.01,0,0,0,0,0,0,0,40.96,1350.87,2582491
-0.00976562,-0.00836182,1.0144,-0.0610352,-0.12207,-0.12207,0,0.002,-0.01,0,0,0,0,0,0,0,40.96,1350.89,2582507
-0.00927734,-0.0106812,1.01508,-0.0610352,-0.0610352,0,0,0,-0.01,0,0,0,0,0,0,0,40.96,1350.92,2582536
-0.010376,-0.0111694,1.01056,-0.0610352,-0.12207,0,-0.001,0,-0.01,0,0,0,0,0,0,0,40.96,1350.93,2582551
-0.00854492,-0.00982666,1.0097,-0.12207,-0.12207,-0.12207,0,0,-0.01,0,0,0,0,0,0,0,40.96,1350.95,2582567
-0.00830078,-0.0113525,1.01575,-0.0610352,-0.12207,0,0,0,-0.01,0,0,0,0,0,0,0,40.96,1350.97,2582596
-0.00891113,-0.0137939,1.01117,0,0.0610352,-0.0610352,0,-0.003,-0.01,0,0,0,0,0,0,0,40.96,1350.99,2582611
-0.010498,-0.0125122,1.01276,-0.0610352,-0.0610352,-0.12207,-0.001,-0.001,-0.01,0,0,0,0,0,0,0,40.96,1351.01,2582627
-0.0198364,-0.022522,1.02625,-0.183105,-0.0610352,-0.244141,-0.01,-0.011,-0.01,0,0,0,0,0,0,0,40.96,1351.03,2582656
-0.017334,-0.128723,1.03949,-1.70898,-0.0610352,-0.671387,-0.008,-0.117,0,0,-7.62939e-05,0,0,0,0,0,40.96,1351.05,2582671
6.10352e-05,-0.0554199,0.991699,-3.84521,-0.610352,-0.12207,0.008,-0.042,0,0,-0.000274658,0,0,0,0,0,40.96,1351.07,2582687
-0.0252075,0.0357056,0.984009,-1.64795,-0.488281,-0.366211,-0.016,0.049,0,0,-0.000473022,0,0,0,0,0,40.96,1351.09,2582701
-0.00952148,-0.0740356,1.00446,2.80762,-0.244141,0.12207,0,-0.061,0,0,-0.000808716,0,0,0,0,0,40.96,1351.11,2582731
-0.0174561,-0.0151367,1.03198,1.83105,-0.0610352,0.183105,-0.008,-0.002,0,0,-0.0010376,0,0,0,0,0,40.96,1351.13,2582747
0.00140381,-0.0376587,1.00714,-4.08936,-0.549316,-0.183105,0.01,-0.022,0,0,-0.0018158,0,0,0,0,0,40.96,1351.15,2582776
-0.00323486,0.0264282,0.979431,-2.99072,-0.488281,-0.12207,0.005,0.041,0,0,-0.0022583,0,0,0,0,0,40.96,1351.17,2582791
-0.0142212,-0.0355835,1.01471,0.366211,0.183105,-0.366211,-0.005,-0.019,0,0,-0.00268555,0,0,0,0,0,40.96,1351.19,2582807
-0.00897217,-0.0957642,1.00214,1.52588,0.244141,-0.0610352,0,-0.08,0,0,-0.00317383,0,0,0,0,0,40.96,1351.21,2582821
-0.00524902,-0.0279541,1.02808,0.915527,-0.12207,0.0610352,0.003,-0.011,0,0,-0.00437927,0,0,0,0,0,40.96,1351.23,2582851
-0.015625,-0.0440063,1.02087,0.610352,0.0610352,0.610352,-0.006,-0.027,0,0,-0.00502014,0,0,0,0,0,40.96,1351.25,2582867
-0.0100708,-0.0628662,1.03302,-0.244141,-0.305176,0.793457,-0.001,-0.045,-0.01,0,-0.00572205,0,0,0,0,0,40.96,1351.27,2582881
-0.0203247,0.00646973,0.984253,-0.0610352,-0.610352,-0.488281,-0.012,0.022,-0.01,0,-0.00709534,0,0,0,0,0,40.91,1351.29,2582911
-0.0088501,0.00598145,1.00409,0.915527,-0.366211,-0.793457,0,0.021,0,0,-0.00772095,0,0,0,0,0,40.91,1351.31,2582927
-0.00787354,-0.108521,1.02728,-0.305176,-0.305176,-0.305176,0,-0.093,0,0,-0.00901794,0,0,0,0,0,40.91,1351.33,2582956
-0.00695801,-0.069519,1.03247,-2.62451,-0.427246,-0.183105,0.001,-0.052,0,0,-0.0098114,0,0,0,0,0,40.91,1351.35,2582971
0.00543213,-0.022583,1.00903,-3.96728,-0.12207,-0.488281,0.013,-0.004,0.01,0,-0.0106201,0,0,0,0,0,40.91,1351.37,2582987
-0.0194702,-0.0337524,0.976074,-2.01416,0,-1.09863,-0.011,-0.015,0.02,0,-0.0106201,0,0,0,0,0,40.91,1351.39,2583002
-0.000732422,0.000915527,1.02832,3.479,0.976562,-0.793457,0.007,0.019,0.05,0,-0.0106201,0,0,0,0,0,40.91,1351.41,2583032
-0.0133057,-0.079834,1.01819,3.84521,0.427246,-0.854492,-0.004,-0.061,0.06,0,-0.0106506,0,0,0,0,0,40.91,1351.43,2583047
0.00671387,-0.0493774,1.03571,-0.732422,0.732422,-0.244141,0.015,-0.03,0.08,0,-0.0108948,0,0,0,0,0,40.91,1351.45,2583077
-0.0220337,0.0238037,1.02655,-1.0376,0,0.244141,-0.013,0.043,0.08,0,-0.0110474,0,0,0,0,0,40.91,1351.47,2583092
-0.0455933,-0.069458,1.02094,-0.488281,0.793457,-0.183105,-0.036,-0.05,0.08,-3.05176e-05,-0.0111847,0,0,0,0,0,40.91,1351.49,2583107
-0.00921631,0.0427856,1.02393,1.46484,-0.549316,0.671387,0,0.061,0.07,-0.000152588,-0.0115051,0,0,0,0,0,40.91,1351.51,2583137
0.0139771,-0.0533447,1.08807,-0.0610352,-0.0610352,0.488281,0.023,-0.034,0.07,-0.000183105,-0.0116272,0,0,0,0,0,40.91,1351.53,2583152
0.0350952,0.123657,0.915161,1.58691,-1.83105,0.915527,0.043,0.138,0.05,-0.000183105,-0.011673,0,0,0,0,0,40.91,1351.55,2583167
-0.00567627,0.00982666,1.03687,1.0376,0.427246,-0.671387,0.003,0.025,0.05,-0.000198364,-0.0115356,0,0,0,0,0,40.91,1351.58,2583197
-0.0101929,-0.0352783,1.06116,-0.549316,-0.12207,-0.488281,0,-0.018,0.06,-0.000213623,-0.0114441,0,0,0,0,0,40.91,1351.59,2583212
-0.0144043,0.0252075,0.991211,-0.732422,0.12207,-0.976562,-0.005,0.04,0.07,-0.000213623,-0.0113373,0,0,0,0,0,40.91,1351.61,2583227
-0.000366211,0.0263062,1.00348,-2.38037,-0.0610352,-0.305176,0.008,0.042,0.08,-0.000167847,-0.0110626,0,0,0,0,0,40.91,1351.64,2583257
-0.0195923,0.0308228,0.977966,-2.01416,0.183105,-0.793457,-0.011,0.047,0.08,-0.000137329,-0.010849,0,0,0,0,0,40.91,1351.65,2583272
-0.0123291,0.00463867,0.991699,-1.58691,0.488281,-0.610352,-0.003,0.02,0.1,-0.000137329,-0.0105896,0,0,0,0,0,40.91,1351.67,2583287
-0.0109253,0.00689697,1.09399,-0.0610352,0.671387,-0.793457,-0.001,0.024,0.1,-0.000137329,-0.0102997,0,0,0,0,0,40.91,1351.69,2583302
-0.0289307,-0.0449219,1.00842,-1.40381,0,0.12207,-0.019,-0.027,0.1,-0.000137329,-0.00978088,0,0,0,0,0,40.91,1351.71,2583332
-0.00402832,0.0147095,1.03479,-0.915527,-0.244141,-0.183105,0.005,0.032,0.1,-0.000137329,-0.00953674,0,0,0,0,0,40.91,1351.73,2583347
-0.0222168,-0.0678711,0.993774,-1.15967,0,0.244141,-0.013,-0.05,0.1,-0.000137329,-0.00930786,0,0,0,0,0,40.91,1351.75,2583362
-0.00701904,0.0245361,0.998169,1.09863,-0.610352,-0.12207,0.002,0.042,0.1,-0.000137329,-0.00886536,0,0,0,0,0,40.91,1351.77,2583392
0.000976562,-0.0853882,1.04962,0.183105,-0.366211,0.549316,0.01,-0.067,0.09,-0.000137329,-0.00865173,0,0,0,0,0,40.92,1351.79,2583407
0.013916,0.0283203,1.03503,-0.854492,-0.854492,-0.671387,0.023,0.047,0.1,-0.00012207,-0.00837708,0,0,0,0,0,40.92,1351.81,2583437
-0.012146,-0.0639648,0.998779,-1.09863,-0.12207,-0.488281,-0.003,-0.045,0.1,-0.000106812,-0.00823975,0,0,0,0,0,40.92,1351.83,2583452
-0.0150146,-0.0535278,1.00238,0,0.488281,-1.15967,-0.006,-0.035,0.11,-7.62939e-05,-0.00816345,0,0,0,0,0,40.92,1351.85,2583467
0.000732422,-0.0328979,0.982971,0.427246,0,-0.427246,0.009,-0.015,0.13,-7.62939e-05,-0.00799561,0,0,0,0,0,40.92,1351.87,2583497
0.00927734,-0.0358276,1.07483,0.12207,0.305176,-0.610352,0.018,-0.016,0.14,-7.62939e-05,-0.00793457,0,0,0,0,0,40.92,1351.89,2583512
-0.0105591,-0.003479,0.992676,-0.732422,0.183105,0.366211,-0.001,0.013,0.14,-7.62939e-05,-0.00793457,0,0,0,0,0,40.92,1351.91,2583527
-0.00482178,-0.0828247,1.08698,-1.2207,0.488281,0.12207,0.005,-0.063,0.13,-0.000167847,-0.00791931,0,0,0,0,0,40.92,1351.94,2583557
-0.0317993,-0.0758667,1.0838,-1.2207,-0.305176,0.610352,-0.021,-0.056,0.12,-0.000228882,-0.00801086,0,0,0,0,0,40.92,1351.95,2583572
-0.0101929,0.0236206,0.963196,-1.09863,-1.34277,0.305176,-0.001,0.041,0.11,-0.000305176,-0.00810242,0,0,0,0,0,40.92,1351.97,2583587
-0.00927734,0.00360107,0.971802,-1.34277,-0.854492,1.34277,0,0.021,0.1,-0.00038147,-0.00816345,0,0,0,0,0,40.92,1351.99,2583602
0.00958252,0.0206909,1.00739,0.183105,-1.0376,0.488281,0.018,0.039,0.07,-0.00038147,-0.00827026,0,0,0,0,0,40.92,1352.01,2583632
-0.00396729,-0.0604858,1.07428,-0.488281,-0.183105,-0.671387,0.004,-0.04,0.06,-0.00038147,-0.0083313,0,0,0,0,0,40.92,1352.04,2583662
-0.00396729,-0.0604858,1.07428,-0.488281,-0.183105,-0.671387,0.004,-0.04,0.06,-0.00038147,-0.0083313,0,0,0,0,0,40.92,1352.05,2583662
-0.00524902,-0.0222778,0.940186,-0.610352,-0.183105,-0.732422,0.002,-0.004,0.09,-0.000320435,-0.0083313,0,0,0,0,0,40.92,1352.07,2583692
-0.0153198,-0.0161133,1.05957,0.305176,1.28174,-1.15967,-0.006,0.002,0.13,-0.000289917,-0.00823975,0,0,0,0,0,40.92,1352.1,2583722
-0.0153198,-0.0161133,1.05957,0.305176,1.28174,-1.15967,-0.006,0.002,0.13,-0.000289917,-0.00823975,0,0,0,0,0,40.92,1352.11,2583722
-0.0444336,-0.0291138,0.967224,-0.976562,0.244141,-0.366211,-0.036,-0.011,0.15,-0.000259399,-0.0080719,0,0,0,0,0,40.92,1352.13,2583752
0.0012207,0.0369263,1.05988,-0.610352,-0.488281,0.854492,0.01,0.056,0.14,-0.000274658,-0.00796509,0,0,0,0,0,40.92,1352.15,2583767
-0.0456543,-0.0123901,0.975769,-0.793457,-0.610352,1.2207,-0.037,0.005,0.13,-0.000305176,-0.0078125,0,0,0,0,0,40.92,1352.17,2583782
0.0101318,0.0127563,1.06018,0.488281,-1.34277,1.0376,0.019,0.032,0.1,-0.000396729,-0.00735474,0,0,0,0,0,40.92,1352.19,2583812
-0.0438232,-0.0715332,1.04047,0.183105,-0.366211,0.244141,-0.035,-0.052,0.08,-0.000457764,-0.0071106,0,0,0,0,0,40.92,1352.21,2583827
-0.00201416,-0.00823975,0.993225,0.732422,-0.244141,-0.0610352,0.006,0.009,0.09,-0.000534058,-0.00691223,0,0,0,0,0,40.92,1352.23,2583842
-0.00634766,-0.00726318,1.05719,-0.854492,-0.0610352,-0.915527,0.001,0.012,0.1,-0.000640869,-0.00668335,0,0,0,0,0,40.92,1352.25,2583872
0.0145264,-0.0167236,1.03845,0.12207,0.244141,-0.915527,0.022,0.001,0.11,-0.000671387,-0.00668335,0,0,0,0,0,40.92,1352.27,2583888
0.00891113,-0.0391846,1.01666,-0.366211,0.0610352,-0.549316,0.016,-0.021,0.12,-0.000671387,-0.00669861,0,0,0,0,0,40.92,1352.29,2583902
-0.0140381,-0.0710449,1.01776,-0.915527,0.854492,-0.671387,-0.006,-0.052,0.15,-0.000656128,-0.00672913,0,0,0,0,0,40.96,1352.31,2583932
-0.0254517,0.0115967,0.981873,-0.244141,0.12207,-0.12207,-0.017,0.029,0.15,-0.000656128,-0.0067749,0,0,0,0,0,40.96,1352.33,2583948
-0.0336304,-0.0458984,1.02905,-0.793457,-0.488281,0.183105,-0.025,-0.027,0.14,-0.000671387,-0.00674438,0,0,0,0,0,40.96,1352.35,2583977
-0.0300903,-0.0266724,0.992249,-0.305176,-0.427246,-0.793457,-0.022,-0.008,0.15,-0.000717163,-0.00674438,0,0,0,0,0,40.96,1352.37,2583992
0.0032959,0.0333862,0.981506,-0.671387,-1.40381,-1.0376,0.011,0.051,0.16,-0.000778198,-0.00672913,0,0,0,0,0,40.96,1352.39,2584008
-0.0102539,-0.022583,0.990479,-0.183105,-0.793457,-1.09863,-0.002,-0.003,0.17,-0.000778198,-0.00666809,0,0,0,0,0,40.96,1352.41,2584037
0.00683594,0.0443115,0.987793,0.671387,-0.610352,-1.0376,0.013,0.062,0.21,-0.000701904,-0.00662231,0,0,0,0,0,40.96,1352.43,2584052
-0.0217285,-0.155823,1.08954,1.83105,0.183105,-0.976562,-0.014,-0.135,0.21,-0.000640869,-0.00663757,0,0,0,0,0,40.96,1352.45,2584068
-0.0158691,-0.0829468,1.00238,2.01416,0.732422,-0.976562,-0.009,-0.065,0.24,-0.000640869,-0.0067749,0,0,0,0,0,40.96,1352.47,2584082
-0.0262451,-0.0482788,1.04791,0.427246,1.2207,-0.976562,-0.019,-0.029,0.26,-0.000610352,-0.00721741,0,0,0,0,0,40.96,1352.49,2584112
0.0010376,0.0115356,1.04199,0.244141,0.183105,-0.671387,0.008,0.029,0.27,-0.000610352,-0.00744629,0,0,0,0,0,40.96,1352.51,2584128
-0.0272827,-0.0306396,1.00085,-0.488281,-0.305176,-0.854492,-0.02,-0.013,0.28,-0.000610352,-0.00767517,0,0,0,0,0,40.96,1352.53,2584142
-0.00415039,-0.0352783,1.10449,-2.80762,0.366211,-1.28174,0.004,-0.014,0.32,-0.000640869,-0.00767517,0,0,0,0,0,40.96,1352.56,2584172
-0.00860596,0.0548096,1.00793,-1.46484,0.12207,-0.915527,0,0.072,0.33,-0.000640869,-0.00762939,0,0,0,0,0,40.96,1352.57,2584188
-0.0126343,0.0235596,0.962036,1.40381,-0.488281,-0.549316,-0.005,0.04,0.35,-0.000640869,-0.00750732,0,0,0,0,0,40.96,1352.59,2584202
-0.00933838,-0.00445557,1.04266,-0.366211,-0.244141,0,-0.001,0.013,0.35,-0.000686646,-0.00730896,0,0,0,0,0,40.96,1352.61,2584232
-0.0159302,-0.041626,1.04321,-0.366211,0.0610352,0.793457,-0.008,-0.022,0.33,-0.000717163,-0.00708008,0,0,0,0,0,40.96,1352.64,2584262
-0.0237427,-0.0462646,1.04102,-0.793457,-0.183105,0.610352,-0.016,-0.027,0.32,-0.000717163,-0.00700378,0,0,0,0,0,40.96,1352.66,2584277
-0.00189209,-0.00390625,0.980957,-0.427246,-0.976562,0.488281,0.005,0.013,0.31,-0.000717163,-0.00692749,0,0,0,0,0,40.96,1352.67,2584292
-0.00158691,0.0279541,0.969299,0,-0.488281,0.0610352,0.005,0.045,0.31,-0.000717163,-0.00680542,0,0,0,0,0,40.96,1352.69,2584308
-0.0206299,-0.0730591,1.04297,0.12207,-0.244141,-0.244141,-0.013,-0.054,0.31,-0.000717163,-0.00669861,0,0,0,0,0,40.96,1352.71,2584322
-0.00653076,0.020752,0.945496,0.12207,-0.854492,-0.488281,0,0.037,0.32,-0.000717163,-0.0065155,0,0,0,0,0,40.96,1352.73,2584352
0.00189209,0.0114136,1.03052,0.793457,-0.183105,-0.366211,0.009,0.029,0.33,-0.000717163,-0.00636292,0,0,0,0,0,40.96,1352.75,2584368
0.00952148,0.0123901,1.10632,1.09863,-0.183105,-0.671387,0.017,0.031,0.34,-0.000717163,-0.00616455,0,0,0,0,0,40.96,1352.77,2584383
-0.00335693,-0.0216675,1.02051,-0.854492,-0.183105,-0.366211,0.003,-0.003,0.35,-0.000717163,-0.00590515,0,0,0,0,0,40.96,1352.79,2584413
0.00299072,0.0637207,0.975403,-0.0610352,-0.671387,-0.183105,0.009,0.081,0.36,-0.000717163,-0.00575256,0,0,0,0,0,40.94,1352.81,2584428
0.00512695,-0.00640869,1.01807,0.12207,-0.488281,0.488281,0.011,0.011,0.36,-0.000717163,-0.00553894,0,0,0,0,0,40.94,1352.83,2584443
-0.0184326,-0.0443115,1.00226,0.305176,0.183105,-0.793457,-0.012,-0.027,0.35,-0.000717163,-0.00517273,0,0,0,0,0,40.94,1352.86,2584473
0.0128174,-0.0609741,0.993164,-0.305176,-0.366211,-0.915527,0.018,-0.044,0.37,-0.000717163,-0.00505066,0,0,0,0,0,40.94,1352.87,2584488
-0.0182495,-0.00848389,0.992493,-0.488281,0.183105,-0.610352,-0.012,0.008,0.38,-0.000717163,-0.00494385,0,0,0,0,0,40.94,1352.89,2584503
-0.00671387,-0.0269775,1.03497,0.183105,-0.183105,-0.854492,0,-0.009,0.41,-0.000717163,-0.00463867,0,0,0,0,0,40.94,1352.91,2584533
-0.012207,-0.0557251,0.97522,-0.0610352,0.305176,-1.46484,-0.006,-0.039,0.43,-0.000717163,-0.00448608,0,0,0,0,0,40.94,1352.93,2584548
0.0204468,0.0291748,0.992004,-0.671387,0,-0.610352,0.027,0.045,0.46,-0.000717163,-0.00418091,0,0,0,0,0,40.94,1352.95,2584578
-0.0428467,0.0290527,0.972656,0.671387,0.366211,-1.28174,-0.036,0.045,0.48,-0.000701904,-0.00393677,0,0,0,0,0,40.94,1352.97,2584593
-0.000976562,0.00817871,1.02747,0.183105,-0.12207,-0.366211,0.005,0.025,0.48,-0.000717163,-0.00364685,0,0,0,0,0,40.94,1352.99,2584608
-0.0291138,0.0119629,0.96051,0.244141,-0.549316,-0.427246,-0.022,0.027,0.51,-0.000732422,-0.00309753,0,0,0,0,0,40.94,1353.02,2584638
0.0119629,0.0167236,1.01111,-0.183105,-0.610352,0.244141,0.018,0.033,0.51,-0.000732422,-0.00279236,0,0,0,0,0,40.94,1353.03,2584653
-0.0413818,-0.0447998,1.04535,0,0.671387,-0.0610352,-0.034,-0.027,0.51,-0.000762939,-0.00247192,0,0,0,0,0,40.94,1353.05,2584668
0.0200195,-0.0934448,1.06177,-0.305176,-0.12207,-0.244141,0.026,-0.076,0.51,-0.000778198,-0.00222778,0,0,0,0,0,40.94,1353.07,2584683
-0.00549316,-0.00134277,0.981812,0.12207,-0.671387,-1.52588,0,0.014,0.53,-0.000793457,-0.00177002,0,0,0,0,0,40.94,1353.09,2584713
0.0235596,-0.0310059,1.00916,-1.34277,-0.305176,-0.915527,0.029,-0.014,0.56,-0.000778198,-0.00151062,0,0,0,0,0,40.94,1353.11,2584728
-0.0133057,0.0379028,0.975525,-0.183105,-0.0610352,-1.0376,-0.006,0.054,0.57,-0.000732422,-0.00123596,0,0,0,0,0,40.94,1353.13,2584743
0.0177002,-0.0108032,1.05267,0.915527,0.366211,-0.366211,0.024,0.005,0.59,-0.000640869,-0.000640869,0,0,0,0,0,40.94,1353.15,2584773
-0.0249023,-0.039917,1.0376,1.09863,0.305176,-1.09863,-0.018,-0.023,0.6,-0.000564575,-0.000350952,0,0,0,0,0,40.94,1353.17,2584788
-0.00579834,-0.0110474,1.01581,-0.244141,-0.183105,-0.366211,0,0.004,0.61,-0.000518799,-6.10352e-05,0,0,0,0,0,40.94,1353.19,2584803
-0.000183105,-0.0523682,1.02136,-0.732422,0.0610352,-0.244141,0.006,-0.036,0.61,-0.000518799,0.000534058,0,0,0,0,0,40.94,1353.21,2584833
-0.0266724,0.010498,1.01483,-0.244141,-0.549316,0.183105,-0.019,0.026,0.61,-0.000518799,0.000839233,0,0,0,0,0,40.94,1353.23,2584848
0.0108643,0.0215454,1.01672,-1.09863,-1.15967,-0.549316,0.018,0.037,0.64,-0.000595093,0.00143433,0,0,0,0,0,40.94,1353.25,2584878
     0,-0.0150757,1.02167,-0.549316,-0.488281,-0.244141,0.006,0.001,0.64,-0.00062561,0.00175476,0,0,0,0,0,40.94,1353.27,2584893
0.022644,-0.0695801,1.04401,-1.52588,-0.183105,0.183105,0.028,-0.052,0.64,-0.00062561,0.00204468,0,0,0,0,0,40.94,1353.29,2584908
0.0107422,0.0266113,0.966797,0.12207,-0.976562,0.671387,0.017,0.042,0.63,-0.000595093,0.00233459,0,0,0,0,0,40.94,1353.31,2584923
-0.0151367,-0.0997314,0.995972,2.2583,0.732422,-1.0376,-0.01,-0.084,0.64,-0.000610352,0.00271606,0,0,0,0,0,40.93,1353.33,2584953
0.0263672,-0.0101929,0.892029,2.0752,0.0610352,-1.28174,0.031,0.003,0.66,-0.00062561,0.00279236,0,0,0,0,0,40.93,1353.35,2584968
0.010498,0.0325317,1.06049,-0.671387,0.488281,-0.915527,0.017,0.048,0.69,-0.000610352,0.00285339,0,0,0,0,0,40.93,1353.38,2584998
0.00158691,-0.00384521,0.999146,-1.70898,0.427246,-2.2583,0.008,0.011,0.71,-0.000610352,0.00292969,0,0,0,0,0,40.93,1353.39,2585013
-0.038147,-0.0264893,1.02997,-1.77002,0.854492,-2.62451,-0.031,-0.009,0.75,-0.00062561,0.00292969,0,0,0,0,0,40.93,1353.41,2585028
-0.00738525,0.0159302,1.01855,-1.34277,0.488281,-0.793457,0,0.032,0.77,-0.000671387,0.00294495,0,0,0,0,0,40.93,1353.43,2585043
-0.0324097,-0.0148315,1.00446,0.732422,0.244141,0.793457,-0.024,0.001,0.77,-0.000793457,0.00306702,0,0,0,0,0,40.93,1353.45,2585073
-0.00360107,-0.0126953,1.0144,1.0376,-0.427246,0.488281,0.004,0.002,0.76,-0.00088501,0.00306702,0,0,0,0,0,40.93,1353.48,2585088
-0.0115967,-0.0120239,0.958252,-1.15967,-0.793457,0.854492,-0.004,0.003,0.74,-0.000991821,0.00297546,0,0,0,0,0,40.93,1353.5,2585118
0.00982666,0.0484619,0.98822,-0.976562,-0.488281,0.366211,0.017,0.064,0.73,-0.000991821,0.00296021,0,0,0,0,0,40.93,1353.51,2585133
0.0119629,-0.00549316,1.039,-0.549316,-0.305176,1.15967,0.019,0.011,0.72,-0.000991821,0.00299072,0,0,0,0,0,40.93,1353.53,2585148
0.00311279,0.00482178,0.986267,0.366211,0.244141,-0.427246,0.01,0.02,0.71,-0.000991821,0.00292969,0,0,0,0,0,40.93,1353.55,2585178
0.00262451,0.0120239,0.99353,0.427246,0.0610352,-0.488281,0.009,0.027,0.72,-0.000991821,0.00291443,0,0,0,0,0,40.93,1353.57,2585193
-0.0200806,-0.0769043,1.01819,0,1.46484,-0.366211,-0.013,-0.06,0.72,-0.000991821,0.00286865,0,0,0,0,0,40.93,1353.59,2585208
0.0111694,-0.0492554,1.01331,-0.305176,0.976562,0.610352,0.018,-0.033,0.72,-0.000991821,0.00276184,0,0,0,0,0,40.93,1353.61,2585223
-0.0422974,0.00854492,1.02191,0.0610352,0.488281,-0.244141,-0.034,0.025,0.72,-0.00102234,0.00248718,0,0,0,0,0,40.93,1353.63,2585253
-0.00372314,-0.0253906,1.03088,-0.549316,-0.244141,0.244141,0.004,-0.008,0.72,-0.00106812,0.00236511,0,0,0,0,0,40.93,1353.65,2585269
0.0185547,0.045166,0.976807,-0.488281,-0.915527,0.915527,0.027,0.061,0.7,-0.00115967,0.00219727,0,0,0,0,0,40.93,1353.68,2585298
-0.0140991,-0.0491943,1.0155,0.0610352,-0.976562,0.915527,-0.006,-0.032,0.68,-0.00119019,0.00215149,0,0,0,0,0,40.93,1353.69,2585313
-0.0422363,-0.0447388,1.04749,0.0610352,-0.12207,-0.610352,-0.034,-0.027,0.68,-0.00123596,0.00205994,0,0,0,0,0,40.93,1353.71,2585329
0.0234985,0.0157471,1.02673,-1.15967,-1.15967,-1.2207,0.031,0.032,0.7,-0.001297,0.00198364,0,0,0,0,0,40.93,1353.73,2585343
-0.0165405,-0.0374756,1.02222,0.732422,0.854492,-1.15967,-0.009,-0.019,0.74,-0.00131226,0.00192261,0,0,0,0,0,40.93,1353.75,2585373
0.0321655,-0.0253296,1.00867,0.0610352,0.12207,-0.976562,0.039,-0.008,0.75,-0.001297,0.00192261,0,0,0,0,0,40.93,1353.77,2585389
-0.0130005,-0.0215454,0.993347,0.793457,0.793457,-1.52588,-0.006,-0.004,0.78,-0.00125122,0.00192261,0,0,0,0,0,40.93,1353.79,2585403
-0.0193481,-0.0578613,1.008,0.183105,0.976562,-0.671387,-0.012,-0.041,0.81,-0.0012207,0.00189209,0,0,0,0,0,40.93,1353.81,2585433
0.0136719,0.0528564,0.977478,-0.854492,-0.305176,0.549316,0.022,0.068,0.8,-0.0012207,0.00187683,0,0,0,0,0,40.89,1353.83,2585449
-0.0410767,-0.0209351,0.989929,-0.671387,-0.488281,0.0610352,-0.033,-0.004,0.8,-0.0012207,0.00190735,0,0,0,0,0,40.89,1353.85,2585463
-0.0248413,-0.0528564,1.04584,-1.28174,-0.732422,-0.305176,-0.016,-0.035,0.8,-0.00131226,0.00187683,0,0,0,0,0,40.89,1353.87,2585493
-0.0116577,0.0302124,0.992859,-0.305176,-1.28174,-0.305176,-0.002,0.046,0.81,-0.00138855,0.00186157,0,0,0,0,0,40.89,1353.89,2585509
0.0241699,0.052063,0.999512,0.244141,-1.40381,0.427246,0.032,0.068,0.81,-0.00144958,0.00190735,0,0,0,0,0,40.89,1353.91,2585523
-0.0250244,-0.105469,1.07501,0.244141,0.427246,-0.854492,-0.018,-0.087,0.8,-0.00154114,0.00209045,0,0,0,0,0,40.89,1353.93,2585553
-0.00616455,-0.00488281,1.03198,0.0610352,0.244141,-1.09863,0.001,0.012,0.81,-0.00154114,0.00210571,0,0,0,0,0,40.89,1353.95,2585569
0.00726318,-0.0280151,0.980103,0,0.0610352,-0.488281,0.013,-0.011,0.82,-0.00154114,0.00212097,0,0,0,0,0,40.89,1353.97,2585583
0.0197754,0.00701904,1.00165,0,0.12207,-0.732422,0.027,0.023,0.84,-0.00144958,0.00213623,0,0,0,0,0,40.89,1353.99,2585613
0.0178833,-0.0793457,1.047,0,0.366211,-0.854492,0.024,-0.062,0.84,-0.00134277,0.00212097,0,0,0,0,0,40.89,1354.01,2585629
-0.0184937,-0.0221558,1.02875,0,0.488281,-1.83105,-0.011,-0.005,0.86,-0.00123596,0.00205994,0,0,0,0,0,40.89,1354.03,2585643
-0.00897217,0.00622559,1.02271,-0.183105,0.305176,0.732422,0,0.023,0.88,-0.00114441,0.00209045,0,0,0,0,0,40.89,1354.05,2585673
-0.0541382,-0.00891113,1.03589,0.12207,0.12207,0.305176,-0.046,0.009,0.87,-0.00117493,0.00213623,0,0,0,0,0,40.89,1354.07,2585689
-0.00598145,-0.0159302,1.00659,0.12207,-0.549316,0.427246,0.001,0.001,0.86,-0.00123596,0.00218201,0,0,0,0,0,40.89,1354.09,2585703
-0.0146484,0.0103149,1.03149,0.549316,-0.671387,0.366211,-0.006,0.027,0.85,-0.001297,0.00244141,0,0,0,0,0,40.89,1354.11,2585733
-0.0057373,-0.104431,1.05682,1.15967,0.549316,0.12207,0,-0.087,0.84,-0.001297,0.00256348,0,0,0,0,0,40.89,1354.13,2585749
0.0183105,0.0344849,1.03442,0.976562,-0.671387,0.183105,0.026,0.05,0.84,-0.00128174,0.00265503,0,0,0,0,0,40.89,1354.15,2585764
-0.00366211,-0.065918,0.984314,0.366211,0.427246,-1.70898,0.002,-0.051,0.86,-0.00112915,0.00328064,0,0,0,0,0,40.89,1354.18,2585794
0.0245972,-0.110901,0.955627,0.12207,0.854492,-1.15967,0.029,-0.097,0.88,-0.00102234,0.00354004,0,0,0,0,0,40.89,1354.2,2585809
-0.00842285,0.0701294,1.06085,-0.732422,0.854492,0.671387,0,0.086,0.87,-0.00088501,0.00379944,0,0,0,0,0,40.89,1354.21,2585824
-0.0271606,-0.0264282,0.953064,-2.92969,0.366211,-0.366211,-0.02,-0.01,0.89,-0.000610352,0.00411987,0,0,0,0,0,40.89,1354.23,2585854
-0.0882568,0.0735474,0.975281,-0.671387,-0.12207,-0.976562,-0.079,0.091,0.89,-0.000549316,0.00418091,0,0,0,0,0,40.89,1354.25,2585869
0.0155029,0.00701904,1.0426,-1.46484,0.244141,-0.915527,0.024,0.023,0.91,-0.000534058,0.00431824,0,0,0,0,0,40.89,1354.27,2585884
-0.0310669,-0.0239868,1.04236,1.34277,-0.732422,0.366211,-0.023,-0.006,0.91,-0.000457764,0.00448608,0,0,0,0,0,40.89,1354.3,2585914
0.024231,-0.00732422,1.04913,0.976562,-0.793457,-0.854492,0.032,0.008,0.92,-0.000442505,0.00454712,0,0,0,0,0,40.89,1354.31,2585929
0.0123901,-0.0791016,1.00323,-0.427246,-1.0376,-1.77002,0.018,-0.063,0.94,-0.00038147,0.00456238,0,0,0,0,0,40.89,1354.33,2585944
0.0150757,0.0194092,1.02338,-0.732422,0.366211,-1.09863,0.022,0.036,0.97,-0.000366211,0.00453186,0,0,0,0,0,40.9,1354.35,2585974
-0.0202637,-0.0171509,0.99176,0,0.305176,-0.427246,-0.013,0,0.98,-0.000366211,0.00454712,0,0,0,0,0,40.9,1354.37,2585989
0.0294189,-0.034729,1.01208,0.915527,0.732422,-0.915527,0.035,-0.018,0.99,-0.000335693,0.00456238,0,0,0,0,0,40.9,1354.39,2586004
0.0112305,-0.0101318,1.00122,0.793457,0.427246,-0.427246,0.018,0.005,1.02,-0.000244141,0.00456238,0,0,0,0,0,40.9,1354.41,2586034
-0.0473633,-0.0299683,0.98938,1.64795,1.34277,-0.366211,-0.04,-0.013,1.02,-0.000228882,0.00456238,0,0,0,0,0,40.9,1354.43,2586049
-0.0280762,-0.000854492,1.02148,0.427246,0.366211,0.12207,-0.02,0.015,1.02,-0.000228882,0.00456238,0,0,0,0,0,40.9,1354.45,2586064
-0.0412598,0.0153198,0.983765,-0.793457,-0.305176,0.12207,-0.033,0.031,1.02,-0.000244141,0.00453186,0,0,0,0,0,40.9,1354.47,2586094
-0.00134277,-0.0452881,0.987305,0,-0.671387,0.488281,0.005,-0.029,1.02,-0.000259399,0.00453186,0,0,0,0,0,40.9,1354.49,2586109
-0.00250244,0.0146484,1.03741,0.12207,-0.183105,0.488281,0.005,0.03,1.01,-0.000259399,0.00453186,0,0,0,0,0,40.9,1354.51,2586124
-0.0269775,0.026123,0.99762,0.732422,-0.427246,-0.549316,-0.019,0.041,0.99,-0.000198364,0.00454712,0,0,0,0,0,40.9,1354.53,2586154
0.0163574,0.00408936,1.01703,0.183105,-0.732422,-1.15967,0.023,0.019,1.01,-0.000167847,0.0045929,0,0,0,0,0,40.9,1354.55,2586169
0.0183105,-0.024292,0.983643,-0.915527,-0.427246,-0.976562,0.024,-0.009,1.02,-0.000106812,0.0045929,0,0,0,0,0,40.9,1354.57,2586184
0.00512695,-0.00415039,1.02527,0.12207,-0.0610352,-0.0610352,0.012,0.011,1.04,-3.05176e-05,0.00453186,0,0,0,0,0,40.9,1354.6,2586214
0.00115967,0.0266113,0.984863,0.427246,-0.366211,-0.915527,0.008,0.041,1.05,-3.05176e-05,0.00453186,0,0,0,0,0,40.9,1354.61,2586229
-0.0100708,0.0278931,0.983032,0.915527,-0.305176,-0.366211,-0.002,0.043,1.07,-3.05176e-05,0.00457764,0,0,0,0,0,40.9,1354.64,2586259
-0.00946045,0.0119019,0.987061,0.671387,-0.549316,0.366211,-0.002,0.026,1.07,-3.05176e-05,0.00465393,0,0,0,0,0,40.9,1354.66,2586274
-0.0266113,-0.0634155,1.02228,0.244141,-0.244141,0.427246,-0.02,-0.047,1.06,-4.57764e-05,0.00471497,0,0,0,0,0,40.9,1354.67,2586289
-0.0010376,-0.00439453,1.03229,0,-0.610352,-0.366211,0.006,0.01,1.06,-6.10352e-05,0.00474548,0,0,0,0,0,40.9,1354.69,2586304
0.00720215,0.0262451,0.983093,1.34277,0,-1.40381,0.014,0.04,1.1,-9.15527e-05,0.00492859,0,0,0,0,0,40.9,1354.71,2586334
0.00933838,0.0324097,1.03516,1.2207,-0.183105,-1.0376,0.016,0.046,1.12,-9.15527e-05,0.00511169,0,0,0,0,0,40.9,1354.73,2586349
-0.00579834,-0.0375977,1.05524,0.915527,0.427246,-1.0376,0,-0.022,1.13,-9.15527e-05,0.0052948,0,0,0,0,0,40.9,1354.75,2586364
-0.0251465,-0.0864868,1.01892,-0.244141,0.366211,-1.58691,-0.02,-0.072,1.19,-0.000106812,0.00575256,0,0,0,0,0,40.9,1354.78,2586394
0.0114136,0.0267944,1.01312,-0.854492,1.09863,-1.40381,0.018,0.039,1.21,-0.00012207,0.00595093,0,0,0,0,0,40.9,1354.8,2586409
-0.00769043,0.00292969,1.02002,-0.12207,0.427246,-1.83105,0,0.016,1.24,-0.000137329,0.00617981,0,0,0,0,0,40.9,1354.81,2586424
-0.0131836,0.0236816,0.98291,-0.12207,-0.305176,-1.15967,-0.005,0.037,1.27,-0.000137329,0.0065918,0,0,0,0,0,40.9,1354.83,2586454
-0.0492554,-0.0198975,0.995422,0.488281,-0.0610352,-0.671387,-0.042,-0.005,1.28,-0.000167847,0.00680542,0,0,0,0,0,40.92,1354.85,2586469
0.0078125,-0.0211792,1.0498,0.0610352,0.305176,-0.183105,0.015,-0.007,1.28,-0.000228882,0.00680542,0,0,0,0,0,40.92,1354.87,2586484
0.00665283,-0.0231323,1.02228,-0.854492,-0.610352,-0.427246,0.013,-0.009,1.27,-0.000259399,0.00680542,0,0,0,0,0,40.92,1354.89,2586514
0.0296631,0.0222778,1.01678,-0.793457,-0.793457,-1.52588,0.037,0.035,1.29,-0.000228882,0.00682068,0,0,0,0,0,40.92,1354.91,2586529
0.00152588,0.000732422,0.973572,-0.610352,-0.610352,-1.40381,0.008,0.014,1.31,-0.000167847,0.00686646,0,0,0,0,0,40.92,1354.93,2586544
0.00592041,0.0280762,1.05798,0.671387,0.305176,-0.915527,0.014,0.042,1.35,1.52588e-05,0.00709534,0,0,0,0,0,40.92,1354.95,2586574
0.0526123,0.151306,0.964783,1.89209,-0.976562,-0.305176,0.063,0.162,1.36,0.000183105,0.00738525,0,0,0,0,0,40.92,1354.97,2586589
-0.0415649,-0.0849609,0.916016,2.31934,0.610352,-0.549316,-0.037,-0.072,1.36,0.000366211,0.00773621,0,0,0,0,0,40.92,1354.99,2586604
-0.0513306,-0.0245972,1.12061,0.0610352,1.09863,0.183105,-0.043,-0.01,1.38,0.000640869,0.00839233,0,0,0,0,0,40.92,1355.01,2586634
0.00469971,-0.00170898,1.01978,-1.15967,-0.12207,-0.305176,0.012,0.01,1.37,0.000747681,0.00872803,0,0,0,0,0,40.92,1355.03,2586650
-0.0206299,-0.00628662,0.950134,-2.44141,-0.915527,-0.610352,-0.013,0.006,1.38,0.000839233,0.00872803,0,0,0,0,0,40.92,1355.05,2586664
0.0088501,0.0114136,1.06244,-1.46484,-0.427246,-1.2207,0.017,0.025,1.4,0.000946045,0.00874329,0,0,0,0,0,40.92,1355.07,2586694
-0.0113525,-0.00323486,0.987915,-1.09863,-0.793457,-0.0610352,-0.004,0.009,1.41,0.000991821,0.00878906,0,0,0,0,0,40.92,1355.09,2586710
-0.00921631,0.00311279,0.968384,0.183105,-0.854492,0.0610352,-0.002,0.016,1.4,0.000991821,0.0088501,0,0,0,0,0,40.92,1355.11,2586724
-0.00726318,-0.0747681,0.970398,-0.12207,0.183105,-0.915527,-0.002,-0.062,1.43,0.000991821,0.00907898,0,0,0,0,0,40.92,1355.13,2586754
0.0265503,0.0726929,0.994751,0.305176,0.549316,-1.58691,0.035,0.085,1.45,0.00102234,0.00920105,0,0,0,0,0,40.92,1355.15,2586770
0.00311279,-0.00561523,1.04333,0.488281,1.0376,-1.46484,0.01,0.007,1.47,0.00106812,0.00939941,0,0,0,0,0,40.92,1355.17,2586784
-0.0200806,-0.0651245,1.01526,-0.488281,0.610352,-0.305176,-0.014,-0.051,1.48,0.00114441,0.00964355,0,0,0,0,0,40.92,1355.19,2586814
-0.0473022,-0.00262451,0.969543,0.549316,0.549316,0.366211,-0.039,0.011,1.48,0.00109863,0.00970459,0,0,0,0,0,40.92,1355.21,2586830
-0.0283203,-0.0748901,1.01135,0,0.12207,0.183105,-0.021,-0.061,1.49,0.000976562,0.00985718,0,0,0,0,0,40.92,1355.24,2586859
-0.0205688,-0.0571289,1.0119,-0.976562,-0.427246,0.183105,-0.013,-0.043,1.48,0.000869751,0.00985718,0,0,0,0,0,40.92,1355.25,2586874
0.00384521,0.024292,1.02972,-0.183105,-1.2207,-0.305176,0.013,0.037,1.48,0.000778198,0.00984192,0,0,0,0,0,40.92,1355.27,2586890
0.00445557,-0.0366821,1.0249,-0.305176,-0.427246,-0.427246,0.011,-0.023,1.49,0.000778198,0.00984192,0,0,0,0,0,40.92,1355.29,2586904
-0.00238037,-0.0300293,1.04828,-0.305176,-0.427246,0.671387,0.005,-0.016,1.5,0.000778198,0.00964355,0,0,0,0,0,40.92,1355.31,2586934
-0.0142212,-0.0177612,0.992432,0.183105,0,0,-0.006,-0.004,1.5,0.000778198,0.00964355,0,0,0,0,0,40.92,1355.33,2586950
0.0098877,-0.0429688,1.03107,0,0.12207,-0.366211,0.016,-0.03,1.51,0.000778198,0.00961304,0,0,0,0,0,40.92,1355.36,2586964
-0.00366211,-0.0396118,1.01862,0.0610352,0.793457,-0.854492,0.003,-0.026,1.51,0.000778198,0.00956726,0,0,0,0,0,40.9,1355.37,2586994
0.0120239,-0.0736694,1.03888,-0.671387,1.15967,-0.183105,0.018,-0.06,1.51,0.000778198,0.00947571,0,0,0,0,0,40.9,1355.39,2587010
-0.0263672,0.0241699,0.984009,-0.183105,0.183105,0.183105,-0.017,0.037,1.51,0.000778198,0.0093689,0,0,0,0,0,40.9,1355.42,2587024
-0.0213623,-0.0609131,1.04987,0.305176,0.549316,-0.183105,-0.013,-0.047,1.51,0.000778198,0.00921631,0,0,0,0,0,40.9,1355.43,2587054
-0.0231934,-0.0422974,1.05524,-0.183105,-0.0610352,0.915527,-0.015,-0.028,1.51,0.000778198,0.00906372,0,0,0,0,0,40.9,1355.45,2587070
-0.00268555,-0.00427246,1.0163,-0.610352,-0.610352,0.12207,0.005,0.008,1.49,0.000778198,0.00891113,0,0,0,0,0,40.9,1355.47,2587084
0.00634766,0.0043335,1.01965,-0.244141,-1.15967,-0.244141,0.014,0.017,1.49,0.000778198,0.00874329,0,0,0,0,0,40.9,1355.49,2587114
-0.0132446,0.00939941,1.0188,0.671387,0.305176,-1.2207,-0.004,0.023,1.51,0.000778198,0.00871277,0,0,0,0,0,40.9,1355.51,2587130
0.00390625,-0.048645,1.03778,1.77002,0.183105,-1.2207,0.011,-0.035,1.52,0.000778198,0.00866699,0,0,0,0,0,40.9,1355.53,2587145
-0.00445557,-0.0333862,1.02374,0.427246,0.0610352,-0.427246,0.002,-0.02,1.54,0.000778198,0.00834656,0,0,0,0,0,40.9,1355.55,2587175
-0.0134277,0.0183105,0.980042,0.732422,0.12207,-0.976562,-0.005,0.03,1.56,0.000778198,0.00814819,0,0,0,0,0,40.9,1355.57,2587190
-0.0241699,-0.0592041,1.03308,0.305176,1.09863,-0.793457,-0.017,-0.045,1.57,0.000778198,0.00794983,0,0,0,0,0,40.9,1355.59,2587205
-0.0327148,0.0298462,0.976196,-0.671387,-0.183105,-0.12207,-0.023,0.043,1.57,0.000793457,0.00743103,0,0,0,0,0,40.9,1355.61,2587235
-0.0255127,0.0560913,0.982666,0.183105,-1.09863,0.0610352,-0.015,0.069,1.57,0.000778198,0.00726318,0,0,0,0,0,40.9,1355.63,2587250
0.00604248,-0.0508423,1.02911,0.732422,-0.488281,-0.366211,0.013,-0.038,1.57,0.000778198,0.0071106,0,0,0,0,0,40.9,1355.65,2587265
0.0186768,-0.0215454,0.988098,-1.40381,-1.28174,0,0.026,-0.009,1.57,0.000793457,0.00665283,0,0,0,0,0,40.9,1355.67,2587295
-0.0110474,0.00689697,1.00995,-0.12207,-0.854492,-0.0610352,-0.002,0.02,1.57,0.000823975,0.00640869,0,0,0,0,0,40.9,1355.69,2587310
-0.020752,-0.101746,1.04541,-1.09863,-0.549316,0.732422,-0.015,-0.087,1.56,0.000839233,0.00611877,0,0,0,0,0,40.9,1355.71,2587325
0.00158691,0.0413818,1.00262,0.610352,-0.427246,-0.12207,0.009,0.054,1.57,0.000930786,0.00550842,0,0,0,0,0,40.9,1355.73,2587355
-0.0582886,-0.169128,1.14679,3.11279,1.40381,-0.244141,-0.054,-0.152,1.57,0.000946045,0.00515747,0,0,0,0,0,40.9,1355.75,2587370
-0.0369873,-0.0999756,0.9776,2.80762,1.34277,0.549316,-0.032,-0.087,1.57,0.000915527,0.00465393,0,0,0,0,0,40.9,1355.77,2587385
-0.00842285,-0.0119019,1.06696,0.366211,1.09863,-0.671387,0,0.001,1.59,0.000854492,0.00408936,0,0,0,0,0,40.9,1355.79,2587415
-0.0352173,-0.0289917,1.06708,-1.77002,0.12207,0.0610352,-0.027,-0.014,1.59,0.000808716,0.00408936,0,0,0,0,0,40.9,1355.81,2587430
0.0189819,-0.00860596,0.956482,-3.23486,-0.305176,-0.671387,0.026,0.003,1.6,0.000762939,0.00408936,0,0,0,0,0,40.9,1355.83,2587445
-0.0151978,0.0309448,1.00818,-1.34277,-1.2207,0.854492,-0.006,0.045,1.58,0.000747681,0.00410461,0,0,0,0,0,40.9,1355.85,2587475
-0.0281372,0.00744629,0.967773,0.549316,-0.427246,0.610352,-0.02,0.021,1.57,0.000732422,0.00418091,0,0,0,0,0,40.93,1355.87,2587490
0.0189819,-0.0458984,1.00507,0.976562,-1.0376,1.40381,0.025,-0.032,1.55,0.000717163,0.00424194,0,0,0,0,0,40.93,1355.89,2587505
-0.00640869,-0.043335,1.04266,0.0610352,-0.976562,-0.0610352,0,-0.029,1.53,0.000717163,0.00439453,0,0,0,0,0,40.93,1355.91,2587535
0.0325317,0.0933228,0.995056,0.549316,-0.427246,-0.0610352,0.041,0.105,1.53,0.000747681,0.00453186,0,0,0,0,0,40.93,1355.94,2587550
-0.0186157,0.0203857,1.02875,0.732422,0.793457,0.488281,-0.011,0.033,1.52,0.000793457,0.00476074,0,0,0,0,0,40.93,1355.95,2587565
0.00201416,-0.00195312,1.01343,4.45557,0.732422,-0.427246,0.008,0.007,1.54,0.000930786,0.00543213,0,0,0,0,0,40.93,1355.97,2587595
-0.0299072,0.0296631,0.989319,5.18799,0,-0.671387,-0.022,0.038,1.55,0.00100708,0.00582886,0,0,0,0,0,40.93,1355.99,2587610
-0.0078125,-0.00305176,1.02362,4.82178,0.305176,-1.28174,-0.001,0.003,1.57,0.00106812,0.00624084,0,0,0,0,0,40.93,1356.01,2587625
-0.0250244,0.00750732,1.00378,2.13623,-0.549316,-0.0610352,-0.017,0.012,1.59,0.00111389,0.00706482,0,0,0,0,0,40.93,1356.03,2587655
-0.0119019,0.0363159,0.992432,2.50244,-0.610352,-1.09863,-0.004,0.04,1.6,0.00111389,0.00750732,0,0,0,0,0,40.93,1356.05,2587670
-0.00744629,-0.0235596,1.04236,2.38037,-0.671387,0.305176,-0.001,-0.02,1.6,0.00111389,0.00794983,0,0,0,0,0,40.93,1356.07,2587685
-0.00408936,0.00970459,0.973145,-0.793457,-0.671387,-0.427246,0.002,0.012,1.59,0.00111389,0.00880432,0,0,0,0,0,40.93,1356.09,2587715
0.0247192,0.0257568,1.02185,-0.915527,-0.244141,-0.12207,0.031,0.027,1.6,0.00112915,0.00924683,0,0,0,0,0,40.93,1356.11,2587730
-0.00201416,0.0263062,1.02588,-0.427246,0.366211,-1.0376,0.004,0.029,1.6,0.00117493,0.00973511,0,0,0,0,0,40.93,1356.13,2587745
-0.00354004,0.00384521,0.992432,-0.488281,0.305176,-0.366211,0.002,0.006,1.63,0.00123596,0.0102234,0,0,0,0,0,40.93,1356.15,2587775
-0.00518799,-0.00732422,1.01935,-1.40381,0.793457,0.305176,0,-0.004,1.63,0.00123596,0.0102234,0,0,0,0,0,40.93,1356.17,2587790
0.0113525,0.000976562,1.01837,-1.83105,0.488281,0,0.017,0.004,1.63,0.00123596,0.0102234,0,0,0,0,0,40.93,1356.19,2587805
-0.0272217,0.0142822,0.985229,-2.74658,0.244141,-2.2583,-0.02,0.019,1.66,0.00120544,0.0102997,0,0,0,0,0,40.93,1356.21,2587835
0.0100098,0.041748,1.02466,-1.89209,0.0610352,-2.44141,0.018,0.046,1.7,0.00117493,0.0103912,0,0,0,0,0,40.93,1356.24,2587850
-0.0274658,0.0505981,1.02637,0,0.0610352,-1.46484,-0.018,0.055,1.73,0.00114441,0.0105438,0,0,0,0,0,40.93,1356.25,2587865
0.00360107,-0.0559692,1.02539,6.28662,-0.366211,0.366211,0.008,-0.055,1.71,0.00114441,0.0111389,0,0,0,0,0,40.93,1356.27,2587895
0.00537109,0.003479,1.01703,6.04248,-0.671387,0.854492,0.012,0.002,1.7,0.00114441,0.0114136,0,0,0,0,0,40.93,1356.29,2587910
0.00360107,-0.10199,1.01624,3.54004,-0.305176,0.671387,0.007,-0.104,1.69,0.00114441,0.0116272,0,0,0,0,0,40.93,1356.31,2587925
0.0168457,0.022583,1.0166,0.976562,-0.244141,1.2207,0.023,0.02,1.68,0.00117493,0.0117798,0,0,0,0,0,40.93,1356.33,2587940
0.00250244,0.0228271,1.02106,1.0376,0.12207,-0.0610352,0.009,0.02,1.66,0.00126648,0.0121155,0,0,0,0,0,40.93,1356.35,2587970
0.003479,-0.000488281,1.01227,0.549316,0,-1.34277,0.009,-0.003,1.67,0.00126648,0.0123138,0,0,0,0,0,40.93,1356.37,2587985
-0.0122681,0,1.01642,-0.183105,-0.12207,-1.58691,-0.005,-0.002,1.74,0.00126648,0.0124969,0,0,0,0,0,40.94,1356.39,2588015
-0.00274658,0.0313721,1.02026,0.12207,-0.244141,-1.28174,0.004,0.027,1.76,0.00126648,0.0125122,0,0,0,0,0,40.94,1356.41,2588031
-0.0203857,-0.00457764,1.01154,0.549316,-0.244141,-0.427246,-0.014,-0.007,1.77,0.00126648,0.0125427,0,0,0,0,0,40.94,1356.43,2588045
-0.0137329,0.00439453,1.02197,-1.28174,-0.305176,-0.549316,-0.007,0.001,1.77,0.00126648,0.0125732,0,0,0,0,0,40.94,1356.45,2588075
-0.00445557,-0.0169067,1.00647,-2.2583,-0.305176,0.244141,0.001,-0.019,1.77,0.00126648,0.0125732,0,0,0,0,0,40.94,1356.47,2588091
0.00762939,-0.00299072,1.00928,-2.74658,-0.244141,1.28174,0.013,-0.005,1.76,0.00126648,0.0125732,0,0,0,0,0,40.94,1356.49,2588105
0.00323486,0.000549316,1.0152,-3.60107,0.0610352,1.46484,0.009,0,1.71,0.00126648,0.0125732,0,0,0,0,0,40.94,1356.52,2588135
0.00921631,0.0155029,1.01843,-3.84521,0.12207,0.671387,0.015,0.015,1.69,0.00126648,0.0125732,0,0,0,0,0,40.94,1356.53,2588151
-0.00140381,0.0238037,1.00623,-3.66211,0.183105,-0.732422,0.005,0.025,1.7,0.00126648,0.0125885,0,0,0,0,0,40.94,1356.55,2588165
-0.0114136,0.00439453,1.01147,-3.11279,0.12207,-1.70898,-0.004,0.007,1.74,0.00126648,0.0127411,0,0,0,0,0,40.94,1356.57,2588195
-0.0142822,-0.0126343,1.00476,-3.2959,0.0610352,-1.40381,-0.008,-0.008,1.76,0.00126648,0.0127411,0,0,0,0,0,40.94,1356.6,2588211
-0.0149536,-0.00622559,1.01343,-4.3335,0,-1.52588,-0.008,-0.001,1.78,0.00126648,0.0127411,0,0,0,0,0,40.94,1356.61,2588225
-0.00738525,-0.0984497,1.08148,-4.45557,-0.12207,-0.793457,-0.003,-0.091,1.82,0.00126648,0.0127258,0,0,0,0,0,40.94,1356.63,2588255
-0.00524902,-0.0128174,1.00427,-3.17383,-0.427246,0.12207,0.001,-0.004,1.82,0.00126648,0.012619,0,0,0,0,0,40.94,1356.66,2588271
0.00762939,-0.0128784,0.949341,-1.83105,-1.28174,0.854492,0.013,-0.004,1.81,0.00126648,0.012619,0,0,0,0,0,40.94,1356.68,2588285
-0.0175171,-0.0605469,1.0329,1.15967,0.183105,1.09863,-0.012,-0.05,1.77,0.00126648,0.0125122,0,0,0,0,0,40.94,1356.7,2588315
0.00402832,-0.0445557,0.99762,0.915527,-0.0610352,0.732422,0.008,-0.035,1.75,0.00126648,0.0123749,0,0,0,0,0,40.94,1356.71,2588331
-0.0133057,-0.0214233,1.03149,0.427246,0.366211,0.0610352,-0.007,-0.01,1.75,0.00126648,0.0119629,0,0,0,0,0,40.94,1356.74,2588360
-0.000610352,-0.0340576,1.00726,0.0610352,0.12207,-0.610352,0.004,-0.023,1.75,0.00126648,0.011734,0,0,0,0,0,40.94,1356.76,2588375
-0.0106201,0.0175171,1.02087,1.09863,0.12207,-1.0376,-0.003,0.027,1.79,0.00126648,0.011261,0,0,0,0,0,40.94,1356.79,2588405
-0.00439453,-0.00469971,1.00665,1.40381,-0.305176,-1.40381,0.002,0.004,1.8,0.00126648,0.0110626,0,0,0,0,0,40.94,1356.81,2588420
-0.0108032,0.000244141,1.01605,0.854492,-0.366211,-0.915527,-0.004,0.009,1.84,0.00126648,0.0108643,0,0,0,0,0,40.94,1356.83,2588451
0.00244141,-0.0169067,1.00848,0.12207,-0.305176,-1.34277,0.008,-0.008,1.85,0.00126648,0.0108643,0,0,0,0,0,40.94,1356.85,2588465
-0.0128784,-0.0354004,1.03204,-0.854492,-0.183105,0,-0.007,-0.025,1.86,0.00126648,0.0108337,0,0,0,0,0,40.94,1356.87,2588495
0.0136108,-0.00756836,1.01404,-0.976562,-0.183105,0.488281,0.019,0.001,1.86,0.00126648,0.010788,0,0,0,0,0,40.92,1356.89,2588511
-0.00311279,-0.0115967,0.978271,-0.427246,-0.366211,0.305176,0.002,-0.002,1.85,0.00126648,0.0107422,0,0,0,0,0,40.92,1356.91,2588526
-0.00439453,-0.0333252,1.02313,0.915527,0.610352,-0.732422,0,-0.023,1.85,0.00126648,0.0107269,0,0,0,0,0,40.92,1356.93,2588556
-0.00665283,-0.0266113,0.995483,0.549316,0,-0.549316,-0.001,-0.017,1.86,0.00126648,0.0106659,0,0,0,0,0,40.92,1356.95,2588571
-0.0113525,-0.0105591,1.02258,0.244141,0.183105,-0.183105,-0.005,-0.001,1.87,0.00126648,0.0106049,0,0,0,0,0,40.92,1356.97,2588586
-0.0133667,0.00427246,1.00397,-0.12207,-0.427246,-0.12207,-0.006,0.013,1.87,0.00126648,0.0106049,0,0,0,0,0,40.92,1356.99,2588616
-0.00848389,0.0706177,1.00952,0.854492,-0.244141,-0.488281,0,0.079,1.87,0.00126648,0.0106659,0,0,0,0,0,40.92,1357.01,2588631
-0.00250244,0.0519409,1.00964,2.50244,-0.427246,-0.244141,0.005,0.059,1.88,0.00126648,0.0108185,0,0,0,0,0,40.92,1357.03,2588646
-0.00518799,-0.0148926,1.03253,5.49316,-0.12207,-0.793457,0,-0.01,1.9,0.00126648,0.0113525,0,0,0,0,0,40.92,1357.05,2588676
-0.00775146,0.0490723,0.978333,6.5918,-0.183105,-1.34277,0,0.051,1.92,0.00126648,0.0116577,0,0,0,0,0,40.92,1357.07,2588691
-0.0123901,-0.0214233,1.02618,5.00488,0.183105,-0.793457,-0.007,-0.02,1.93,0.00126648,0.0119934,0,0,0,0,0,40.92,1357.09,2588706
-0.0020752,-0.0299683,1.01062,4.5166,0,-0.183105,0.002,-0.031,1.94,0.00126648,0.0126343,0,0,0,0,0,40.92,1357.11,2588736
-0.0057373,0.0159302,1.01538,4.3335,0.12207,0.0610352,0,0.013,1.94,0.00126648,0.0129395,0,0,0,0,0,40.92,1357.13,2588751
-0.0169678,0.0111084,1.01361,4.39453,-0.12207,0,-0.011,0.007,1.94,0.00126648,0.0132599,0,0,0,0,0,40.92,1357.16,2588766
-0.00646973,0.00714111,1.01251,3.90625,-0.0610352,0.0610352,0,0.001,1.94,0.00126648,0.0132599,0,0,0,0,0,40.92,1357.17,2588796
-0.00946045,0.00354004,1.02692,3.35693,-0.12207,-0.12207,-0.003,-0.003,1.94,0.00126648,0.0132599,0,0,0,0,0,40.92,1357.19,2588811
-0.00842285,0.0184937,1.01135,3.2959,-0.305176,-0.12207,-0.002,0.01,1.94,0.00126648,0.0132599,0,0,0,0,0,40.92,1357.21,2588826
-0.00488281,0.00915527,1.01227,3.05176,-0.12207,0,0,0,1.94,0.00126648,0.0132599,0,0,0,0,0,40.92,1357.23,2588841
-0.00354004,0.00146484,1.00836,2.50244,-0.183105,-0.12207,0.001,-0.009,1.95,0.00126648,0.0132599,0,0,0,0,0,40.92,1357.25,2588871
-0.00323486,0.0198975,1.01025,2.44141,-0.12207,-0.366211,0.002,0.008,1.95,0.00126648,0.0132599,0,0,0,0,0,40.92,1357.27,2588886
-0.00469971,0.00994873,1.01947,2.50244,-0.12207,-0.0610352,0,-0.002,1.96,0.00126648,0.0132599,0,0,0,0,0,40.92,1357.29,2588901
-0.0102539,0.00927734,1.01569,2.2583,-0.0610352,0.12207,-0.005,-0.003,1.95,0.00126648,0.0132599,0,0,0,0,0,40.92,1357.31,2588931
-0.0137939,-0.00109863,1.02271,1.52588,0.12207,0.183105,-0.008,-0.014,1.95,0.00126648,0.0132599,0,0,0,0,0,40.92,1357.33,2588946
-0.00482178,0.0366211,1.01184,1.40381,-0.0610352,0.0610352,0.001,0.022,1.95,0.00126648,0.0132599,0,0,0,0,0,40.92,1357.35,2588961
0.00012207,0.0305176,1.01459,-0.0610352,-0.183105,-0.305176,0.006,0.015,1.95,0.00126648,0.0133514,0,0,0,0,0,40.92,1357.37,2588991
-0.0012207,0.0493164,1.0108,-0.0610352,-0.244141,0,0.005,0.034,1.96,0.00126648,0.0134277,0,0,0,0,0,40.92,1357.39,2589006
-0.00408936,0.0211182,1.00848,-1.0376,0,0.0610352,0.001,0.006,1.95,0.00126648,0.0136566,0,0,0,0,0,40.94,1357.41,2589036
-0.00494385,0.0213623,1.01508,-1.34277,0,-0.183105,0,0.006,1.95,0.00126648,0.0136566,0,0,0,0,0,40.94,1357.43,2589051
-0.00958252,0.0218506,1.02051,-1.34277,0.12207,-0.305176,-0.003,0.007,1.95,0.00126648,0.0136566,0,0,0,0,0,40.94,1357.45,2589066
-0.00604248,-0.0172729,1.02216,-1.95312,-0.0610352,-0.427246,-0.001,-0.031,1.96,0.00126648,0.0136414,0,0,0,0,0,40.94,1357.47,2589081
-0.0116577,0.0195923,1.00507,-2.19727,-0.183105,0.0610352,-0.005,0.007,1.96,0.00126648,0.0135651,0,0,0,0,0,40.94,1357.49,2589111
-0.000549316,0.0111084,1.01044,-2.19727,-0.0610352,0.0610352,0.004,0,1.96,0.00126648,0.0135651,0,0,0,0,0,40.94,1357.51,2589126
-0.00830078,0.0012207,1.01324,-2.62451,0,0,-0.003,-0.009,1.96,0.00126648,0.0135651,0,0,0,0,0,40.94,1357.53,2589156
-0.0032959,0.0269775,1.01288,-2.86865,0.12207,0,0.002,0.017,1.96,0.00126648,0.0135651,0,0,0,0,0,40.94,1357.55,2589171
-0.00683594,0.00927734,1.021,-2.74658,0.0610352,0.0610352,-0.001,0,1.96,0.00126648,0.0135651,0,0,0,0,0,40.94,1357.58,2589186
-0.00970459,-0.00384521,1.0144,-3.23486,0.12207,-0.0610352,-0.004,-0.011,1.96,0.00126648,0.0135651,0,0,0,0,0,40.94,1357.59,2589216
-0.00622559,0.0118408,1.01306,-3.41797,-0.12207,0,0,0.005,1.96,0.00126648,0.0135651,0,0,0,0,0,40.94,1357.61,2589231
-0.00909424,0.0010376,1.01666,-3.41797,-0.12207,0,-0.003,-0.004,1.96,0.00126648,0.0135651,0,0,0,0,0,40.94,1357.63,2589246
-0.00665283,0.00152588,1.00922,-4.02832,-0.183105,0,0,-0.002,1.95,0.00126648,0.0135651,0,0,0,0,0,40.94,1357.65,2589276
-0.00512695,0.0088501,1.02094,-4.21143,-0.0610352,-0.0610352,0,0.006,1.95,0.00126648,0.0135651,0,0,0,0,0,40.94,1357.68,2589291
-0.00238037,0.00817871,1.01654,-4.21143,0.0610352,-0.12207,0.003,0.006,1.95,0.00126648,0.0135651,0,0,0,0,0,40.94,1357.69,2589306
-0.00299072,0.00280762,1.01038,-5.00488,0.183105,-0.0610352,0.002,0.003,1.96,0.00126648,0.0135651,0,0,0,0,0,40.94,1357.71,2589336
-0.00531006,-0.000244141,1.00995,-5.43213,0.183105,0.12207,0,0.001,1.95,0.00126648,0.0135651,0,0,0,0,0,40.94,1357.73,2589351
-0.00506592,0.0100708,1.0152,-5.7373,-0.0610352,0,0.001,0.013,1.95,0.00126648,0.0135651,0,0,0,0,0,40.94,1357.75,2589366
0.0152588,0.0447388,1.00183,-4.08936,-1.52588,0.0610352,0.022,0.05,1.94,0.00128174,0.0135956,0,0,0,0,0,40.94,1357.77,2589396
-0.00170898,-0.052002,1.01221,-3.23486,-0.305176,0.12207,0.002,-0.044,1.94,0.00131226,0.0136414,0,0,0,0,0,40.94,1357.79,2589412
-0.0268555,-0.0814819,1.00763,0.0610352,0.12207,0.183105,-0.023,-0.072,1.93,0.00132751,0.0135956,0,0,0,0,0,40.94,1357.81,2589426
0.00140381,-0.0979614,0.991272,0.427246,-0.366211,0.366211,0.004,-0.09,1.93,0.00134277,0.0134583,0,0,0,0,0,40.94,1357.83,2589441
-0.0132446,-0.0388794,1.00873,0.854492,-0.0610352,-0.0610352,-0.008,-0.029,1.93,0.00134277,0.0129242,0,0,0,0,0,40.94,1357.85,2589472
0.0147095,-0.00958252,1.02716,1.77002,0.244141,-0.305176,0.02,0,1.93,0.00135803,0.012619,0,0,0,0,0,40.94,1357.87,2589486
-0.0215454,-0.0117798,1.01843,2.13623,0.183105,-0.305176,-0.015,-0.002,1.93,0.00137329,0.012619,0,0,0,0,0,40.94,1357.89,2589501
-0.012146,0.00518799,1.02002,0.671387,0.549316,-1.09863,-0.005,0.013,1.95,0.00140381,0.012619,0,0,0,0,0,40.96,1357.91,2589532
-0.0195312,0.0117188,1.00854,0.671387,0.0610352,-1.15967,-0.012,0.02,1.98,0.00141907,0.0126343,0,0,0,0,0,40.96,1357.93,2589546
0.00280762,0.0107422,1.01196,0.488281,0.244141,-1.83105,0.009,0.017,2,0.00141907,0.0126953,0,0,0,0,0,40.96,1357.95,2589561
0.00170898,0.00231934,1.02264,-0.0610352,-0.0610352,-1.34277,0.008,0.009,2.04,0.00141907,0.0127563,0,0,0,0,0,40.96,1357.98,2589592
-0.00811768,0.00616455,1.00568,-0.244141,-0.366211,-1.2207,-0.001,0.013,2.06,0.00141907,0.0127563,0,0,0,0,0,40.96,1357.99,2589606
0.00799561,0.000610352,1.01416,-0.427246,-0.244141,0.12207,0.014,0.007,2.07,0.00141907,0.0127563,0,0,0,0,0,40.96,1358.01,2589636
-0.00177002,-0.0115356,1.01044,-0.732422,-0.305176,0.244141,0.004,-0.004,2.07,0.00141907,0.0127563,0,0,0,0,0,40.96,1358.03,2589652
-0.0103149,-0.00195312,1.01959,-1.28174,-0.0610352,0.610352,-0.004,0.005,2.06,0.00141907,0.0127563,0,0,0,0,0,40.96,1358.05,2589666
-0.0108643,-0.0130005,1.01361,-0.976562,0,0.305176,-0.005,-0.004,2.05,0.00141907,0.0127563,0,0,0,0,0,40.96,1358.07,2589696
-0.00683594,-0.00830078,1.01013,-0.793457,-0.183105,0.244141,0,0,2.04,0.00141907,0.0127563,0,0,0,0,0,40.96,1358.09,2589712
-0.0155029,-0.0313721,1.01337,-0.427246,-0.0610352,0.366211,-0.01,-0.022,2.04,0.00141907,0.0127411,0,0,0,0,0,40.96,1358.11,2589726
-0.00927734,-0.0249634,1.01385,0.12207,-0.12207,0,-0.003,-0.015,2.03,0.00141907,0.0126343,0,0,0,0,0,40.96,1358.13,2589756
-0.0067749,-0.0223389,1.01343,0.305176,-0.12207,-0.183105,-0.001,-0.013,2.03,0.00141907,0.0126343,0,0,0,0,0,40.96,1358.15,2589772
-0.00115967,-0.0101929,1.01624,0.427246,-0.305176,-0.244141,0.004,-0.001,2.03,0.00141907,0.0126343,0,0,0,0,0,40.96,1358.17,2589786
0.000183105,-0.00622559,1.01575,0.244141,0,-0.12207,0.006,0.002,2.04,0.00141907,0.0126343,0,0,0,0,0,40.96,1358.2,2589816
-0.00543213,-0.00378418,1.01929,0,0.12207,-0.488281,0,0.004,2.05,0.00141907,0.0126343,0,0,0,0,0,40.96,1358.21,2589832
-0.00579834,-6.10352e-05,1.01434,-0.305176,0.12207,-0.305176,0,0.008,2.06,0.00141907,0.0126343,0,0,0,0,0,40.96,1358.23,2589846
-0.0172729,-0.0143433,1.01691,-0.183105,0,-0.183105,-0.011,-0.005,2.06,0.00141907,0.0126343,0,0,0,0,0,40.96,1358.26,2589876
0.00134277,0.022644,1.00494,0.244141,-0.244141,1.09863,0.008,0.03,2.05,0.00141907,0.0126495,0,0,0,0,0,40.96,1358.28,2589892
-0.0268555,0.0655518,1.03503,2.68555,-0.0610352,2.80762,-0.017,0.073,2.01,0.00141907,0.0127411,0,0,0,0,0,40.96,1358.29,2589907
-0.00616455,-0.0473022,0.994629,1.89209,-0.854492,2.62451,-0.001,-0.041,1.96,0.00141907,0.0129395,0,0,0,0,0,40.96,1358.31,2589937
-0.0078125,0.0337524,0.978149,0.12207,-0.488281,2.2583,0,0.039,1.92,0.00141907,0.013031,0,0,0,0,0,40.96,1358.33,2589952
-0.0115356,0.0668945,1.01538,1.46484,-0.549316,1.70898,-0.003,0.072,1.9,0.00141907,0.0131836,0,0,0,0,0,40.96,1358.35,2589967
-0.00280762,-0.0578613,1.02032,8.42285,-0.549316,1.52588,0,-0.057,1.84,0.00146484,0.0138092,0,0,0,0,0,40.96,1358.37,2589997
0.00390625,-0.00457764,0.98053,6.16455,-0.244141,0,0.008,-0.006,1.83,0.00151062,0.0141144,0,0,0,0,0,40.96,1358.39,2590012
-0.00701904,-0.00482178,1.01117,5.85937,0.0610352,0.427246,-0.002,-0.007,1.83,0.00151062,0.0141144,0,0,0,0,0,40.96,1358.41,2590027
0.00939941,0.0405273,1.05042,6.34766,0.305176,0.854492,0.015,0.034,1.82,0.00151062,0.0141296,0,0,0,0,0,40.97,1358.43,2590042
-0.00744629,0.00891113,0.979858,6.34766,0.305176,1.64795,-0.002,0,1.78,0.00151062,0.0141602,0,0,0,0,0,40.97,1358.45,2590072
-0.00543213,0.0222168,1.02405,6.7749,0.0610352,0.915527,0,0.011,1.76,0.00151062,0.0141602,0,0,0,0,0,40.97,1358.47,2590087
-0.0268555,-0.00164795,1.05487,6.53076,0.427246,0.549316,-0.021,-0.013,1.75,0.00149536,0.0141602,0,0,0,0,0,40.97,1358.49,2590102
-0.013916,0.0115967,1.02234,5.06592,0.244141,-0.305176,-0.008,-0.003,1.75,0.00141907,0.0141602,0,0,0,0,0,40.97,1358.51,2590132
-0.00561523,0.0509644,1.02942,3.66211,0.305176,-0.366211,0,0.034,1.75,0.00141907,0.0141754,0,0,0,0,0,40.97,1358.53,2590147
-0.00250244,0.00708008,0.961914,0.488281,-0.549316,-0.488281,0.002,-0.009,1.76,0.00141907,0.0142212,0,0,0,0,0,40.97,1358.55,2590162
0.00872803,0.0523682,1.03143,-1.83105,0.305176,1.0376,0.015,0.034,1.75,0.00141907,0.0144043,0,0,0,0,0,40.97,1358.57,2590192
-0.00244141,0.193848,1.03625,-0.366211,0,0.854492,0.008,0.176,1.73,0.00141907,0.0146637,0,0,0,0,0,40.97,1358.59,2590207
0.0134277,0.167297,1.04553,3.54004,0.0610352,0.671387,0.023,0.145,1.72,0.00144958,0.015152,0,0,0,0,0,40.97,1358.61,2590222
-0.0186157,0.00476074,0.952393,0.915527,-0.366211,-1.15967,-0.014,-0.016,1.73,0.00151062,0.0157318,0,0,0,0,0,40.97,1358.63,2590252
-0.00134277,0.067627,0.973572,-3.2959,0.366211,-1.2207,0.005,0.045,1.75,0.00151062,0.0157623,0,0,0,0,0,40.97,1358.65,2590267
-0.00457764,-0.00866699,1.02271,-4.63867,0.305176,0.671387,0,-0.029,1.75,0.00157166,0.0159302,0,0,0,0,0,40.97,1358.67,2590297
0.00665283,0.069458,0.988525,-4.02832,0,0.915527,0.013,0.049,1.74,0.00160217,0.0160217,0,0,0,0,0,40.97,1358.69,2590312
-0.0254517,0.112488,1.05579,-1.09863,0.305176,0.854492,-0.017,0.092,1.73,0.00160217,0.0162201,0,0,0,0,0,40.97,1358.71,2590327
0.00604248,-0.0835571,1.01111,5.12695,0,0.244141,0.008,-0.107,1.72,0.00160217,0.0169373,0,0,0,0,0,40.97,1358.74,2590357
0.0125122,0.0405884,0.925781,0.610352,-0.793457,0,0.018,0.018,1.71,0.00160217,0.0172424,0,0,0,0,0,40.97,1358.76,2590372
-0.0422363,-0.0147705,1.02637,-3.60107,0.427246,0.12207,-0.037,-0.036,1.71,0.00158691,0.0175323,0,0,0,0,0,40.97,1358.77,2590387
-0.0184326,0.0942383,1.02954,-4.5166,-0.427246,-1.09863,-0.01,0.073,1.74,0.00154114,0.0181274,0,0,0,0,0,40.97,1358.8,2590417
0.0258179,0.0409546,1.0542,-4.21143,0.244141,-1.34277,0.032,0.019,1.75,0.00152588,0.0185242,0,0,0,0,0,40.97,1358.81,2590432
-0.0215454,0.0330811,1.03021,-3.35693,-0.366211,-0.427246,-0.015,0.014,1.76,0.00152588,0.0189362,0,0,0,0,0,40.97,1358.83,2590447
-0.02771,0.0615845,1.01099,-1.34277,-0.183105,-0.427246,-0.021,0.043,1.77,0.00149536,0.0193939,0,0,0,0,0,40.97,1358.85,2590462
0.0135498,0.00964355,1.04279,-0.854492,-0.427246,-0.671387,0.018,-0.009,1.79,0.00146484,0.0203247,0,0,0,0,0,40.97,1358.87,2590492
-0.00891113,-0.0234375,1.08075,-1.89209,0,-0.976562,-0.004,-0.041,1.81,0.00146484,0.020752,0,0,0,0,0,40.97,1358.89,2590507
0.0327759,0.105652,1.00647,1.34277,0.915527,-0.244141,0.04,0.087,1.83,0.00149536,0.0216827,0,0,0,0,0,40.97,1358.91,2590537
-0.0130005,-0.00811768,1.06689,4.3335,0.610352,-0.366211,-0.008,-0.027,1.83,0.00154114,0.0222168,0,0,0,0,0,40.97,1358.93,2590552
-0.041687,-0.0341797,1.05157,5.06592,0.488281,-0.976562,-0.038,-0.053,1.84,0.0015564,0.0227051,0,0,0,0,0,40.97,1358.95,2590567
-0.0291748,-0.0637207,1.06543,1.64795,0,-0.0610352,-0.026,-0.085,1.83,0.0015564,0.0234985,0,0,0,0,0,40.97,1358.97,2590597
-0.0114136,0.0673218,1.07379,1.95312,0.244141,-0.549316,-0.003,0.044,1.85,0.00154114,0.023819,0,0,0,0,0,40.97,1358.99,2590612
-0.00775146,-0.0357056,0.844116,-0.549316,-0.854492,2.13623,-0.004,-0.054,1.83,0.00152588,0.0241394,0,0,0,0,0,40.97,1359.01,2590627
0.00415039,0.0161743,1.01099,-1.2207,-0.183105,0.244141,0.009,-0.005,1.82,0.00152588,0.0244293,0,0,0,0,0,40.97,1359.03,2590642
-0.0219116,0.10968,0.894653,-1.15967,-2.01416,0.671387,-0.013,0.092,1.81,0.00146484,0.0248413,0,0,0,0,0,40.97,1359.05,2590672
0.00811768,-0.00152588,1.01404,-0.244141,-0.793457,0.0610352,0.013,-0.023,1.81,0.00143433,0.0251007,0,0,0,0,0,40.97,1359.07,2590687
-0.0255127,-0.0552368,1.14459,-0.976562,-0.183105,-0.488281,-0.021,-0.078,1.82,0.00138855,0.0252838,0,0,0,0,0,40.97,1359.09,2590702
0.0501709,-0.0139771,0.956726,-1.46484,-0.183105,-0.427246,0.054,-0.035,1.82,0.00123596,0.0257416,0,0,0,0,0,40.97,1359.11,2590732
-0.0349731,0.0618896,1.13184,-0.488281,0.549316,-1.09863,-0.027,0.04,1.83,0.00117493,0.026001,0,0,0,0,0,40.97,1359.13,2590747
0.067749,0.086731,0.955994,-2.50244,0.488281,0.610352,0.075,0.066,1.83,0.000991821,0.0265808,0,0,0,0,0,40.97,1359.15,2590777
-0.0105591,-0.0507812,1.09619,-1.70898,1.46484,-0.549316,-0.006,-0.07,1.83,0.000961304,0.026886,0,0,0,0,0,40.97,1359.17,2590793
-0.0800171,-0.0448608,0.998413,-1.89209,0.732422,0.12207,-0.075,-0.059,1.83,0.000869751,0.0270844,0,0,0,0,0,40.97,1359.19,2590807
0.045166,0.0513916,0.978516,-2.80762,-0.244141,0.549316,0.052,0.033,1.83,0.000762939,0.0272827,0,0,0,0,0,40.97,1359.21,2590822
-0.124817,0.00891113,1.0155,-2.92969,0.732422,-1.46484,-0.117,-0.002,1.86,0.00050354,0.0275269,0,0,0,0,0,40.97,1359.23,2590853
0.0570068,0.019165,0.992859,-3.35693,-0.793457,-0.732422,0.064,0.003,1.87,0.000305176,0.0276184,0,0,0,0,0,40.97,1359.25,2590867
-0.0181274,0.0266113,1.07129,-1.58691,-0.427246,-2.19727,-0.01,0.011,1.89,0.00012207,0.0276184,0,0,0,0,0,40.97,1359.27,2590882
0.0546265,0.0276489,0.989929,-2.80762,-1.64795,-0.610352,0.062,0.013,1.94,-0.000366211,0.0274658,0,0,0,0,0,40.97,1359.29,2590913
-0.071106,-0.0371704,1.04834,-2.0752,-0.183105,-1.58691,-0.065,-0.046,1.98,-0.000839233,0.0272369,0,0,0,0,0,40.97,1359.32,2590942
0.0367432,-0.000366211,0.994995,-3.479,-0.976562,0.183105,0.043,-0.011,1.99,-0.00111389,0.0270691,0,0,0,0,0,40.97,1359.33,2590957
0.0252075,0.0435791,1.04163,-3.2959,-0.244141,-0.976562,0.032,0.032,1.99,-0.00134277,0.0269012,0,0,0,0,0,40.97,1359.35,2590973
-0.0753784,-0.0529175,1.04352,-3.90625,0.671387,-0.854492,-0.071,-0.058,2,-0.00160217,0.0267334,0,0,0,0,0,40.97,1359.37,2590987
0.010498,0.0220337,1.02856,-4.69971,0.183105,0.915527,0.017,0.015,1.96,-0.00209045,0.0263672,0,0,0,0,0,40.97,1359.39,2591017
-0.0657959,-0.0410767,1.0448,-4.88281,0.732422,0.0610352,-0.06,-0.043,1.96,-0.00233459,0.0261841,0,0,0,0,0,40.97,1359.41,2591033
0.024231,0.0245972,0.999329,-6.04248,-0.488281,1.58691,0.031,0.021,1.94,-0.00260925,0.026001,0,0,0,0,0,40.97,1359.43,2591047
-0.106567,-0.0397339,1.0191,-5.7373,0.366211,-0.793457,-0.1,-0.035,1.93,-0.00318909,0.025589,0,0,0,0,0,40.97,1359.45,2591077
0.0117798,-0.0504761,1.01941,-6.28662,-1.15967,-0.12207,0.017,-0.048,1.93,-0.00357056,0.0252991,0,0,0,0,0,40.97,1359.47,2591093
0.0293579,-0.00109863,1.01447,-3.90625,-1.64795,-1.09863,0.036,0.001,1.95,-0.00392151,0.0249939,0,0,0,0,0,40.97,1359.49,2591107
-0.0708618,-0.184082,0.97522,0.0610352,-0.244141,-1.52588,-0.07,-0.178,1.97,-0.00428772,0.0245667,0,0,0,0,0,40.97,1359.51,2591122
-0.0540161,-0.0911865,0.960327,2.80762,-0.183105,-0.976562,-0.051,-0.086,2,-0.00492859,0.0235901,0,0,0,0,0,40.97,1359.53,2591153
0.0762329,-0.110168,1.0968,0.488281,-1.09863,-0.915527,0.079,-0.109,2.01,-0.00521851,0.0229645,0,0,0,0,0,40.97,1359.55,2591167
0.0045166,-0.0588989,0.951477,-0.610352,0.0610352,0.610352,0.008,-0.055,2.01,-0.00543213,0.0222321,0,0,0,0,0,40.97,1359.57,2591182
-0.0339355,0.0471191,0.97821,-2.13623,0.305176,-0.671387,-0.026,0.053,2.01,-0.00601196,0.020752,0,0,0,0,0,40.97,1359.59,2591213
0.102905,0.0864868,0.951233,-6.10352,-2.0752,0.549316,0.112,0.088,2,-0.00627136,0.0201263,0,0,0,0,0,40.97,1359.61,2591227
-0.113525,0.0393066,0.962524,-0.183105,0.671387,-0.183105,-0.106,0.049,1.99,-0.00653076,0.0196075,0,0,0,0,0,40.97,1359.63,2591242
-0.0487061,-0.134521,0.989197,3.90625,0.732422,0.610352,-0.046,-0.127,1.98,-0.00730896,0.0186768,0,0,0,0,0,40.97,1359.65,2591273
-0.0169067,-0.00952148,1.10114,2.62451,0.427246,0.244141,-0.009,-0.004,1.98,-0.00776672,0.0180969,0,0,0,0,0,40.97,1359.67,2591288
0.0949707,0.293518,0.870239,-0.854492,-3.90625,-1.0376,0.111,0.294,1.99,-0.00814819,0.0177155,0,0,0,0,0,40.97,1359.69,2591303
0.0253906,0.173462,1.01935,1.40381,0.549316,-1.09863,0.037,0.175,2.03,-0.00883484,0.0169067,0,0,0,0,0,40.97,1359.71,2591333
0.00415039,-0.168274,1.15442,-1.0376,-1.52588,-0.793457,0.006,-0.164,2.04,-0.00914001,0.0164795,0,0,0,0,0,40.97,1359.73,2591348
0.0489502,0.140991,0.964783,-1.15967,-1.64795,-0.671387,0.06,0.143,2.05,-0.00941467,0.016037,0,0,0,0,0,40.97,1359.75,2591363
-0.0349731,0.00866699,1.10187,0.427246,1.34277,0,-0.027,0.014,2.04,-0.00990295,0.0153046,0,0,0,0,0,40.97,1359.77,2591393
0.0287476,-0.0107422,1.04034,-1.09863,-0.0610352,0.854492,0.035,-0.007,2.03,-0.0101471,0.0149384,0,0,0,0,0,40.97,1359.79,2591408
-0.000549316,0.0393066,0.95752,-0.610352,-0.244141,1.0376,0.006,0.043,2.02,-0.010376,0.0146027,0,0,0,0,0,40.97,1359.81,2591423
-0.00537109,0.0172729,1.0282,-0.244141,0.671387,0.610352,0.002,0.021,1.99,-0.010376,0.0139923,0,0,0,0,0,40.97,1359.83,2591453
-0.00842285,-0.00457764,0.988464,-1.40381,0.366211,0.305176,-0.002,0,1.98,-0.010376,0.0137177,0,0,0,0,0,40.97,1359.85,2591468
-0.0557251,0.000793457,1.05884,-0.366211,0.488281,-0.549316,-0.048,0.007,1.99,-0.0104065,0.0134277,0,0,0,0,0,40.97,1359.87,2591483
0.0227661,0.00195312,0.989563,-2.0752,-0.793457,-0.244141,0.03,0.006,1.99,-0.010498,0.0134277,0,0,0,0,0,40.97,1359.9,2591513
-0.0442505,-0.0292969,1.08258,-3.2959,-0.183105,-1.2207,-0.037,-0.021,2.01,-0.0105286,0.0134125,0,0,0,0,0,40.97,1359.91,2591528
-0.0498047,-0.0611572,0.902771,-0.854492,-0.427246,-1.15967,-0.045,-0.052,2.03,-0.0106964,0.0133362,0,0,0,0,0,40.97,1359.93,2591558
0.0197754,-0.0595093,1.13104,-1.89209,-0.793457,-1.0376,0.025,-0.05,2.04,-0.0108185,0.0132141,0,0,0,0,0,40.95,1359.95,2591573
0.0640259,-0.0944824,0.983521,-3.11279,-1.46484,0.183105,0.067,-0.088,2.04,-0.0108643,0.0130005,0,0,0,0,0,40.95,1359.97,2591588
-0.0616455,-0.0822754,0.949646,2.44141,0.610352,-0.488281,-0.058,-0.071,2.06,-0.01091,0.0126648,0,0,0,0,0,40.95,1359.99,2591603
-0.0732422,-0.140747,0.946167,1.89209,1.28174,-0.610352,-0.071,-0.129,2.06,-0.0110321,0.011795,0,0,0,0,0,40.95,1360.01,2591633
0.0425415,0.0944214,1.03143,1.89209,0.244141,0.305176,0.052,0.102,2.06,-0.0111084,0.0112915,0,0,0,0,0,40.95,1360.03,2591648
-0.0125732,-0.0710449,1.00922,-0.976562,0.732422,-0.671387,-0.008,-0.061,2.06,-0.0111694,0.0108185,0,0,0,0,0,40.95,1360.05,2591663
-0.0186157,-0.0393066,1.03528,0.305176,0.549316,-0.366211,-0.012,-0.029,2.07,-0.0112152,0.0098877,0,0,0,0,0,40.95,1360.07,2591693
-0.0292969,-0.140259,1.09143,-1.28174,1.52588,-0.915527,-0.026,-0.129,2.08,-0.0112457,0.00933838,0,0,0,0,0,40.95,1360.09,2591708
-0.0285645,0.0211182,0.943787,0.305176,1.0376,0.427246,-0.02,0.03,2.09,-0.011322,0.00871277,0,0,0,0,0,40.95,1360.11,2591723
0.00683594,0.0247803,1.0307,-0.854492,-0.610352,-2.01416,0.016,0.034,2.12,-0.0115662,0.00775146,0,0,0,0,0,40.95,1360.13,2591753
-0.020874,-0.0178223,0.900269,-2.99072,-1.0376,-1.15967,-0.014,-0.008,2.12,-0.0116882,0.00733948,0,0,0,0,0,40.95,1360.15,2591768
0.122131,-0.00720215,1.28833,-1.15967,-1.2207,-1.58691,0.131,0,2.14,-0.0117493,0.00691223,0,0,0,0,0,40.95,1360.17,2591783
-0.0319824,-0.237549,0.969604,3.2959,0.793457,-0.610352,-0.033,-0.227,2.18,-0.0115662,0.00634766,0,0,0,0,0,40.95,1360.19,2591813
0.0722046,0.145752,1.08746,1.2207,1.46484,-0.793457,0.086,0.152,2.2,-0.0114288,0.0059967,0,0,0,0,0,40.95,1360.21,2591828
0.0164795,-0.0280151,1.00775,0.854492,1.0376,0.305176,0.023,-0.019,2.18,-0.0112,0.00538635,0,0,0,0,0,40.95,1360.23,2591858
0.024353,-0.0223999,0.954773,0.183105,0.0610352,-0.0610352,0.03,-0.015,2.18,-0.0110779,0.00502014,0,0,0,0,0,40.95,1360.25,2591873
-0.0450439,-0.0792847,1.10901,-0.488281,1.28174,0.671387,-0.039,-0.068,2.17,-0.0109406,0.00460815,0,0,0,0,0,40.95,1360.27,2591888
-0.0499878,-0.0917969,1.034,-0.427246,0.366211,-0.549316,-0.045,-0.08,2.17,-0.0107269,0.0038147,0,0,0,0,0,40.95,1360.29,2591918
-0.0526123,-0.142029,1.03625,-1.15967,0.976562,-1.0376,-0.049,-0.13,2.19,-0.0106964,0.00328064,0,0,0,0,0,40.95,1360.31,2591933
-0.0217896,-0.00262451,1.02423,-0.305176,-0.0610352,-0.854492,-0.013,0.007,2.2,-0.0106964,0.00265503,0,0,0,0,0,40.95,1360.33,2591948
-0.0308228,0.231628,0.925476,2.92969,-1.70898,-2.2583,-0.014,0.241,2.23,-0.0107269,0.00219727,0,0,0,0,0,40.95,1360.35,2591963
0.0481567,-0.0723877,1.09943,-0.427246,-1.40381,-1.0376,0.054,-0.064,2.27,-0.0108948,0.00151062,0,0,0,0,0,40.95,1360.37,2591993
0.0203857,-0.0308838,1.05774,-0.793457,-1.34277,-1.0376,0.027,-0.022,2.28,-0.0109253,0.00106812,0,0,0,0,0,40.95,1360.39,2592008
-0.031311,-0.0206299,0.925354,-0.0610352,-1.28174,-0.427246,-0.024,-0.011,2.29,-0.0109558,0.000610352,0,0,0,0,0,40.95,1360.41,2592023
-0.0533447,-0.0368042,1.159,1.77002,1.40381,-1.0376,-0.046,-0.024,2.3,-0.0110168,-0.000396729,0,0,0,0,0,40.95,1360.43,2592053
-0.0526123,-0.123901,0.958862,0.366211,1.09863,0.0610352,-0.05,-0.112,2.3,-0.0111084,-0.00102234,0,0,0,0,0,40.95,1360.45,2592068
0.105286,0.135193,0.956543,0.427246,-1.09863,0.0610352,0.117,0.14,2.31,-0.0111694,-0.00161743,0,0,0,0,0,40.97,1360.47,2592083
-0.0308838,-0.0495605,0.998413,0.183105,0.305176,-0.305176,-0.025,-0.039,2.31,-0.0111542,-0.00256348,0,0,0,0,0,40.97,1360.5,2592113
0.0136719,-0.15686,1.12524,0.488281,1.40381,-0.0610352,0.015,-0.146,2.31,-0.0111694,-0.00317383,0,0,0,0,0,40.97,1360.51,2592128
-0.0907593,-0.0496216,0.944092,1.46484,0.976562,-1.40381,-0.085,-0.036,2.35,-0.0112305,-0.00471497,0,0,0,0,0,40.97,1360.54,2592158
-0.0518799,0.0328369,1.0589,1.64795,0.488281,-1.46484,-0.042,0.045,2.37,-0.0113831,-0.00552368,0,0,0,0,0,40.97,1360.55,2592174
-0.0581665,-0.0666504,1.10712,0.671387,0.305176,-0.976562,-0.052,-0.054,2.39,-0.0115967,-0.0063324,0,0,0,0,0,40.97,1360.57,2592188
0.00354004,-0.0877686,1.01251,0.366211,-1.09863,-0.549316,0.007,-0.078,2.4,-0.0118408,-0.00723267,0,0,0,0,0,40.97,1360.59,2592203
-0.0148315,-0.10083,1.10278,0.671387,0.366211,1.2207,-0.011,-0.09,2.38,-0.0124054,-0.00921631,0,0,0,0,0,40.97,1360.61,2592234
0.0517578,-0.00457764,0.955444,-0.427246,-0.915527,1.0376,0.057,0.002,2.36,-0.0126801,-0.0102997,0,0,0,0,0,40.97,1360.63,2592248
-0.0299072,-0.331726,1.29968,2.19727,0.671387,0.976562,-0.035,-0.318,2.35,-0.0129395,-0.0115967,0,0,0,0,0,40.97,1360.65,2592263
-0.0569458,-0.241272,0.971802,2.50244,0.610352,-0.0610352,-0.06,-0.229,2.33,-0.0134277,-0.0146179,0,0,0,0,0,40.97,1360.67,2592294
0.0383301,0.088501,1.10925,-1.15967,1.58691,0.0610352,0.048,0.096,2.33,-0.0136871,-0.0162659,0,0,0,0,0,40.97,1360.69,2592308
-0.003479,0.174866,0.879883,-2.31934,-2.56348,0.12207,0.009,0.183,2.33,-0.013916,-0.0177155,0,0,0,0,0,40.97,1360.71,2592323
0.0172119,0.0396118,0.970337,-1.83105,0.244141,0.0610352,0.025,0.047,2.34,-0.014389,-0.0202484,0,0,0,0,0,40.97,1360.73,2592354
0.00842285,0.0496826,1.11761,-1.70898,-0.610352,-0.732422,0.018,0.059,2.35,-0.0146027,-0.0213928,0,0,0,0,0,40.97,1360.75,2592368
-0.0444946,-0.114319,0.92865,-1.0376,-0.12207,-0.366211,-0.042,-0.103,2.36,-0.0148315,-0.022583,0,0,0,0,0,40.97,1360.77,2592383
-0.0592651,-0.108704,1.08154,-0.183105,-0.854492,0.244141,-0.056,-0.095,2.35,-0.0153351,-0.0248413,0,0,0,0,0,40.97,1360.79,2592414
0.0284424,-0.0432129,1.0545,-0.732422,0.183105,-0.549316,0.033,-0.033,2.36,-0.0156097,-0.0260468,0,0,0,0,0,40.97,1360.81,2592428
0.00616455,0.0175171,0.928406,-2.38037,0.183105,0.427246,0.012,0.026,2.36,-0.0158539,-0.0272522,0,0,0,0,0,40.97,1360.83,2592443
-0.0107422,0.0133667,1.03131,-0.976562,0.488281,-0.0610352,-0.003,0.025,2.35,-0.0162354,-0.0292969,0,0,0,0,0,40.97,1360.85,2592474
-0.0112305,0.101196,0.965332,-0.0610352,0.671387,0.671387,0,0.112,2.34,-0.0164185,-0.0301666,0,0,0,0,0,40.97,1360.87,2592488
-0.041626,-0.0673218,0.979492,-0.305176,0.427246,0.488281,-0.037,-0.054,2.33,-0.0166168,-0.0309906,0,0,0,0,0,40.97,1360.89,2592503
-0.055603,0.0455933,0.946228,0.427246,0.305176,-0.305176,-0.047,0.058,2.34,-0.0169678,-0.0325775,0,0,0,0,0,40.97,1360.91,2592534
-0.085144,-0.0796509,1.04944,1.70898,0.854492,-0.0610352,-0.08,-0.064,2.34,-0.0172272,-0.0333405,0,0,0,0,0,40.97,1360.93,2592548
-0.0286865,-0.0881958,1.08545,1.28174,1.2207,0.0610352,-0.023,-0.075,2.34,-0.0175629,-0.0341949,0,0,0,0,0,40.97,1360.95,2592563
-0.0787354,-0.106079,0.964966,-0.549316,-0.366211,-0.183105,-0.075,-0.092,2.34,-0.0182343,-0.0359039,0,0,0,0,0,40.98,1360.97,2592594
0.0346069,0.0376587,1.03662,-1.09863,-0.915527,-0.610352,0.044,0.048,2.35,-0.0186157,-0.0367889,0,0,0,0,0,40.98,1360.99,2592608
-0.0105591,0.0296021,1.01154,-0.12207,-0.732422,-0.976562,-0.001,0.041,2.36,-0.0189667,-0.0376282,0,0,0,0,0,40.98,1361.01,2592624
0.020874,0.0182495,1.03162,1.09863,0.366211,-1.2207,0.029,0.029,2.39,-0.0197601,-0.0392456,0,0,0,0,0,40.98,1361.03,2592654
0.0458374,-0.0494995,1.12628,-0.305176,-0.12207,-1.09863,0.052,-0.039,2.41,-0.0200958,-0.0400543,0,0,0,0,0,40.98,1361.05,2592669
-0.00109863,-0.0585327,0.970337,0.854492,0.488281,-0.12207,0.003,-0.047,2.42,-0.020401,-0.0409241,0,0,0,0,0,40.98,1361.07,2592684
-0.0147705,-0.174133,1.13672,-0.12207,1.58691,0.183105,-0.013,-0.161,2.42,-0.0209503,-0.0428009,0,0,0,0,0,40.98,1361.09,2592714
-0.0120239,-0.00366211,0.966675,-0.610352,1.40381,0.427246,-0.005,0.007,2.41,-0.021225,-0.0438995,0,0,0,0,0,40.98,1361.11,2592729
0.154785,0.322388,0.704163,-1.77002,-4.63867,0,0.173,0.323,2.41,-0.0213928,-0.044754,0,0,0,0,0,40.98,1361.13,2592744
0.0637817,0.258423,0.931213,1.83105,0.183105,0.366211,0.082,0.266,2.39,-0.0215302,-0.046463,0,0,0,0,0,40.98,1361.15,2592774
-0.0158691,-0.266785,1.0127,0.671387,1.40381,-0.976562,-0.018,-0.255,2.37,-0.0218048,-0.048233,0,0,0,0,0,40.98,1361.18,2592804
-0.0158691,-0.266785,1.0127,0.671387,1.40381,-0.976562,-0.018,-0.255,2.37,-0.0218048,-0.048233,0,0,0,0,0,40.98,1361.19,2592804
0.0918579,0.0727539,1.06122,-2.68555,-2.2583,-0.854492,0.104,0.08,2.39,-0.0217285,-0.0505981,0,0,0,0,0,40.98,1361.21,2592834
0.0492554,-0.0310669,0.932678,-2.99072,-2.38037,-1.40381,0.056,-0.022,2.41,-0.0215454,-0.051712,0,0,0,0,0,40.98,1361.23,2592849
0.00866699,0.0658569,0.909485,0,-0.793457,-1.64795,0.019,0.075,2.42,-0.0213013,-0.0528107,0,0,0,0,0,40.98,1361.25,2592864
-0.00152588,0.0527954,0.912292,-1.46484,-0.732422,-0.854492,0.008,0.062,2.44,-0.0205688,-0.0544739,0,0,0,0,0,40.98,1361.27,2592894
-0.0275879,0.111511,0.902161,2.19727,-0.549316,-1.0376,-0.014,0.122,2.45,-0.0201721,-0.0550842,0,0,0,0,0,40.98,1361.29,2592909
0.0391235,-0.166504,1.05353,-1.34277,0.671387,0.976562,0.041,-0.157,2.44,-0.0201416,-0.0562134,0,0,0,0,0,40.98,1361.32,2592939
-0.0151367,-6.10352e-05,0.980164,0.793457,0.732422,0.427246,-0.006,0.01,2.43,-0.0201111,-0.0569153,0,0,0,0,0,40.98,1361.33,2592954
-0.03302,-0.148804,1.11481,1.28174,1.89209,0.12207,-0.029,-0.136,2.42,-0.0200806,-0.0576935,0,0,0,0,0,40.98,1361.36,2592969
-0.0353394,-0.031311,0.964539,0.366211,0.915527,-0.610352,-0.027,-0.019,2.43,-0.0201111,-0.0585938,0,0,0,0,0,40.98,1361.37,2592984
-0.0523071,-0.0231323,1.02966,1.70898,0.12207,-1.58691,-0.043,-0.011,2.47,-0.0201416,-0.0601654,0,0,0,0,0,40.98,1361.39,2593014
-0.00927734,-0.0650635,0.996826,0.183105,-0.488281,-1.2207,-0.002,-0.055,2.48,-0.0202026,-0.0609589,0,0,0,0,0,40.98,1361.41,2593029
0.0045166,0.135315,0.965942,1.28174,-1.83105,-0.854492,0.019,0.143,2.5,-0.0202026,-0.0616913,0,0,0,0,0,40.98,1361.43,2593044
0.0194702,-0.0357666,0.945496,-0.427246,-1.28174,-0.732422,0.026,-0.027,2.52,-0.0201111,-0.0628357,0,0,0,0,0,40.98,1361.45,2593074
-0.0320435,-0.0859985,1.1062,1.64795,0.0610352,-0.0610352,-0.026,-0.074,2.51,-0.02005,-0.0634613,0,0,0,0,0,40.98,1361.47,2593089
-0.0220337,-0.196777,1.02905,-0.549316,0.0610352,0.976562,-0.021,-0.187,2.5,-0.0200043,-0.06427,0,0,0,0,0,40.97,1361.49,2593104
0.0690918,0.0415039,1.07623,-0.976562,-0.488281,1.52588,0.079,0.047,2.47,-0.0197906,-0.0660858,0,0,0,0,0,40.97,1361.51,2593134
-0.0679932,-0.100586,0.981506,0.488281,0.244141,0.915527,-0.064,-0.089,2.45,-0.0196228,-0.0670013,0,0,0,0,0,40.97,1361.54,2593149
0.0020752,-0.0319214,1.03619,2.13623,1.40381,-0.183105,0.009,-0.023,2.44,-0.0194855,-0.0679932,0,0,0,0,0,40.97,1361.55,2593164
-0.043457,-0.16272,1.0733,0,1.40381,-1.28174,-0.041,-0.151,2.47,-0.0193634,-0.0702515,0,0,0,0,0,40.97,1361.57,2593194
0.0278931,0.306763,0.785156,-1.09863,-1.77002,-0.244141,0.048,0.312,2.49,-0.0193329,-0.0713501,0,0,0,0,0,40.97,1361.59,2593209
-0.0610352,-0.115417,1.04895,0.0610352,0.610352,-1.58691,-0.056,-0.104,2.5,-0.0193176,-0.0723114,0,0,0,0,0,40.97,1361.61,2593224
-0.0609741,-0.0652466,1.10461,1.34277,-0.183105,0,-0.053,-0.053,2.53,-0.0193329,-0.074234,0,0,0,0,0,40.97,1361.63,2593254
-0.0302124,-0.141541,1.09277,0.854492,1.77002,-0.305176,-0.026,-0.132,2.53,-0.0193939,-0.0753174,0,0,0,0,0,40.97,1361.65,2593269
0.0442505,-0.0549316,0.915222,0.854492,-1.09863,0.549316,0.05,-0.05,2.53,-0.019455,-0.0765228,0,0,0,0,0,40.97,1361.67,2593284
-0.0446777,-0.11908,1.09351,-1.28174,0.793457,1.0376,-0.04,-0.108,2.5,-0.0195465,-0.0792999,0,0,0,0,0,40.97,1361.69,2593314
0.00170898,-0.0582886,0.921692,-0.12207,-0.12207,0.793457,0.007,-0.05,2.5,-0.0196381,-0.0808716,0,0,0,0,0,40.97,1361.71,2593329
0.00970459,-0.0518188,1.07446,0.244141,0.549316,0.244141,0.016,-0.043,2.49,-0.0196991,-0.0825043,0,0,0,0,0,40.97,1361.73,2593344
0.0145874,0.0439453,0.862671,-1.28174,-1.0376,0,0.024,0.05,2.48,-0.0196838,-0.0856781,0,0,0,0,0,40.97,1361.75,2593374
-0.012085,0.0957031,1.03644,0.12207,-0.244141,0.244141,0.001,0.104,2.48,-0.0196533,-0.0871429,0,0,0,0,0,40.97,1361.78,2593389
-0.0322266,-0.0234985,0.952881,-0.793457,0.183105,0,-0.024,-0.013,2.47,-0.0196228,-0.089859,0,0,0,0,0,40.97,1361.79,2593419
-0.000305176,0.0609131,1.01562,-0.671387,0.183105,0.427246,0.011,0.069,2.47,-0.0196381,-0.0911865,0,0,0,0,0,40.97,1361.81,2593434
0.00958252,-0.0427246,1.01208,-2.01416,-1.28174,0.732422,0.017,-0.034,2.47,-0.0196228,-0.0924835,0,0,0,0,0,40.97,1361.83,2593449
-0.0743408,-0.0263672,1.00354,0,1.34277,0.427246,-0.066,-0.013,2.46,-0.0196381,-0.093811,0,0,0,0,0,40.97,1361.85,2593464
0.0465088,0.0197144,0.981201,-1.0376,-0.915527,-0.0610352,0.056,0.026,2.44,-0.0198059,-0.0962982,0,0,0,0,0,40.97,1361.88,2593494
-0.0305176,-0.0269165,0.96991,0.0610352,0.976562,-0.244141,-0.022,-0.016,2.44,-0.0198517,-0.0974884,0,0,0,0,0,40.97,1361.89,2593509
0.0371094,0.0728149,1.1441,0.183105,0.854492,-0.610352,0.051,0.081,2.45,-0.0198822,-0.0986481,0,0,0,0,0,40.97,1361.91,2593524
-0.0567017,0.0958252,0.902588,2.19727,-0.183105,-0.488281,-0.043,0.106,2.47,-0.019928,-0.100891,0,0,0,0,0,40.97,1361.93,2593555
-0.0818481,0.0310059,1.0564,1.40381,1.58691,-0.976562,-0.069,0.043,2.48,-0.0200348,-0.101898,0,0,0,0,0,40.97,1361.95,2593569
0.0449219,0.153931,0.953674,-2.38037,-1.40381,-0.183105,0.061,0.16,2.49,-0.0201721,-0.103806,0,0,0,0,0,40.97,1361.98,2593599
0.0358887,0.119385,1.00098,-2.2583,-1.52588,-0.610352,0.051,0.126,2.49,-0.0201111,-0.104507,0,0,0,0,0,40.98,1361.99,2593615
-0.0293579,-0.012085,0.967957,-1.40381,0,-0.976562,-0.019,-0.001,2.5,-0.0200348,-0.105118,0,0,0,0,0,40.98,1362.01,2593629
0.0386963,0.0361328,1.05426,-0.732422,-0.549316,0.12207,0.051,0.044,2.5,-0.019928,-0.105713,0,0,0,0,0,40.98,1362.03,2593644
0.0564575,0.272339,0.796875,0.549316,-0.12207,-0.549316,0.076,0.277,2.53,-0.0196381,-0.107239,0,0,0,0,0,40.98,1362.05,2593675
-0.0327148,-0.25238,1.14008,3.78418,1.34277,-0.671387,-0.031,-0.24,2.53,-0.0194397,-0.107971,0,0,0,0,0,40.98,1362.07,2593689
-0.00762939,0.0491333,1.07184,1.0376,1.15967,-0.366211,0.006,0.058,2.54,-0.0192566,-0.108841,0,0,0,0,0,40.98,1362.09,2593704
0.00408936,0.0391846,0.966064,0.549316,0.427246,-0.488281,0.016,0.046,2.54,-0.0187683,-0.110123,0,0,0,0,0,40.98,1362.12,2593735
0.0203247,-0.211487,1.31055,-1.70898,2.19727,-0.244141,0.025,-0.199,2.53,-0.0181885,-0.111404,0,0,0,0,0,40.98,1362.15,2593764
-0.0546875,-0.0767212,0.860046,-2.74658,0.793457,0.671387,-0.048,-0.063,2.52,-0.0177765,-0.113297,0,0,0,0,0,40.98,1362.18,2593795
-0.0214844,-0.0174561,1.04755,-0.732422,0.549316,0.610352,-0.01,-0.002,2.52,-0.0176544,-0.114334,0,0,0,0,0,40.98,1362.19,2593809
-0.00878906,0.111572,0.930237,1.0376,-0.12207,0.732422,0.006,0.124,2.51,-0.0175323,-0.115295,0,0,0,0,0,40.98,1362.21,2593824
-0.0249023,-0.0960083,1.04596,1.89209,0.366211,-0.183105,-0.016,-0.08,2.51,-0.0172577,-0.117416,0,0,0,0,0,40.98,1362.23,2593855
-0.0479736,-0.0722046,1.06061,0.854492,0.366211,0.12207,-0.038,-0.055,2.5,-0.0171509,-0.118637,0,0,0,0,0,40.98,1362.25,2593869
-0.0142822,-0.0991821,1.01508,0.549316,0.305176,-0.366211,-0.006,-0.085,2.51,-0.0170746,-0.119965,0,0,0,0,0,40.98,1362.27,2593884
-0.0335083,-0.00598145,1.03558,0.0610352,-0.12207,-0.244141,-0.021,0.009,2.52,-0.0168457,-0.122849,0,0,0,0,0,40.98,1362.29,2593915
-0.00366211,0.0966797,1.03772,0.549316,-0.244141,-1.0376,0.013,0.11,2.53,-0.0167236,-0.124222,0,0,0,0,0,40.98,1362.31,2593929
0.0137329,-0.0614624,0.950012,0,-0.732422,-0.366211,0.022,-0.049,2.54,-0.0165863,-0.125565,0,0,0,0,0,40.98,1362.33,2593944
-0.0363159,0.0147705,1.05231,1.15967,0.0610352,-0.12207,-0.022,0.03,2.54,-0.0162201,-0.128204,0,0,0,0,0,40.98,1362.35,2593975
0.00219727,-0.102905,1.11493,-1.40381,1.34277,-0.427246,0.011,-0.088,2.54,-0.0160522,-0.129532,0,0,0,0,0,40.98,1362.37,2593989
-0.0511475,-0.276794,1.0069,-0.793457,1.40381,-1.40381,-0.05,-0.26,2.55,-0.0159149,-0.131104,0,0,0,0,0,40.98,1362.39,2594005
-0.0166626,0.0189209,0.998535,-0.183105,-0.366211,-0.671387,-0.003,0.035,2.57,-0.015625,-0.134659,0,0,0,0,0,40.98,1362.41,2594035
-0.0350952,-0.0169067,1.01434,2.13623,0.0610352,-0.915527,-0.023,0,2.58,-0.0154877,-0.136414,0,0,0,0,0,40.98,1362.43,2594050
-0.0715332,-0.157837,0.971313,2.01416,-0.12207,-0.366211,-0.066,-0.139,2.59,-0.0153961,-0.13826,0,0,0,0,0,40.98,1362.45,2594065
-0.00488281,-0.116821,1.02802,-4.27246,-1.0376,-1.46484,0.003,-0.098,2.63,-0.0153503,-0.142136,0,0,0,0,0,40.98,1362.47,2594095
-0.0566406,-0.0105591,0.95282,0.671387,-0.610352,-1.34277,-0.044,0.009,2.65,-0.0153809,-0.144165,0,0,0,0,0,40.98,1362.49,2594110
0.00201416,-0.0899658,0.983704,2.56348,-1.09863,0.244141,0.01,-0.072,2.65,-0.0154266,-0.14624,0,0,0,0,0,40.99,1362.51,2594125
0.0132446,-0.0286255,1.0083,1.0376,-0.427246,0.305176,0.024,-0.01,2.64,-0.0154724,-0.150604,0,0,0,0,0,40.99,1362.54,2594155
0.0130615,-0.110901,1.03424,0.183105,-0.305176,0.488281,0.02,-0.092,2.64,-0.0154419,-0.152878,0,0,0,0,0,40.99,1362.55,2594170
-0.0123291,-0.0228882,0.987549,-1.28174,-0.12207,0.427246,-0.001,-0.001,2.63,-0.0154114,-0.157791,0,0,0,0,0,40.99,1362.58,2594200
0.0067749,-0.0280151,0.982361,-0.854492,0.183105,0.305176,0.017,-0.007,2.63,-0.0153961,-0.157791,0,0,0,0,0,40.99,1362.59,2594215
-0.0169678,-0.0440063,1.00122,1.64795,0.671387,0.488281,-0.006,-0.022,2.62,-0.0153961,-0.157806,0,0,0,0,0,40.99,1362.62,2594230
-0.0303955,-0.0367432,0.99646,3.72314,0.549316,0.549316,-0.02,-0.015,2.61,-0.0154114,-0.157852,0,0,0,0,0,40.99,1362.63,2594245
0.000427246,0.000549316,1.01196,4.02832,0.0610352,0.366211,0.012,0.019,2.6,-0.0154419,-0.157898,0,0,0,0,0,40.99,1362.65,2594260
-0.0170898,0.0233154,1.01282,2.01416,-0.366211,-0.488281,-0.003,0.041,2.6,-0.0155182,-0.157883,0,0,0,0,0,40.99,1362.67,2594290
-0.0214233,-0.0146484,0.984741,1.15967,-0.488281,-0.854492,-0.009,0.003,2.62,-0.0155792,-0.157822,0,0,0,0,0,40.99,1362.7,2594305
-0.00762939,0.00958252,1.02698,0.793457,-0.671387,-1.34277,0.005,0.026,2.65,-0.0155792,-0.157654,0,0,0,0,0,40.99,1362.71,2594335
-0.00897217,0.012146,1.01318,0.732422,-0.732422,-1.70898,0.003,0.028,2.67,-0.0155792,-0.157501,0,0,0,0,0,40.99,1362.73,2594350
-0.0140381,-0.00256348,0.993469,1.09863,-0.549316,-1.58691,-0.002,0.012,2.7,-0.0155792,-0.157333,0,0,0,0,0,40.99,1362.75,2594365
0.00585938,0.0181885,1.01703,1.0376,-0.366211,-0.976562,0.018,0.032,2.74,-0.0155792,-0.156952,0,0,0,0,0,40.99,1362.77,2594395
-0.00109863,-0.00927734,1.01208,0.854492,-0.183105,-0.671387,0.009,0.004,2.74,-0.0155792,-0.156738,0,0,0,0,0,40.99,1362.79,2594410
-0.010437,-0.00506592,1.01172,0.671387,0.305176,-0.488281,0,0.008,2.75,-0.0155792,-0.156494,0,0,0,0,0,40.99,1362.81,2594425
-0.00909424,0.00640869,1.00854,0.244141,0.12207,-0.183105,0.002,0.019,2.76,-0.0155792,-0.156494,0,0,0,0,0,40.99,1362.83,2594455
-0.0187988,0.0140381,1.00562,0.427246,0.244141,0.12207,-0.006,0.027,2.76,-0.0155792,-0.156464,0,0,0,0,0,40.99,1362.85,2594470
-0.0253296,0.0116577,1.02954,0.488281,0.244141,0,-0.012,0.025,2.76,-0.0155792,-0.156403,0,0,0,0,0,40.99,1362.87,2594485
-0.020813,-0.00720215,0.998657,-0.793457,-0.366211,-0.488281,-0.009,0.005,2.77,-0.0155792,-0.156311,0,0,0,0,0,40.99,1362.89,2594515
-0.0209961,-0.00628662,1.00781,-1.64795,-0.366211,-0.488281,-0.009,0.006,2.77,-0.0155792,-0.156311,0,0,0,0,0,40.99,1362.91,2594530
-0.00775146,-0.000305176,1.0199,-2.13623,-0.488281,-0.183105,0.004,0.012,2.77,-0.0155792,-0.156311,0,0,0,0,0,40.99,1362.93,2594545
-0.00341797,-0.00817871,1,-2.86865,-0.488281,0.183105,0.007,0.005,2.77,-0.0155792,-0.156235,0,0,0,0,0,40.99,1362.95,2594575
-0.00140381,0.00579834,1.01263,-3.11279,-0.427246,0.366211,0.01,0.02,2.76,-0.0155792,-0.156158,0,0,0,0,0,40.99,1362.97,2594590
-0.0088501,0.0022583,1.02948,-2.92969,0.183105,0.366211,0.002,0.017,2.75,-0.0155792,-0.156067,0,0,0,0,0,40.99,1362.99,2594605
-0.0220337,-0.0675659,1.02063,-0.976562,0.488281,0.671387,-0.013,-0.05,2.73,-0.0155182,-0.155807,0,0,0,0,0,41.01,1363.01,2594635
-0.0332031,-0.0743408,1.03699,0.183105,1.09863,0.488281,-0.025,-0.057,2.72,-0.0155029,-0.155762,0,0,0,0,0,41.01,1363.03,2594650
0.0184326,0.081665,0.979065,2.19727,-1.09863,0.0610352,0.033,0.095,2.72,-0.0154877,-0.15567,0,0,0,0,0,41.01,1363.05,2594665
-0.0214844,-0.0522461,1.00214,2.68555,0.366211,-1.09863,-0.012,-0.036,2.74,-0.0154419,-0.155563,0,0,0,0,0,41.01,1363.08,2594695
-0.0141602,-0.0546265,1.03296,-0.183105,-0.488281,-0.732422,-0.004,-0.039,2.75,-0.0154419,-0.155563,0,0,0,0,0,41.01,1363.11,2594725
-0.0117798,0.0234375,1.03882,-1.15967,-0.183105,-0.671387,0.001,0.039,2.76,-0.0154419,-0.155502,0,0,0,0,0,41.01,1363.16,2594770
-0.0161133,-0.0895386,1.03064,-3.41797,0.0610352,-0.976562,-0.008,-0.071,2.78,-0.0155029,-0.155502,0,0,0,0,0,41.01,1363.18,2594800
-0.00927734,-0.0107422,0.999146,-2.56348,-0.12207,-0.610352,0.001,0.007,2.8,-0.0155334,-0.155594,0,0,0,0,0,41.01,1363.21,2594815
-0.0020752,-0.0256958,0.967773,-0.671387,-0.427246,-0.488281,0.007,-0.008,2.8,-0.0155334,-0.155594,0,0,0,0,0,41.01,1363.21,2594830
-0.0109253,-0.093689,1.01337,1.40381,0.305176,0.305176,-0.004,-0.075,2.8,-0.0155334,-0.155655,0,0,0,0,0,41.01,1363.23,2594845
-0.0135498,-0.0385742,1.00684,-1.58691,-0.183105,0.793457,-0.003,-0.017,2.78,-0.0155334,-0.156174,0,0,0,0,0,41.01,1363.25,2594875
-0.0098877,0.00292969,0.983704,0,0.0610352,0.244141,0.001,0.023,2.77,-0.0155334,-0.156479,0,0,0,0,0,41.01,1363.28,2594890
-0.0217896,-0.0593262,1.01514,2.99072,0.244141,-0.671387,-0.012,-0.038,2.78,-0.0155334,-0.157043,0,0,0,0,0,41.01,1363.31,2594920
0.000732422,-0.0419312,1.01355,1.70898,-0.12207,-0.671387,0.01,-0.022,2.79,-0.0155334,-0.157364,0,0,0,0,0,41.01,1363.32,2594936
-0.0144043,0.003479,1.00812,-0.305176,-0.244141,-0.244141,-0.002,0.022,2.81,-0.0155334,-0.158005,0,0,0,0,0,41.01,1363.34,2594965
-0.0144043,0.003479,1.00812,-0.305176,-0.244141,-0.244141,-0.002,0.022,2.81,-0.0155334,-0.158005,0,0,0,0,0,41.01,1363.35,2594965
-0.00396729,0.0401001,1.02228,0.427246,-0.0610352,0.305176,0.009,0.058,2.81,-0.0155334,-0.158478,0,0,0,0,0,41.01,1363.38,2594996
-0.00872803,0.0169678,1.02905,1.77002,0,0,0.003,0.034,2.81,-0.0155334,-0.158615,0,0,0,0,0,41.01,1363.39,2595010
-0.0118408,-0.0115967,1.01788,2.19727,0.183105,0.12207,0,0.005,2.81,-0.0155334,-0.158737,0,0,0,0,0,41.01,1363.41,2595025
-0.00439453,-0.0222778,1.01288,1.34277,-0.0610352,0.12207,0.006,-0.006,2.8,-0.0155334,-0.158844,0,0,0,0,0,41.01,1363.43,2595040
-0.0055542,0.0102539,1.013,0.244141,-0.183105,-0.12207,0.006,0.025,2.81,-0.0155334,-0.158829,0,0,0,0,0,41.01,1363.45,2595070
-0.010437,0.00750732,1.01471,0.549316,-0.183105,-0.0610352,0.001,0.022,2.81,-0.0155334,-0.158768,0,0,0,0,0,41.01,1363.47,2595085
-0.0108643,-0.00921631,1.01263,0.488281,-0.12207,-0.366211,0,0.005,2.81,-0.0155334,-0.158691,0,0,0,0,0,41.01,1363.49,2595100
-0.0125732,0.00994873,1.0108,-0.488281,-0.183105,-0.183105,0,0.024,2.82,-0.0155334,-0.158676,0,0,0,0,0,41.01,1363.51,2595130
-0.012085,-0.00390625,1.01813,-0.610352,-0.183105,0.12207,0,0.011,2.82,-0.0155334,-0.15863,0,0,0,0,0,41,1363.53,2595145
-0.00408936,0.00158691,1.01233,-0.732422,-0.12207,0.305176,0.007,0.016,2.81,-0.0155334,-0.158569,0,0,0,0,0,41,1363.55,2595160
-0.00823975,0.000671387,1.01544,-1.83105,-0.12207,0.0610352,0.003,0.015,2.81,-0.0155334,-0.158569,0,0,0,0,0,41,1363.57,2595190
-0.00396729,0.00506592,1.0191,-1.95312,-0.0610352,0,0.007,0.02,2.81,-0.0155334,-0.158554,0,0,0,0,0,41,1363.59,2595205
-0.0160522,-0.0331421,1.01123,-1.2207,-0.0610352,0.0610352,-0.006,-0.016,2.8,-0.0155334,-0.158432,0,0,0,0,0,41,1363.61,2595236
-0.0166626,-0.0193481,1.01471,-0.366211,0,0.0610352,-0.006,-0.002,2.8,-0.0155334,-0.158432,0,0,0,0,0,41,1363.63,2595250
-0.00946045,-0.0172119,1.01349,0.12207,-0.0610352,0,0.001,0,2.8,-0.0155334,-0.158432,0,0,0,0,0,41,1363.66,2595265
-0.00946045,-0.0172119,1.01349,0.12207,-0.0610352,0,0.001,0,2.8,-0.0155334,-0.158432,0,0,0,0,0,41,1363.67,2595265
-0.00946045,-0.0172119,1.01349,0.12207,-0.0610352,0,0.001,0,2.8,-0.0155334,-0.158432,0,0,0,0,0,41,1363.69,2595265
-0.00946045,-0.0172119,1.01349,0.12207,-0.0610352,0,0.001,0,2.8,-0.0155334,-0.158432,0,0,0,0,0,41,1363.71,2595265
-0.00946045,-0.0172119,1.01349,0.12207,-0.0610352,0,0.001,0,2.8,-0.0155334,-0.158432,0,0,0,0,0,41,1363.73,2595265
-0.00946045,-0.0172119,1.01349,0.12207,-0.0610352,0,0.001,0,2.8,-0.0155334,-0.158432,0,0,0,0,0,41,1363.75,2595265
-0.00946045,-0.0172119,1.01349,0.12207,-0.0610352,0,0.001,0,2.8,-0.0155334,-0.158432,0,0,0,0,0,41,1363.77,2595265
-0.00946045,-0.0172119,1.01349,0.12207,-0.0610352,0,0.001,0,2.8,-0.0155334,-0.158432,0,0,0,0,0,41,1363.79,2595265
-0.00946045,-0.0172119,1.01349,0.12207,-0.0610352,0,0.001,0,2.8,-0.0155334,-0.158432,0,0,0,0,0,41,1363.81,2595265
-0.00946045,-0.0172119,1.01349,0.12207,-0.0610352,0,0.001,0,2.8,-0.0155334,-0.158432,0,0,0,0,0,41,1363.83,2595265
-0.00946045,-0.0172119,1.01349,0.12207,-0.0610352,0,0.001,0,2.8,-0.0155334,-0.158432,0,0,0,0,0,41,1363.85,2595265
-0.00946045,-0.0172119,1.01349,0.12207,-0.0610352,0,0.001,0,2.8,-0.0155334,-0.158432,0,0,0,0,0,41,1363.87,2595265
-0.00946045,-0.0172119,1.01349,0.12207,-0.0610352,0,0.001,0,2.8,-0.0155334,-0.158432,0,0,0,0,0,41,1363.89,2595265
-0.00946045,-0.0172119,1.01349,0.12207,-0.0610352,0,0.001,0,2.8,-0.0155334,-0.158432,0,0,0,0,0,41,1363.91,2595265
-0.00946045,-0.0172119,1.01349,0.12207,-0.0610352,0,0.001,0,2.8,-0.0155334,-0.158432,0,0,0,0,0,41,1363.93,2595265
-0.00946045,-0.0172119,1.01349,0.12207,-0.0610352,0,0.001,0,2.8,-0.0155334,-0.158432,0,0,0,0,0,41,1363.95,2595265
-0.00946045,-0.0172119,1.01349,0.12207,-0.0610352,0,0.001,0,2.8,-0.0155334,-0.158432,0,0,0,0,0,41,1363.97,2595265
-0.00946045,-0.0172119,1.01349,0.12207,-0.0610352,0,0.001,0,2.8,-0.0155334,-0.158432,0,0,0,0,0,41,1363.99,2595265
-0.00946045,-0.0172119,1.01349,0.12207,-0.0610352,0,0.001,0,2.8,-0.0155334,-0.158432,0,0,0,0,0,41,1364.01,2595265
-0.00946045,-0.0172119,1.01349,0.12207,-0.0610352,0,0.001,0,2.8,-0.0155334,-0.158432,0,0,0,0,0,41,1364.03,2595265
-0.00946045,-0.0172119,1.01349,0.12207,-0.0610352,0,0.001,0,2.8,-0.0155334,-0.158432,0,0,0,0,0,41,1364.05,2595265
-0.00946045,-0.0172119,1.01349,0.12207,-0.0610352,0,0.001,0,2.8,-0.0155334,-0.158432,0,0,0,0,0,41,1364.07,2595265
-0.00946045,-0.0172119,1.01349,0.12207,-0.0610352,0,0.001,0,2.8,-0.0155334,-0.158432,0,0,0,0,0,41,1364.09,2595265
-0.00946045,-0.0172119,1.01349,0.12207,-0.0610352,0,0.001,0,2.8,-0.0155334,-0.158432,0,0,0,0,0,41,1364.11,2595265
-0.00946045,-0.0172119,1.01349,0.12207,-0.0610352,0,0.001,0,2.8,-0.0155334,-0.158432,0,0,0,0,0,41,1364.13,2595265
-0.00946045,-0.0172119,1.01349,0.12207,-0.0610352,0,0.001,0,2.8,-0.0155334,-0.158432,0,0,0,0,0,41,1364.15,2595265
-0.00946045,-0.0172119,1.01349,0.12207,-0.0610352,0,0.001,0,2.8,-0.0155334,-0.158432,0,0,0,0,0,41,1364.17,2595265
-0.00946045,-0.0172119,1.01349,0.12207,-0.0610352,0,0.001,0,2.8,-0.0155334,-0.158432,0,0,0,0,0,41,1364.19,2595265
-0.00946045,-0.0172119,1.01349,0.12207,-0.0610352,0,0.001,0,2.8,-0.0155334,-0.158432,0,0,0,0,0,41,1364.21,2595265
-0.00946045,-0.0172119,1.01349,0.12207,-0.0610352,0,0.001,0,2.8,-0.0155334,-0.158432,0,0,0,0,0,41,1364.23,2595265
-0.00946045,-0.0172119,1.01349,0.12207,-0.0610352,0,0.001,0,2.8,-0.0155334,-0.158432,0,0,0,0,0,41,1364.25,2595265
-0.00946045,-0.0172119,1.01349,0.12207,-0.0610352,0,0.001,0,2.8,-0.0155334,-0.158432,0,0,0,0,0,41,1364.27,2595265
-0.00946045,-0.0172119,1.01349,0.12207,-0.0610352,0,0.001,0,2.8,-0.0155334,-0.158432,0,0,0,0,0,41,1364.35,2595265
-0.00946045,-0.0172119,1.01349,0.12207,-0.0610352,0,0.001,0,2.8,-0.0155334,-0.158432,0,0,0,0,0,41,1364.38,2595265
-0.00946045,-0.0172119,1.01349,0.12207,-0.0610352,0,0.001,0,2.8,-0.0155334,-0.158432,0,0,0,0,0,41,1364.39,2595265
-0.00946045,-0.0172119,1.01349,0.12207,-0.0610352,0,0.001,0,2.8,-0.0155334,-0.158432,0,0,0,0,0,41,1364.41,2595265
-0.00946045,-0.0172119,1.01349,0.12207,-0.0610352,0,0.001,0,2.8,-0.0155334,-0.158432,0,0,0,0,0,41,1364.43,2595265
-0.00946045,-0.0172119,1.01349,0.12207,-0.0610352,0,0.001,0,2.8,-0.0155334,-0.158432,0,0,0,0,0,41,1364.46,2595265
-0.00946045,-0.0172119,1.01349,0.12207,-0.0610352,0,0.001,0,2.8,-0.0155334,-0.158432,0,0,0,0,0,41,1364.47,2595265
-0.00946045,-0.0172119,1.01349,0.12207,-0.0610352,0,0.001,0,2.8,-0.0155334,-0.158432,0,0,0,0,0,41,1364.49,2595265
-0.00946045,-0.0172119,1.01349,0.12207,-0.0610352,0,0.001,0,2.8,-0.0155334,-0.158432,0,0,0,0,0,41,1364.51,2595265
-0.00946045,-0.0172119,1.01349,0.12207,-0.0610352,0,0.001,0,2.8,-0.0155334,-0.158432,0,0,0,0,0,41,1364.53,2595265
-0.00946045,-0.0172119,1.01349,0.12207,-0.0610352,0,0.001,0,2.8,-0.0155334,-0.158432,0,0,0,0,0,41,1364.55,2595265
-0.00946045,-0.0172119,1.01349,0.12207,-0.0610352,0,0.001,0,2.8,-0.0155334,-0.158432,0,0,0,0,0,41,1364.57,2595265
-0.00946045,-0.0172119,1.01349,0.12207,-0.0610352,0,0.001,0,2.8,-0.0155334,-0.158432,0,0,0,0,0,41,1364.59,2595265
-0.00946045,-0.0172119,1.01349,0.12207,-0.0610352,0,0.001,0,2.8,-0.0155334,-0.158432,0,0,0,0,0,41,1364.61,2595265
-0.00946045,-0.0172119,1.01349,0.12207,-0.0610352,0,0.001,0,2.8,-0.0155334,-0.158432,0,0,0,0,0,41,1364.63,2595265
-0.00946045,-0.0172119,1.01349,0.12207,-0.0610352,0,0.001,0,2.8,-0.0155334,-0.158432,0,0,0,0,0,41,1364.65,2595265
-0.0217896,0.0622559,1.05554,-1.15967,-0.610352,-0.305176,-0.005,0.089,2.86,-0.0149841,-0.175537,0,0,0,0,0,41.02,1364.68,2596286
0.00360107,-0.0923462,0.940857,-2.86865,0.305176,-0.793457,0.011,-0.067,2.87,-0.0149841,-0.177994,0,0,0,0,0,41.02,1364.69,2596317
-0.0206909,0.0175171,0.954224,0.610352,0,-1.15967,-0.007,0.044,2.89,-0.0149841,-0.179276,0,0,0,0,0,41.02,1364.71,2596331
0.0133667,-0.0159302,1.07483,0.732422,0.183105,-0.671387,0.026,0.012,2.9,-0.0149689,-0.180511,0,0,0,0,0,41.02,1364.73,2596347
-0.0269775,-0.125244,1.04169,2.44141,0.366211,-0.793457,-0.019,-0.096,2.92,-0.0149536,-0.181808,0,0,0,0,0,41.02,1364.75,2596361
-0.0057373,-0.0458374,1.06335,2.62451,-0.244141,0.305176,0.006,-0.018,2.91,-0.0149994,-0.18483,0,0,0,0,0,41.02,1364.77,2596391
-0.0010376,-0.0528564,1.08563,-0.549316,-0.549316,0.488281,0.01,-0.025,2.91,-0.0150146,-0.186417,0,0,0,0,0,41.02,1364.79,2596406
-0.0197144,0.0166626,0.910645,-0.671387,-1.09863,-0.0610352,-0.006,0.04,2.91,-0.0150146,-0.187988,0,0,0,0,0,41.02,1364.81,2596421
-0.0296631,-0.09198,1.0813,-3.54004,-0.549316,0.244141,-0.019,-0.061,2.91,-0.0149841,-0.191345,0,0,0,0,0,41.02,1364.83,2596451
-0.0313721,0.00256348,0.976074,-0.366211,-0.976562,-1.28174,-0.018,0.032,2.93,-0.0149841,-0.194778,0,0,0,0,0,41.02,1364.86,2596481
0.00177002,-0.104614,1.06055,1.34277,0.427246,-0.610352,0.01,-0.074,2.94,-0.0149841,-0.196503,0,0,0,0,0,41.02,1364.87,2596497
-0.0410156,-0.0703735,1.00922,2.38037,0.732422,-1.46484,-0.031,-0.04,2.96,-0.0149994,-0.198288,0,0,0,0,0,41.02,1364.89,2596511
-0.00146484,-0.0235596,0.998596,2.38037,-0.183105,-1.70898,0.009,0.003,2.98,-0.0150299,-0.200104,0,0,0,0,0,41.02,1364.91,2596526
0.0302124,0.0057373,1.02191,-0.244141,0.366211,-0.427246,0.043,0.032,3,-0.0150299,-0.201904,0,0,0,0,0,41.02,1364.93,2596541
0.00140381,0.0278931,1.01019,-1.83105,-0.793457,0.244141,0.015,0.056,3.03,-0.0149384,-0.205566,0,0,0,0,0,41.02,1364.95,2596571
-0.0235596,0.0377808,0.96167,-1.0376,-0.244141,0,-0.009,0.066,3.03,-0.0149384,-0.207321,0,0,0,0,0,41.02,1364.97,2596586
0.113037,0.376465,0.878906,1.0376,-3.23486,1.09863,0.144,0.392,3.03,-0.0149384,-0.210251,0,0,0,0,0,41.02,1364.99,2596617
-0.0570679,-0.303406,1.03168,2.31934,0.793457,-3.23486,-0.06,-0.273,3.04,-0.0148468,-0.211456,0,0,0,0,0,41.02,1365.01,2596631
-0.0045166,0.189758,1.01855,1.58691,-0.671387,-0.976562,0.018,0.215,3.07,-0.0147858,-0.212708,0,0,0,0,0,41.02,1365.03,2596646
-0.0143433,-0.038147,1.07886,-0.0610352,0,0.427246,-0.002,-0.011,3.06,-0.0147095,-0.213821,0,0,0,0,0,41.02,1365.05,2596661
-0.0164795,-0.0424805,0.989136,-2.44141,-0.610352,-0.183105,-0.006,-0.017,3.11,-0.0144958,-0.214935,0,0,0,0,0,41.01,1365.07,2596691
0.0219116,0.000183105,1.10809,-2.56348,0.610352,-0.427246,0.035,0.026,3.11,-0.0143585,-0.21492,0,0,0,0,0,41.01,1365.09,2596706
-0.0556641,-0.0101929,1.00488,-0.488281,-0.183105,0.549316,-0.044,0.017,3.12,-0.0140076,-0.214493,0,0,0,0,0,41.01,1365.11,2596737
-0.00115967,-0.0427246,1.03729,-1.09863,0.305176,0,0.008,-0.017,3.11,-0.013855,-0.214493,0,0,0,0,0,41.01,1365.13,2596751
0.062439,0.0222168,1.06384,-1.95312,-0.854492,1.89209,0.076,0.045,3.1,-0.0136566,-0.214462,0,0,0,0,0,41.01,1365.15,2596766
-0.0667114,-0.0814819,0.967529,0.0610352,0,0.0610352,-0.06,-0.054,3.09,-0.013443,-0.214462,0,0,0,0,0,41.01,1365.17,2596781
0.0167847,0.0651855,1.03815,-0.915527,-0.305176,1.40381,0.031,0.089,3.08,-0.0132141,-0.214279,0,0,0,0,0,41.01,1365.19,2596812
-0.0106812,-0.13446,1.02576,0.427246,-0.549316,-1.09863,-0.006,-0.108,3.08,-0.013092,-0.214157,0,0,0,0,0,41.01,1365.21,2596827
-0.0327148,-0.0689697,0.98761,0.793457,-0.427246,-0.549316,-0.026,-0.043,3.08,-0.0131073,-0.21402,0,0,0,0,0,41.01,1365.23,2596857
-0.0307617,-0.0755615,1.09454,2.50244,-0.488281,-1.28174,-0.023,-0.048,3.1,-0.0131531,-0.21402,0,0,0,0,0,41.01,1365.25,2596872
0.0501709,-0.0734253,1.02325,0.305176,0.366211,-0.671387,0.056,-0.052,3.11,-0.0131989,-0.214081,0,0,0,0,0,41.01,1365.27,2596887
0.0734253,0.0910645,0.98291,1.0376,-1.40381,-1.77002,0.088,0.109,3.13,-0.0131226,-0.214111,0,0,0,0,0,41.01,1365.29,2596902
0.00848389,0.0822144,0.971436,0.12207,0.305176,-2.01416,0.022,0.103,3.2,-0.0129547,-0.214066,0,0,0,0,0,41.01,1365.31,2596932
-0.0126343,-0.0887451,1.02942,-0.671387,-0.305176,-3.84521,-0.007,-0.065,3.25,-0.0128784,-0.21402,0,0,0,0,0,41.01,1365.33,2596947
-0.0286865,0.0733032,0.965149,0.793457,0.366211,-1.70898,-0.014,0.095,3.29,-0.0128784,-0.213791,0,0,0,0,0,41.01,1365.35,2596977
0.0670166,-0.0267334,1.04736,-1.77002,-1.28174,-2.0752,0.076,-0.008,3.33,-0.0128326,-0.213562,0,0,0,0,0,41.01,1365.37,2596992
-0.041748,0.0427246,0.990967,-0.854492,0.671387,0.12207,-0.029,0.066,3.33,-0.0127563,-0.213303,0,0,0,0,0,41.01,1365.4,2597007
-0.057373,0.010498,1.03864,-0.488281,-1.89209,-1.46484,-0.046,0.036,3.35,-0.0127411,-0.212952,0,0,0,0,0,41.01,1365.41,2597022
-0.0628052,-0.23584,1.06427,-1.40381,1.46484,-0.488281,-0.066,-0.209,3.33,-0.0124969,-0.211609,0,0,0,0,0,41.01,1365.43,2597052
0.0285645,0.125366,1.02374,-0.732422,-0.854492,-2.0752,0.045,0.145,3.37,-0.0123596,-0.210922,0,0,0,0,0,41.01,1365.45,2597068
-0.0577393,-0.150635,0.961609,-0.244141,0,-2.99072,-0.057,-0.126,3.39,-0.011795,-0.208725,0,0,0,0,0,41.01,1365.47,2597097
0.0202026,-0.0637207,1.0816,0.610352,0.732422,-0.732422,0.026,-0.041,3.42,-0.0115051,-0.207657,0,0,0,0,0,41.01,1365.49,2597112
0.0300903,0.0279541,1.01587,0.0610352,1.0376,-0.915527,0.041,0.046,3.43,-0.0111847,-0.206589,0,0,0,0,0,41.01,1365.52,2597127
-0.0373535,-0.105286,0.994873,1.2207,-0.854492,-0.671387,-0.034,-0.082,3.43,-0.010849,-0.205536,0,0,0,0,0,41.01,1365.53,2597142
-0.0187378,0.0910645,1.0484,-0.610352,-1.34277,-0.427246,-0.002,0.113,3.43,-0.0102234,-0.203461,0,0,0,0,0,41.01,1365.55,2597172
0.0159302,-0.0126953,1.00891,-2.68555,-0.366211,0.976562,0.024,0.007,3.43,-0.0098877,-0.202301,0,0,0,0,0,40.96,1365.57,2597187
-0.0227661,0.0261841,1.06403,-1.0376,-1.52588,-0.549316,-0.01,0.05,3.41,-0.00921631,-0.199844,0,0,0,0,0,40.96,1365.59,2597217
0.00189209,-0.00488281,1.01776,-1.0376,1.89209,1.0376,0.011,0.016,3.4,-0.00921631,-0.198547,0,0,0,0,0,40.96,1365.62,2597232
-0.017334,-0.0847168,0.99939,-1.0376,-1.0376,-1.09863,-0.012,-0.062,3.4,-0.00921631,-0.197266,0,0,0,0,0,40.96,1365.63,2597247
-0.0233154,0.0438843,0.973633,0,0.976562,-0.915527,-0.011,0.065,3.41,-0.00917053,-0.194748,0,0,0,0,0,40.96,1365.66,2597277
0.0150146,-0.0430298,1.04858,-0.915527,-1.2207,-2.38037,0.022,-0.021,3.45,-0.00914001,-0.193436,0,0,0,0,0,40.96,1365.68,2597292
-0.0154419,-0.0668945,1.02979,-0.305176,1.89209,0.305176,-0.009,-0.043,3.45,-0.00909424,-0.192154,0,0,0,0,0,40.96,1365.69,2597307
-0.0392456,-0.0682983,1.00037,-0.488281,-0.183105,-0.732422,-0.033,-0.044,3.49,-0.0091095,-0.189896,0,0,0,0,0,40.96,1365.71,2597337
0.00500488,0.0725098,1.05835,-0.244141,0.244141,1.83105,0.019,0.095,3.47,-0.00915527,-0.188782,0,0,0,0,0,40.96,1365.73,2597352
-0.0231934,0.00323486,1.02289,-1.46484,-1.15967,-1.77002,-0.012,0.026,3.48,-0.00915527,-0.187592,0,0,0,0,0,40.96,1365.75,2597367
0.0126343,-0.0703125,0.976562,-0.976562,-0.305176,0.976562,0.017,-0.049,3.48,-0.00915527,-0.186401,0,0,0,0,0,40.96,1365.77,2597382
-0.0375366,-0.0429688,1.00983,0,-1.34277,-0.0610352,-0.03,-0.018,3.48,-0.0091095,-0.184006,0,0,0,0,0,40.96,1365.79,2597412
-0.0334473,0.043335,0.992859,1.40381,0.854492,0.427246,-0.021,0.067,3.47,-0.00912476,-0.18277,0,0,0,0,0,40.96,1365.81,2597427
0.0855713,-0.098938,1.32172,0.12207,-0.427246,-1.40381,0.091,-0.074,3.48,-0.00909424,-0.181534,0,0,0,0,0,40.96,1365.83,2597442
-0.0439453,-0.151367,0.997192,2.0752,-0.610352,0.183105,-0.044,-0.125,3.49,-0.0088501,-0.179047,0,0,0,0,0,40.96,1365.85,2597472
0.00219727,-0.203186,1.09814,-1.83105,1.09863,0.244141,0,-0.178,3.49,-0.00875854,-0.178024,0,0,0,0,0,40.96,1365.87,2597487
-0.0351562,0.0567627,0.977966,-1.95312,0.244141,1.28174,-0.022,0.08,3.49,-0.00868225,-0.177063,0,0,0,0,0,40.96,1365.89,2597502
0.00622559,-0.0413208,1.07336,-1.64795,0.0610352,-0.427246,0.012,-0.017,3.5,-0.00860596,-0.174942,0,0,0,0,0,40.96,1365.91,2597532
-0.0137939,0.0786133,0.936707,-0.671387,-0.793457,-1.89209,0,0.1,3.52,-0.00860596,-0.173813,0,0,0,0,0,40.96,1365.93,2597547
-0.0169067,-0.0230713,0.97229,0.854492,-1.70898,-1.15967,-0.009,0,3.54,-0.00860596,-0.172623,0,0,0,0,0,40.96,1365.95,2597562
-0.0176392,-0.050415,1.04596,1.15967,0.12207,-2.2583,-0.011,-0.026,3.57,-0.00860596,-0.170181,0,0,0,0,0,40.96,1365.97,2597592
-0.0045166,-0.0452271,0.989502,0.671387,0.305176,-1.0376,0,-0.023,3.59,-0.00860596,-0.168991,0,0,0,0,0,40.96,1365.99,2597607
0.0701294,0.0401001,0.992981,-1.70898,-1.2207,-1.40381,0.08,0.057,3.61,-0.00856018,-0.16777,0,0,0,0,0,40.96,1366.01,2597622
-0.0459595,-0.108276,0.962463,0.366211,1.15967,0.488281,-0.044,-0.083,3.63,-0.00845337,-0.165222,0,0,0,0,0,40.96,1366.03,2597652
-0.046814,-0.0458374,1.07446,1.28174,0.854492,-0.488281,-0.04,-0.019,3.63,-0.00848389,-0.164017,0,0,0,0,0,40.96,1366.05,2597667
0.0324097,0.0496216,0.958374,-0.610352,-1.28174,-0.854492,0.043,0.068,3.62,-0.00845337,-0.163986,0,0,0,0,0,41,1366.07,2597698
-0.00384521,0.00213623,0.968506,-0.610352,-1.58691,-0.244141,0.004,0.023,3.63,-0.00837708,-0.163879,0,0,0,0,0,41,1366.1,2597712
-0.0665283,-0.0230103,1.0199,0.12207,-0.366211,-1.40381,-0.059,0.002,3.63,-0.00840759,-0.163483,0,0,0,0,0,41,1366.13,2597742
0.00744629,0.0195923,0.989624,1.34277,-0.671387,0.671387,0.016,0.04,3.63,-0.00846863,-0.163208,0,0,0,0,0,41,1366.15,2597758
-0.0186157,0.0396118,0.968323,0.732422,-0.610352,-0.732422,-0.008,0.06,3.65,-0.0085144,-0.162491,0,0,0,0,0,41,1366.17,2597787
0.0296021,0.0150146,0.98584,0.0610352,0.610352,0,0.038,0.033,3.65,-0.00848389,-0.162033,0,0,0,0,0,41,1366.19,2597802
-0.00415039,0.0132446,1.07117,-0.793457,-1.2207,-2.50244,0.004,0.034,3.67,-0.00843811,-0.161514,0,0,0,0,0,41,1366.2,2597818
-0.0697632,-0.0904541,0.984436,-0.12207,1.40381,-0.610352,-0.068,-0.066,3.69,-0.00843811,-0.161041,0,0,0,0,0,41,1366.21,2597832
0.0343018,-0.0281372,1.02295,0.488281,0.12207,-2.74658,0.039,-0.01,3.72,-0.00845337,-0.160599,0,0,0,0,0,41,1366.23,2597847
0.0994873,0.348877,0.780518,-1.34277,-3.11279,-2.13623,0.128,0.356,3.78,-0.00834656,-0.159927,0,0,0,0,0,41,1366.25,2597862
-0.031311,0.124512,1.03235,-0.183105,0.12207,-3.05176,-0.014,0.145,3.82,-0.00816345,-0.158569,0,0,0,0,0,41,1366.28,2597892
0.050354,0.0938721,0.956238,-1.58691,-0.305176,-0.549316,0.064,0.108,3.84,-0.0080719,-0.157761,0,0,0,0,0,41,1366.29,2597907
-0.0250854,0.0591431,0.967896,-0.244141,-0.732422,-2.92969,-0.013,0.079,3.86,-0.00794983,-0.15683,0,0,0,0,0,41,1366.31,2597922
0.0534668,0.287903,0.95166,-0.793457,-0.12207,0.12207,0.08,0.302,3.9,-0.00769043,-0.154724,0,0,0,0,0,41,1366.33,2597952
-0.0163574,-0.00836182,0.974609,-0.976562,-1.46484,-2.56348,-0.009,0.011,3.92,-0.00747681,-0.153381,0,0,0,0,0,41,1366.35,2597967
-0.024231,-0.0618896,1.05847,-0.305176,-0.12207,-2.13623,-0.02,-0.04,3.96,-0.00712585,-0.150848,0,0,0,0,0,41,1366.37,2597998
0.00592041,-0.012146,0.968567,1.09863,-0.305176,-0.427246,0.012,0.005,3.98,-0.00695801,-0.149628,0,0,0,0,0,41,1366.39,2598012
0.0178833,-0.0132446,1.00079,1.28174,1.46484,-0.549316,0.025,0.004,3.98,-0.0067749,-0.149628,0,0,0,0,0,41,1366.41,2598027
-0.00408936,-0.0656738,1.04938,-0.854492,-0.671387,0.183105,0,-0.045,3.99,-0.00656128,-0.149658,0,0,0,0,0,41,1366.43,2598042
-0.0487671,-0.0441895,0.99469,-1.0376,-0.549316,-0.244141,-0.043,-0.021,3.96,-0.00617981,-0.149734,0,0,0,0,0,41,1366.45,2598072
0.0524292,-0.0497437,1.03223,-1.46484,0.305176,0.793457,0.057,-0.033,3.96,-0.0059967,-0.149811,0,0,0,0,0,41,1366.48,2598087
-0.0178223,0.0361328,0.99292,-0.488281,0.244141,0.610352,-0.007,0.056,3.94,-0.00576782,-0.149872,0,0,0,0,0,41,1366.49,2598102
0.0439453,0.0498047,1.03265,0.549316,1.15967,0.305176,0.056,0.066,3.94,-0.0057373,-0.14978,0,0,0,0,0,41,1366.52,2598132
0.013855,0.0210571,1.07336,-2.68555,-1.64795,-1.2207,0.024,0.04,3.95,-0.00564575,-0.149628,0,0,0,0,0,41,1366.53,2598147
-0.06604,-0.0852661,0.959412,-0.244141,0.976562,-0.915527,-0.063,-0.062,3.96,-0.00558472,-0.14949,0,0,0,0,0,41,1366.55,2598162
-0.00811768,-0.0640869,0.95697,-0.854492,-1.09863,-1.89209,-0.004,-0.044,3.99,-0.00544739,-0.149124,0,0,0,0,0,41,1366.57,2598193
-0.0142822,0.0192261,0.983582,0.366211,0.915527,-0.549316,-0.004,0.039,4,-0.00544739,-0.148926,0,0,0,0,0,40.97,1366.59,2598208
-0.0454102,-0.0245361,1.06409,-1.09863,-1.0376,-1.46484,-0.037,0,4.02,-0.00547791,-0.148712,0,0,0,0,0,40.97,1366.61,2598223
-0.0109253,-0.0446167,1.08545,0.915527,-0.366211,0.366211,-0.004,-0.022,4.02,-0.00570679,-0.148422,0,0,0,0,0,40.97,1366.63,2598253
0.112549,0.279846,0.759827,-2.92969,-3.11279,0.671387,0.138,0.285,4.02,-0.00575256,-0.148132,0,0,0,0,0,40.97,1366.65,2598268
-0.0942993,-0.342041,0.978027,0.549316,1.28174,-0.915527,-0.109,-0.315,4.02,-0.00578308,-0.147873,0,0,0,0,0,40.97,1366.67,2598283
0.0805054,0.146423,0.963562,-3.78418,-2.01416,0.915527,0.099,0.159,4.02,-0.00585938,-0.147446,0,0,0,0,0,40.97,1366.69,2598313
-0.0264282,-0.00494385,0.976929,-0.0610352,-0.427246,-1.15967,-0.017,0.016,4.03,-0.00579834,-0.147034,0,0,0,0,0,40.97,1366.71,2598328
-0.00671387,-0.083374,0.992554,-0.305176,0.305176,-0.427246,-0.003,-0.062,4.05,-0.00579834,-0.146637,0,0,0,0,0,40.97,1366.73,2598343
-0.000366211,-0.0649414,0.935181,-0.671387,-1.40381,-1.15967,0.003,-0.046,4.05,-0.00567627,-0.145889,0,0,0,0,0,40.97,1366.75,2598373
-0.0230103,-6.10352e-05,0.968262,0.610352,0.0610352,0.366211,-0.014,0.021,4.06,-0.00561523,-0.145523,0,0,0,0,0,40.97,1366.77,2598388
0.0341797,-0.0012207,0.97644,-0.12207,-0.549316,-0.305176,0.042,0.015,4.07,-0.00556946,-0.144684,0,0,0,0,0,40.97,1366.79,2598418
0.0385742,-0.0386963,1.04272,-1.89209,-0.0610352,-1.15967,0.045,-0.02,4.08,-0.00550842,-0.144241,0,0,0,0,0,40.97,1366.82,2598433
-0.043335,-0.041748,1.00098,-1.28174,-0.671387,-1.09863,-0.037,-0.018,4.1,-0.00541687,-0.143829,0,0,0,0,0,40.97,1366.83,2598448
-0.0193481,-0.019104,1.04858,0.366211,0.427246,-2.56348,-0.011,0.003,4.13,-0.00537109,-0.142914,0,0,0,0,0,40.97,1366.86,2598478
-0.00488281,-0.0119019,0.987854,1.70898,0.305176,-0.671387,0.003,0.007,4.15,-0.00537109,-0.14241,0,0,0,0,0,40.97,1366.87,2598493
0.00390625,0.0681763,1.03473,2.0752,0.12207,-1.70898,0.018,0.087,4.16,-0.00537109,-0.141861,0,0,0,0,0,40.97,1366.89,2598508
0.0043335,-0.0564575,0.999878,1.64795,0.183105,-0.793457,0.009,-0.038,4.18,-0.00537109,-0.141266,0,0,0,0,0,40.97,1366.91,2598523
-0.0393677,-0.0183105,1.05737,-0.183105,-0.183105,-0.244141,-0.03,0.004,4.18,-0.00538635,-0.140717,0,0,0,0,0,40.97,1366.93,2598553
-0.0206909,-0.0466919,1.0495,-1.95312,-0.488281,1.15967,-0.014,-0.025,4.16,-0.00543213,-0.140732,0,0,0,0,0,40.97,1366.95,2598568
-0.022644,0.0128784,0.982056,-0.610352,-0.732422,-0.976562,-0.012,0.032,4.17,-0.00550842,-0.140732,0,0,0,0,0,40.97,1366.97,2598583
0.00415039,-0.0358276,1.06128,1.09863,0.915527,-0.0610352,0.011,-0.016,4.18,-0.00550842,-0.140793,0,0,0,0,0,40.97,1366.99,2598613
0.0496216,0.0489502,0.962036,0.183105,-1.46484,-1.0376,0.062,0.062,4.19,-0.00544739,-0.140808,0,0,0,0,0,40.97,1367.01,2598628
0.0065918,-0.0293579,1.03308,0.12207,-0.549316,-0.305176,0.013,-0.011,4.2,-0.00535583,-0.140793,0,0,0,0,0,40.97,1367.03,2598643
-0.0283203,-0.284363,1.03943,-1.0376,1.64795,-0.793457,-0.04,-0.265,4.21,-0.00517273,-0.140289,0,0,0,0,0,40.97,1367.05,2598673
0.0498657,0.211243,1.03418,1.70898,-0.12207,-1.2207,0.074,0.224,4.23,-0.00506592,-0.14006,0,0,0,0,0,40.97,1367.07,2598688
-0.0692749,0.107544,1.12109,0.854492,0.732422,-1.2207,-0.051,0.13,4.25,-0.00495911,-0.139572,0,0,0,0,0,40.97,1367.09,2598703
-0.0316772,-0.00524902,0.983459,-2.44141,0.0610352,-2.01416,-0.023,0.012,4.28,-0.00485229,-0.138657,0,0,0,0,0,40.97,1367.11,2598733
0.0128784,-0.0132446,1.03906,0.854492,0.305176,-2.31934,0.021,0.003,4.31,-0.00480652,-0.138214,0,0,0,0,0,40.97,1367.13,2598748
-0.0455322,-0.0813599,1.01886,-1.58691,0.12207,-1.83105,-0.042,-0.061,4.33,-0.004776,-0.137817,0,0,0,0,0,40.97,1367.15,2598763
0.000549316,-0.0233154,1.10236,0.305176,1.09863,-0.976562,0.009,-0.005,4.38,-0.004776,-0.137222,0,0,0,0,0,40.97,1367.17,2598793
0.00274658,-0.085022,0.957703,-0.549316,-0.12207,-0.793457,0.005,-0.069,4.41,-0.004776,-0.136856,0,0,0,0,0,40.97,1367.21,2598823
-0.0681763,0.0250244,1.02051,-0.183105,0.0610352,-1.0376,-0.056,0.047,4.42,-0.00480652,-0.136734,0,0,0,0,0,40.97,1367.22,2598838
-0.0020752,-0.000305176,0.964722,0.305176,0.488281,-1.34277,0.007,0.015,4.43,-0.00488281,-0.136566,0,0,0,0,0,40.97,1367.24,2598853
0.041687,0.0175781,1.06085,0.488281,-0.183105,-1.95312,0.053,0.031,4.46,-0.00491333,-0.136368,0,0,0,0,0,40.97,1367.26,2598868
-0.0122681,0.0233765,1.01349,3.72314,0.427246,-0.305176,0,0.04,4.48,-0.00485229,-0.136017,0,0,0,0,0,40.97,1367.28,2598898
-0.0559082,0.038147,1.04895,-1.64795,0.549316,0.183105,-0.042,0.058,4.47,-0.00453186,-0.135208,0,0,0,0,0,40.97,1367.33,2598943
-0.0552979,0.00213623,1.00958,-0.366211,0.610352,0.427246,-0.045,0.022,4.46,-0.0042572,-0.13414,0,0,0,0,0,40.97,1367.35,2598973
0.00640869,0.0874023,0.991638,0.0610352,-0.0610352,0,0.023,0.101,4.45,-0.00410461,-0.133453,0,0,0,0,0,40.97,1367.37,2598988
-0.0641479,-0.0396118,1.04797,0.427246,0.549316,-0.610352,-0.056,-0.018,4.45,-0.00382996,-0.13205,0,0,0,0,0,40.97,1367.4,2599018
0.0286865,-0.0327148,1.00989,-0.366211,0.915527,-0.793457,0.036,-0.019,4.47,-0.0037384,-0.13205,0,0,0,0,0,40.97,1367.42,2599033
-0.130859,-0.164001,1.22968,4.08936,1.46484,-0.793457,-0.13,-0.134,4.47,-0.00369263,-0.132156,0,0,0,0,0,40.97,1367.44,2599048
-0.0488281,-0.155151,0.88385,-2.92969,2.80762,1.15967,-0.052,-0.138,4.46,-0.00378418,-0.132446,0,0,0,0,0,40.97,1367.45,2599063
-0.0980225,-0.0834961,1.14496,-0.12207,-0.0610352,-0.183105,-0.092,-0.058,4.5,-0.00405884,-0.133072,0,0,0,0,0,40.97,1367.47,2599093
-0.0476074,-0.0969849,0.908325,-0.0610352,-1.28174,0.610352,-0.045,-0.079,4.49,-0.00431824,-0.133484,0,0,0,0,0,40.97,1367.49,2599108
-0.0683594,0.00811768,1.05432,0.427246,0.305176,0.12207,-0.056,0.03,4.49,-0.00465393,-0.133911,0,0,0,0,0,40.97,1367.51,2599123
-0.00848389,-0.00994873,0.977112,-0.793457,-1.58691,-0.793457,0,0.006,4.49,-0.00523376,-0.134567,0,0,0,0,0,40.97,1367.53,2599153
-0.0105591,-0.0783691,0.961243,0.12207,-0.305176,-0.305176,-0.007,-0.062,4.49,-0.00523376,-0.134903,0,0,0,0,0,40.97,1367.56,2599168
-0.03479,-0.117188,1.00482,-0.0610352,-0.366211,-0.427246,-0.034,-0.098,4.5,-0.00531006,-0.135803,0,0,0,0,0,40.97,1367.58,2599199
-0.0170898,-0.0410156,1.00305,0.12207,0.427246,-0.488281,-0.01,-0.023,4.51,-0.00540161,-0.136383,0,0,0,0,0,40.97,1367.6,2599213
-0.057373,0.0366821,1.0719,-0.183105,0.549316,-0.488281,-0.044,0.058,4.52,-0.00553894,-0.136948,0,0,0,0,0,40.94,1367.61,2599228
-0.0112305,-0.0511475,1.04346,-0.976562,0.366211,-0.793457,-0.005,-0.032,4.52,-0.00570679,-0.137497,0,0,0,0,0,40.94,1367.63,2599243
0.0213013,-0.0596313,1.03326,0.366211,-0.427246,-0.183105,0.026,-0.044,4.52,-0.00602722,-0.138702,0,0,0,0,0,40.94,1367.65,2599273
-0.0113525,-0.0825806,0.992615,0.915527,0.305176,-0.854492,-0.008,-0.064,4.53,-0.00617981,-0.13942,0,0,0,0,0,40.94,1367.67,2599288
0.0120239,-0.0304565,1.0481,-0.671387,-1.09863,0,0.019,-0.014,4.53,-0.00631714,-0.140167,0,0,0,0,0,40.94,1367.69,2599303
-0.0610962,-0.112061,1.0766,2.31934,2.0752,-1.09863,-0.06,-0.089,4.55,-0.00636292,-0.14212,0,0,0,0,0,40.94,1367.71,2599333
0.0629883,-0.0498047,1.02112,0.0610352,-0.183105,-0.427246,0.068,-0.038,4.56,-0.00639343,-0.143265,0,0,0,0,0,40.94,1367.73,2599348
6.10352e-05,0.0397339,0.938599,0.976562,-0.915527,-0.732422,0.011,0.054,4.58,-0.00637817,-0.145706,0,0,0,0,0,40.94,1367.76,2599379
-0.0459595,0.034668,0.958252,0.671387,0.12207,-0.793457,-0.034,0.053,4.6,-0.00639343,-0.146851,0,0,0,0,0,40.94,1367.77,2599393
0.0350342,0.142151,0.978394,-0.976562,-1.34277,0.12207,0.055,0.154,4.6,-0.00639343,-0.147858,0,0,0,0,0,40.94,1367.8,2599408
-0.0223999,-0.0175781,1.02704,-1.28174,0.0610352,-0.183105,-0.014,0,4.59,-0.00637817,-0.148758,0,0,0,0,0,40.94,1367.81,2599423
-0.0435791,-0.352173,1.09808,-1.40381,1.58691,-0.671387,-0.061,-0.331,4.59,-0.00613403,-0.149994,0,0,0,0,0,40.94,1367.83,2599453
0.0335083,0.19342,0.911804,-0.915527,-1.0376,-0.244141,0.057,0.203,4.61,-0.0059967,-0.150681,0,0,0,0,0,40.94,1367.85,2599468
0.0709839,0.257751,1.047,-0.488281,-2.13623,0.12207,0.101,0.267,4.6,-0.00575256,-0.151031,0,0,0,0,0,40.94,1367.87,2599483
-0.0405884,-0.0244141,1.00293,-0.427246,-0.244141,-0.366211,-0.033,-0.006,4.61,-0.00514221,-0.151764,0,0,0,0,0,40.94,1367.89,2599513
-0.00421143,0.057251,1.04236,1.89209,0.976562,-0.244141,0.009,0.072,4.61,-0.00486755,-0.15213,0,0,0,0,0,40.94,1367.91,2599528
-0.0688477,-0.0742188,1.02698,2.31934,0.427246,-1.58691,-0.065,-0.053,4.63,-0.00463867,-0.152496,0,0,0,0,0,40.94,1367.93,2599543
0.0184326,-0.0285645,0.945557,0.488281,-0.488281,-1.58691,0.024,-0.017,4.67,-0.00416565,-0.153473,0,0,0,0,0,40.94,1367.95,2599574
0.0161133,0.046814,1.02209,-0.305176,-0.793457,-2.19727,0.029,0.059,4.7,-0.00386047,-0.153961,0,0,0,0,0,40.94,1367.97,2599589
0.0319824,-0.0706787,0.972107,-1.52588,0.671387,-2.13623,0.034,-0.06,4.73,-0.00352478,-0.154465,0,0,0,0,0,40.94,1367.99,2599604
-0.00170898,0.0240479,1.03229,0,0.915527,-2.31934,0.009,0.038,4.79,-0.0027771,-0.155167,0,0,0,0,0,40.94,1368.01,2599634
-0.0415039,-0.0544434,1.03638,0.427246,0.427246,-1.89209,-0.036,-0.036,4.83,-0.00239563,-0.155441,0,0,0,0,0,40.94,1368.03,2599649
-0.00891113,0.0196533,1.01202,1.58691,0.976562,-0.610352,0.002,0.033,4.83,-0.00205994,-0.155731,0,0,0,0,0,40.94,1368.05,2599664
0.0484009,-0.052124,1.06,0,0.244141,-1.0376,0.054,-0.043,4.87,-0.00135803,-0.156433,0,0,0,0,0,40.94,1368.07,2599694
0.012085,0.0869751,0.918701,1.2207,0.427246,-1.64795,0.028,0.096,4.88,-0.000946045,-0.156784,0,0,0,0,0,40.94,1368.09,2599709
0.0507812,0.0748901,1.06226,0.549316,0.0610352,-1.15967,0.068,0.083,4.9,-0.000473022,-0.157013,0,0,0,0,0,40.94,1368.11,2599724
-0.0286255,0.0678711,1.02118,1.89209,0.183105,-0.366211,-0.011,0.081,4.92,0.000473022,-0.157471,0,0,0,0,0,40.98,1368.13,2599754
0.00134277,0.00671387,0.976746,0,0.976562,0.12207,0.012,0.016,4.92,0.000473022,-0.157639,0,0,0,0,0,40.98,1368.15,2599769
-0.0252686,0.0410767,1.0293,0.427246,-0.610352,-0.427246,-0.01,0.053,4.92,0.000473022,-0.157745,0,0,0,0,0,40.98,1368.17,2599784
0.0976562,-0.163757,1.23456,0.610352,0.976562,-1.15967,0.096,-0.159,4.94,0.000518799,-0.15802,0,0,0,0,0,40.98,1368.19,2599814
-0.0338745,0.0592651,0.982361,6.04248,-0.488281,-1.0376,-0.017,0.07,4.94,0.000915527,-0.158157,0,0,0,0,0,40.98,1368.22,2599844
-0.0338745,0.0592651,0.982361,6.04248,-0.488281,-1.0376,-0.017,0.07,4.94,0.000915527,-0.158157,0,0,0,0,0,40.98,1368.23,2599844
-0.0110474,0.0430908,0.952209,5.7373,-0.732422,-1.34277,0.003,0.048,4.98,0.000915527,-0.157883,0,0,0,0,0,40.98,1368.25,2599874
0.00823975,0.0324707,0.985657,7.08008,0.671387,-2.86865,0.021,0.034,5.01,0.000930786,-0.157654,0,0,0,0,0,40.98,1368.27,2599889
0.0141602,-0.115967,1.02759,5.43213,-0.244141,-1.15967,0.015,-0.115,5.05,0.000976562,-0.157486,0,0,0,0,0,40.98,1368.29,2599904
-0.00616455,-0.0219727,0.951111,4.69971,-1.0376,-2.2583,0.002,-0.022,5.06,0.00100708,-0.15712,0,0,0,0,0,40.98,1368.31,2599934
-0.0418091,0.012085,1.00739,5.43213,0,0.366211,-0.029,0.012,5.08,0.000991821,-0.156906,0,0,0,0,0,40.98,1368.33,2599949
-0.0205688,-0.0118408,0.962158,4.08936,-0.915527,1.34277,-0.01,-0.014,5.06,0.000961304,-0.156708,0,0,0,0,0,40.98,1368.35,2599964
-0.0360107,-0.0203857,1.01825,1.77002,0.488281,2.19727,-0.026,-0.023,5.03,0.000869751,-0.156723,0,0,0,0,0,40.98,1368.37,2599994
0.0299683,0.064209,0.978577,3.23486,-1.34277,0.488281,0.045,0.054,5.01,0.000823975,-0.156723,0,0,0,0,0,40.98,1368.39,2600009
-0.00756836,0.0349731,1.04681,4.15039,-0.427246,0.793457,0.005,0.027,5,0.000823975,-0.156662,0,0,0,0,0,40.98,1368.41,2600024
0.0182495,-0.0706787,1.02271,6.83594,-1.15967,0.12207,0.02,-0.085,4.99,0.000915527,-0.156235,0,0,0,0,0,40.98,1368.43,2600054
-0.0593872,0.0828857,1.0199,4.63867,0.183105,0.244141,-0.043,0.072,4.99,0.000976562,-0.156006,0,0,0,0,0,40.98,1368.45,2600069
0.0177002,0.0197754,0.966919,0.183105,1.46484,1.34277,0.027,0.003,4.97,0.00102234,-0.155716,0,0,0,0,0,40.98,1368.47,2600084
-0.0551147,0.0898438,1.08624,-1.89209,0.915527,-0.732422,-0.038,0.077,4.97,0.00117493,-0.154785,0,0,0,0,0,40.98,1368.49,2600114
0.0255737,0.0611572,0.993347,-3.11279,0.671387,0.244141,0.039,0.043,4.96,0.00125122,-0.154175,0,0,0,0,0,40.98,1368.51,2600129
-0.0166016,0.0861816,0.967651,-2.44141,0.0610352,-0.183105,0,0.072,4.96,0.00134277,-0.153458,0,0,0,0,0,40.98,1368.53,2600144
-0.0245972,0.0839844,1.02661,-2.19727,-1.15967,1.0376,-0.007,0.071,4.95,0.00134277,-0.152023,0,0,0,0,0,40.98,1368.55,2600174
-0.0103149,0.0731201,1.00781,-0.427246,-0.12207,0.427246,0.004,0.058,4.94,0.00134277,-0.151199,0,0,0,0,0,40.98,1368.57,2600189
0.0131226,0.0571899,0.990906,1.95312,-0.549316,-1.40381,0.026,0.04,4.95,0.00135803,-0.150314,0,0,0,0,0,40.98,1368.59,2600204
0.0112915,0.0238037,1.00079,1.34277,-1.0376,-0.0610352,0.021,0.005,4.97,0.00138855,-0.149399,0,0,0,0,0,40.98,1368.61,2600234
0.0178223,0.0949097,0.997986,0.854492,0.427246,0.366211,0.033,0.075,4.96,0.00144958,-0.149338,0,0,0,0,0,40.95,1368.63,2600249
-0.0286865,-0.0246582,1.00092,-0.976562,0.244141,0.427246,-0.023,-0.039,4.95,0.00149536,-0.149261,0,0,0,0,0,40.95,1368.65,2600264
-0.00610352,0.0100708,0.986023,-3.35693,0.305176,0.366211,0.002,-0.005,4.93,0.00158691,-0.1492,0,0,0,0,0,40.95,1368.67,2600294
-0.00933838,0.107849,1.01904,-2.0752,0.305176,0,0.008,0.091,4.92,0.00158691,-0.149124,0,0,0,0,0,40.95,1368.69,2600309
