raw_accel_x,raw_accel_y,raw_accel_z,raw_gyro_x,raw_gyro_y,raw_gyro_z,world_accel_x,world_accel_y,yaw,x,y,z,left_encoder_rate,right_encoder_rate,left_motor,right_motor,temp,fpga time,navx time
-0.0100708,0.0175171,1.01508,0.366211,-0.0610352,0.183105,-0.001,0.004,-43.44,0.00387573,-0.0951843,0,0,0,0,0,41.61,201.307,3191868
-0.0111084,0.0161133,1.01093,0.427246,-0.0610352,0,-0.001,0.002,-43.44,0.00387573,-0.0951843,0,0,0,0,0,41.61,201.319,3191883
-0.00921631,0.0202026,1.01306,0.12207,0.12207,-0.0610352,0.002,0.006,0,0,0,0,0,0,0,0,41.61,201.339,3191913
-0.0126953,0.020874,1.01129,0.0610352,-0.0610352,0,0,0.006,0,0,0,0,0,0,0,0,41.61,201.359,3191928
-0.00921631,0.0203247,1.00806,-0.183105,-0.12207,0.0610352,0.002,0.006,0,0,0,0,0,0,0,0,41.61,201.378,3191943
-0.0140381,0.0135498,1.01202,-0.305176,-0.183105,0,-0.002,0,0,0,0,0,0,0,0,0,41.61,201.401,3191973
-0.013855,0.0140381,1.01312,-0.366211,-0.12207,0,-0.001,0,0,0,0,0,0,0,0,0,41.61,201.418,3191988
-0.010498,0.0153809,1.00824,-0.305176,-0.12207,0,0.001,0.001,0.01,0,0,0,0,0,0,0,41.61,201.438,3192003
-0.0130615,0.00866699,1.01599,-0.12207,-0.12207,-0.183105,-0.001,-0.005,0.01,0,0,0,0,0,0,0,41.61,201.46,3192033
-0.0114136,0.0088501,1.01642,0.0610352,0,0,0,-0.004,0.01,0,0,0,0,0,0,0,41.61,201.478,3192048
-0.0101318,0.0108032,1.01508,0.0610352,-0.0610352,0,0.001,-0.002,0.01,0,0,0,0,0,0,0,41.61,201.499,3192063
-0.00994873,0.00811768,1.01404,0.183105,-0.0610352,0,0.001,-0.005,0.01,0,0,0,0,0,0,0,41.61,201.519,3192093
-0.0115356,0.0159912,1.01465,0.305176,0,0,0,0.002,0.01,0,0,0,0,0,0,0,41.61,201.538,3192108
-0.0112305,0.0161133,1.01239,0.244141,0,-0.0610352,0,0.002,0.01,0,0,0,0,0,0,0,41.61,201.558,3192123
-0.0101318,0.0194702,1.00848,0.0610352,0,0,0.001,0.005,0.01,0,0,0,0,0,0,0,41.61,201.578,3192153
-0.0132446,0.0170288,1.01245,-0.0610352,-0.0610352,-0.0610352,-0.001,0.002,0.01,0,0,0,0,0,0,0,41.61,201.598,3192168
-0.013916,0.0175781,1.01184,-0.183105,-0.12207,0,-0.002,0.003,0.01,0,0,0,0,0,0,0,41.61,201.618,3192183
-0.0112915,0.0164795,1.0155,-0.305176,-0.12207,0,0,0.002,0.01,0,0,0,0,0,0,0,41.62,201.638,3192198
-0.0107422,0.0129395,1.01239,-0.12207,0.0610352,-0.0610352,0.001,-0.001,0.01,0,0,0,0,0,0,0,41.62,201.658,3192228
-0.0102539,0.0125122,1.01245,-0.12207,-0.0610352,-0.12207,0.001,-0.001,0.01,0,0,0,0,0,0,0,41.62,201.682,3192243
-0.0118408,0.0109253,1.01276,-0.0610352,-0.12207,-0.0610352,0,-0.002,0.01,0,0,0,0,0,0,0,41.62,201.699,3192273
-0.00927734,0.0100098,1.00989,0,-0.12207,0.0610352,0.002,-0.003,0.01,0,0,0,0,0,0,0,41.62,201.719,3192288
-0.012085,0.0119019,1.01251,0.12207,-0.0610352,0,0,-0.001,0.01,0,0,0,0,0,0,0,41.62,201.742,3192304
-0.0136108,0.0116577,1.0097,0.244141,0.0610352,0.0610352,-0.001,-0.002,0.01,0,0,0,0,0,0,0,41.62,201.758,3192333
-0.010376,0.0140991,1.01556,0.244141,0,-0.12207,0.001,0,0.01,0,0,0,0,0,0,0,41.62,201.782,3192348
-0.00762939,0.0162354,1.01062,0.244141,0.12207,0.0610352,0.004,0.002,0.01,0,0,0,0,0,0,0,41.62,201.799,3192364
-0.00958252,0.0195923,1.01056,-0.0610352,-0.0610352,0,0.002,0.005,0.01,0,0,0,0,0,0,0,41.62,201.818,3192393
-0.0114746,0.0197144,1.00922,-0.0610352,-0.12207,0,0,0.005,0.01,0,0,0,0,0,0,0,41.62,201.839,3192408
-0.0134277,0.0158081,1.0144,-0.183105,-0.12207,0,-0.001,0.001,0.01,0,0,0,0,0,0,0,41.62,201.861,3192438
-0.0110474,0.0140991,1.01721,-0.12207,0.12207,-0.0610352,0,0,0.01,0,0,0,0,0,0,0,41.62,201.879,3192453
-0.00994873,0.0182495,1.01239,-0.244141,-0.12207,0,0.001,0.004,0.01,0,0,0,0,0,0,0,41.62,201.899,3192468
-0.0115356,0.0126953,1.01239,-0.244141,-0.183105,0,0,-0.001,0.01,0,0,0,0,0,0,0,41.62,201.918,3192484
-0.0119019,0.0106812,1.01251,0,0,0.0610352,0,-0.003,0.01,0,0,0,0,0,0,0,41.62,201.939,3192498
-0.0122681,0.00823975,1.01282,0.0610352,-0.0610352,0,0,-0.005,0.01,0,0,0,0,0,0,0,41.62,201.959,3192528
-0.0090332,0.0128784,1.00763,0.0610352,0,-0.12207,0.002,0,0.01,0,0,0,0,0,0,0,41.62,201.978,3192544
-0.0134277,0.0131226,1.01367,0.0610352,-0.0610352,0,-0.001,0,0.01,0,0,0,0,0,0,0,41.62,201.998,3192573
-0.0100708,0.0187378,1.01245,0.244141,0.0610352,-0.12207,0.001,0.004,0.01,0,0,0,0,0,0,0,41.62,202.018,3192588
-0.0111694,0.0158081,1.01349,0.244141,-0.183105,0.0610352,0,0.001,0.01,0,0,0,0,0,0,0,41.62,202.038,3192604
-0.0098877,0.0147095,1.00861,0.0610352,0.0610352,0,0.001,0,0.01,0,0,0,0,0,0,0,41.62,202.058,3192618
-0.0140991,0.0161743,1.00922,0,0.0610352,0.0610352,-0.002,0.002,0.01,0,0,0,0,0,0,0,41.62,202.078,3192648
-0.0103149,0.015564,1.01135,-0.244141,-0.12207,0.12207,0.001,0.001,0.01,0,0,0,0,0,0,0,41.62,202.098,3192664
-0.0115356,0.0147705,1.0141,-0.305176,-0.183105,0,0,0,0.01,0,0,0,0,0,0,0,41.62,202.118,3192693
-0.0113525,0.0131836,1.01752,-0.244141,-0.12207,0,0,0,0.01,0,0,0,0,0,0,0,41.62,202.138,3192708
-0.0105591,0.0135498,1.01215,-0.12207,-0.183105,-0.12207,0.001,0,0.01,0,0,0,0,0,0,0,41.62,202.159,3192724
-0.0122681,0.0101929,1.01691,0,0,-0.0610352,0,-0.003,0.01,0,0,0,0,0,0,0,41.62,202.178,3192753
-0.0143433,0.0130615,1.00739,0,-0.0610352,0.0610352,-0.002,0,0.01,0,0,0,0,0,0,0,41.62,202.198,3192768
-0.00878906,0.0148315,1.01312,-0.0610352,-0.0610352,-0.0610352,0.003,0,0.01,0,0,0,0,0,0,0,41.62,202.219,3192784
-0.0142822,0.0135498,1.01825,0.244141,0.0610352,0,-0.002,0,0.01,0,0,0,0,0,0,0,41.62,202.238,3192814
-0.012085,0.0120239,1.00989,0.12207,-0.0610352,0.0610352,0,-0.001,0.01,0,0,0,0,0,0,0,41.62,202.258,3192829
-0.0125122,0.0166626,1.00677,0.0610352,0,-0.12207,0,0.002,0.01,0,0,0,0,0,0,0,41.62,202.278,3192844
-0.0153809,0.0145264,1.01727,0.12207,0,0.0610352,-0.003,0,0.01,0,0,0,0,0,0,0,41.62,202.298,3192874
-0.012146,0.0189209,1.00854,-0.0610352,-0.12207,-0.0610352,0,0.004,0.01,0,0,0,0,0,0,0,41.62,202.318,3192889
-0.0110474,0.0143433,1.01697,-0.0610352,-0.0610352,-0.0610352,0,0,0.01,0,0,0,0,0,0,0,41.62,202.338,3192904
-0.0116577,0.0132446,1.01709,-0.12207,-0.12207,-0.0610352,0,0,0.01,0,0,0,0,0,0,0,41.62,202.358,3192919
-0.0146484,0.0145264,1.01538,-0.183105,-0.0610352,0,-0.002,0,0.01,0,0,0,0,0,0,0,41.62,202.38,3192949
-0.0122681,0.0124512,1.01288,-0.183105,-0.183105,0,0,-0.001,0.01,0,0,0,0,0,0,0,41.62,202.398,3192964
-0.0098877,0.00970459,1.0127,0,0.12207,-0.12207,0.001,-0.004,0.01,0,0,0,0,0,0,0,41.62,202.418,3192994
-0.0106201,0.0122681,1.01288,0.0610352,0,-0.0610352,0.001,-0.001,0.01,0,0,0,0,0,0,0,41.62,202.439,3193009
-0.0116577,0.0147095,1.00922,0.0610352,-0.12207,0,0,0,0.01,0,0,0,0,0,0,0,41.62,202.458,3193024
-0.0114136,0.0143433,1.01489,0.0610352,0,0,0,0,0.01,0,0,0,0,0,0,0,41.62,202.478,3193039
-0.0128784,0.0144653,1.01062,0.12207,0,0,-0.001,0,0.01,0,0,0,0,0,0,0,41.62,202.499,3193069
-0.00921631,0.0151978,1.01447,0.12207,-0.0610352,-0.0610352,0.002,0.001,0.01,0,0,0,0,0,0,0,41.62,202.521,3193084
-0.010437,0.0166016,1.01562,0.12207,0,0.0610352,0.001,0.002,0.01,0,0,0,0,0,0,0,41.62,202.539,3193114
-0.0100098,0.0181274,1.01062,-0.0610352,-0.0610352,0.0610352,0.001,0.004,0.01,0,0,0,0,0,0,0,41.62,202.558,3193129
-0.0130005,0.0162964,1.00928,-0.12207,-0.12207,0,-0.001,0.002,0.01,0,0,0,0,0,0,0,41.62,202.578,3193144
-0.0120239,0.0119629,1.01135,0.0610352,0,-0.0610352,0,-0.002,0.01,0,0,0,0,0,0,0,41.62,202.599,3193174
-0.0119019,0.0139771,1.01135,-0.183105,-0.183105,0,0,0,0.01,0,0,0,0,0,0,0,41.62,202.618,3193189
-0.0105591,0.0142212,1.00995,-0.12207,0,-0.183105,0.001,0,0.01,0,0,0,0,0,0,0,41.62,202.638,3193204
-0.0117188,0.0145264,1.013,-0.12207,-0.12207,0,0,0,0.01,0,0,0,0,0,0,0,41.64,202.658,3193234
-0.012085,0.0131836,1.00922,-0.0610352,-0.12207,-0.0610352,0,0,0.01,0,0,0,0,0,0,0,41.64,202.68,3193249
-0.0122681,0.0145264,1.01294,0,0.0610352,-0.0610352,0,0,0.01,0,0,0,0,0,0,0,41.64,202.719,3193294
-0.0123291,0.0140381,1.01031,0.0610352,-0.0610352,0,0,0,0.01,0,0,0,0,0,0,0,41.64,202.739,3193309
-0.00994873,0.0144653,1.01166,0.244141,0,0,0.001,0,0.01,0,0,0,0,0,0,0,41.64,202.762,3193324
-0.0106812,0.0164185,1.01904,0,-0.0610352,-0.12207,0.001,0.002,0.01,0,0,0,0,0,0,0,41.64,202.785,3193354
-0.0109863,0.0131836,1.01001,0,0,0,0,0,0.01,0,0,0,0,0,0,0,41.64,202.798,3193369
-0.012085,0.0164185,1.01318,-0.0610352,-0.12207,0,0,0.002,0.01,0,0,0,0,0,0,0,41.64,202.819,3193384
-0.0111084,0.0116577,1.01392,-0.12207,-0.12207,-0.0610352,0,-0.002,0.01,0,0,0,0,0,0,0,41.64,202.839,3193399
-0.010437,0.0128784,1.01501,0,0.0610352,0,0.001,-0.001,0.01,0,0,0,0,0,0,0,41.64,202.858,3193429
-0.0116577,0.0130615,1.01141,-0.0610352,-0.244141,0,0,0,0.01,0,0,0,0,0,0,0,41.64,202.878,3193444
-0.0131836,0.00927734,1.01691,0,0,0,-0.001,-0.004,0.01,0,0,0,0,0,0,0,41.64,202.91,3193474
-0.0128784,0.0123901,1.01459,-0.0610352,-0.0610352,0,-0.001,-0.001,0.01,0,0,0,0,0,0,0,41.64,202.919,3193489
-0.00964355,0.012146,1.01257,-0.12207,-0.183105,0,0.002,-0.001,0.01,0,0,0,0,0,0,0,41.64,202.948,3193519
-0.00933838,0.0127563,1.01697,0.12207,0.0610352,-0.0610352,0.002,-0.001,0.01,0,0,0,0,0,0,0,41.64,202.958,3193534
-0.0110474,0.0111694,1.01282,0.0610352,0,0,0,-0.002,0.01,0,0,0,0,0,0,0,41.64,202.981,3193549
-0.012085,0.0117798,1.00848,0,0,0.0610352,0,-0.002,0.01,0,0,0,0,0,0,0,41.64,203,3193564
-0.0152588,0.0133057,1.01843,0,0,-0.0610352,-0.003,0,0.01,0,0,0,0,0,0,0,41.64,203.019,3193594
-0.0122681,0.0158081,1.01117,0,-0.183105,0.0610352,0,0.001,0.01,0,0,0,0,0,0,0,41.64,203.039,3193609
-0.0113525,0.0134888,1.0166,0.0610352,0,0,0,0,0.01,0,0,0,0,0,0,0,41.64,203.059,3193625
-0.0120239,0.0140381,1.01147,-0.183105,-0.183105,0.0610352,0,0,0.01,0,0,0,0,0,0,0,41.64,203.079,3193654
-0.012207,0.0109863,1.01123,0,0,-0.0610352,0,-0.002,0.01,0,0,0,0,0,0,0,41.64,203.105,3193669
-0.0112305,0.0132446,1.013,-0.0610352,-0.12207,-0.0610352,0,0,0.01,0,0,0,0,0,0,0,41.64,203.126,3193699
-0.00866699,0.0167847,1.01404,0.12207,0,-0.12207,0.003,0.002,0.01,0,0,0,0,0,0,0,41.64,203.142,3193714
-0.0123291,0.0136719,1.01593,0.0610352,-0.0610352,-0.0610352,0,0,0.01,0,0,0,0,0,0,0,41.63,203.159,3193729
-0.0103149,0.00976562,1.01624,-0.0610352,-0.0610352,0.0610352,0.001,-0.004,0.01,0,0,0,0,0,0,0,41.63,203.18,3193745
-0.0106812,0.0146484,1.01117,0.183105,-0.0610352,0.0610352,0.001,0,0.01,0,0,0,0,0,0,0,41.63,203.2,3193774
-0.00982666,0.0143433,1.01263,0.0610352,0.0610352,-0.12207,0.001,0,0.01,0,0,0,0,0,0,0,41.63,203.226,3193789
-0.0135498,0.0145874,1.01495,0.0610352,0,-0.0610352,-0.001,0,0.01,0,0,0,0,0,0,0,41.63,203.239,3193805
-0.0130615,0.013916,1.01648,-0.0610352,-0.0610352,-0.12207,-0.001,0,0.01,0,0,0,0,0,0,0,41.63,203.266,3193834
-0.0107422,0.0194702,1.01361,0,0,-0.0610352,0.001,0.005,0.01,0,0,0,0,0,0,0,41.63,203.303,3193879
-0.0129395,-0.0499878,0.987427,-1.09863,-0.12207,-0.488281,-0.001,-0.063,0.01,0,-3.05176e-05,0,0,0,0,0,41.63,203.318,3193894
-0.0141602,0.0551758,1.02448,-12.7563,0,-0.854492,-0.001,0.049,0.04,-6.10352e-05,-0.000762939,0,0,0,0,0,41.63,203.36,3193925
-0.00360107,0.109802,0.987793,-8.60596,-0.244141,-1.58691,0.008,0.109,0.07,-9.15527e-05,-0.00152588,0,0,0,0,0,41.63,203.386,3193954
-0.00756836,-0.0245972,1.047,-8.72803,0.366211,-0.488281,0.005,-0.023,0.07,-9.15527e-05,-0.00183105,0,0,0,0,0,41.63,203.398,3193969
-0.000732422,-0.0974121,0.968201,-8.8501,-0.488281,-1.95312,0.01,-0.094,0.09,-9.15527e-05,-0.00219727,0,0,0,0,0,41.63,203.423,3193985
0.0474243,0.183594,1.00433,-8.72803,-2.19727,-1.52588,0.06,0.191,0.12,-4.57764e-05,-0.0025177,0,0,0,0,0,41.63,203.438,3193999
-0.0090332,-0.200134,1.01019,0.732422,1.15967,-0.610352,0.003,-0.192,0.11,9.15527e-05,-0.00297546,0,0,0,0,0,41.63,203.458,3194029
-0.0198364,-0.0540771,1.0022,0.427246,-0.0610352,-1.83105,-0.007,-0.04,0.15,9.15527e-05,-0.00514221,0,0,0,0,0,41.63,203.514,3194074
0.0123901,-0.0512695,0.988892,5.24902,-0.915527,-0.610352,0.024,-0.039,0.19,1.52588e-05,-0.00712585,0,0,0,0,0,41.63,203.539,3194105
-0.00488281,-0.0678711,0.985107,4.76074,-0.183105,-0.976562,0.006,-0.056,0.2,0,-0.008255,0,0,0,0,0,41.63,203.558,3194120
0.0299072,-0.0841675,0.943604,-2.19727,-0.244141,-1.34277,0.04,-0.073,0.23,1.52588e-05,-0.012207,0,0,0,0,0,41.63,203.595,3194165
0.0299072,-0.0841675,0.943604,-2.19727,-0.244141,-1.34277,0.04,-0.073,0.23,1.52588e-05,-0.012207,0,0,0,0,0,41.63,203.602,3194165
-0.0841675,0.0494995,1.0578,1.58691,1.15967,-1.09863,-0.07,0.063,0.27,6.10352e-05,-0.0149841,0,0,0,0,0,41.63,203.618,3194195
0.0393066,0.0255127,1.08221,0.0610352,0.793457,-0.549316,0.052,0.037,0.27,4.57764e-05,-0.0162659,0,0,0,0,0,41.63,203.638,3194210
0.00653076,-0.102478,0.930908,2.74658,0.305176,-2.31934,0.017,-0.092,0.3,7.62939e-05,-0.0175781,0,0,0,0,0,41.63,203.658,3194225
0.0253906,0.0305786,1.02142,0,-0.0610352,-2.38037,0.038,0.041,0.36,0.000137329,-0.0203705,0,0,0,0,0,41.63,203.681,3194255
-0.0352173,-0.0250854,1.02802,1.0376,0.488281,-2.56348,-0.022,-0.013,0.39,0.000183105,-0.0217438,0,0,0,0,0,41.63,203.698,3194270
0.00689697,-0.00598145,1.01013,0.976562,-0.12207,-1.2207,0.019,0.004,0.42,0.000228882,-0.0231171,0,0,0,0,0,41.63,203.718,3194285
-0.0108643,-0.0078125,0.982422,0.671387,-0.488281,-1.46484,0.001,0.002,0.44,0.000289917,-0.0231171,0,0,0,0,0,41.63,203.739,3194300
-0.0194702,-0.00274658,1.0238,0,-0.12207,-0.0610352,-0.006,0.007,0.46,0.000289917,-0.0231171,0,0,0,0,0,41.63,203.758,3194330
-0.0153809,0.0255737,1.02271,0.244141,-0.427246,-0.366211,-0.002,0.035,0.46,0.000289917,-0.0230865,0,0,0,0,0,41.63,203.78,3194345
0.0111084,0.0386963,0.967651,0.793457,-0.915527,0.12207,0.023,0.047,0.46,0.000305176,-0.0229187,0,0,0,0,0,41.63,203.799,3194375
-0.0100708,-0.0256958,0.963806,1.0376,0.244141,-2.13623,0,-0.018,0.52,0.00038147,-0.0222473,0,0,0,0,0,41.63,203.866,3194435
-0.0247803,-0.0150146,1.05945,0.366211,0.610352,-0.915527,-0.012,-0.006,0.53,0.00038147,-0.0222473,0,0,0,0,0,41.63,203.878,3194450
0.00793457,0.0176392,1.05847,-0.0610352,0.549316,-2.44141,0.02,0.025,0.56,0.00038147,-0.0222321,0,0,0,0,0,41.63,203.899,3194465
-0.0249023,0.00415039,0.94812,0.366211,0.12207,-2.86865,-0.013,0.011,0.61,0.000396729,-0.0221863,0,0,0,0,0,41.63,203.918,3194480
-0.0512695,-0.00817871,1.09058,0.549316,1.0376,-2.56348,-0.037,0,0.67,0.00038147,-0.0221558,0,0,0,0,0,41.63,203.944,3194510
-0.0512695,-0.00817871,1.09058,0.549316,1.0376,-2.56348,-0.037,0,0.67,0.00038147,-0.0221558,0,0,0,0,0,41.63,203.96,3194510
-0.0512695,-0.00817871,1.09058,0.549316,1.0376,-2.56348,-0.037,0,0.67,0.00038147,-0.0221558,0,0,0,0,0,41.63,203.993,3194510
-0.0512695,-0.00817871,1.09058,0.549316,1.0376,-2.56348,-0.037,0,0.67,0.00038147,-0.0221558,0,0,0,0,0,41.63,204.012,3194510
-0.0512695,-0.00817871,1.09058,0.549316,1.0376,-2.56348,-0.037,0,0.67,0.00038147,-0.0221558,0,0,0,0,0,41.63,204.021,3194510
-0.0512695,-0.00817871,1.09058,0.549316,1.0376,-2.56348,-0.037,0,0.67,0.00038147,-0.0221558,0,0,0,0,0,41.63,204.072,3194510
-0.0512695,-0.00817871,1.09058,0.549316,1.0376,-2.56348,-0.037,0,0.67,0.00038147,-0.0221558,0,0,0,0,0,41.63,204.081,3194510
-0.0512695,-0.00817871,1.09058,0.549316,1.0376,-2.56348,-0.037,0,0.67,0.00038147,-0.0221558,0,0,0,0,0,41.63,204.099,3194510
-0.0512695,-0.00817871,1.09058,0.549316,1.0376,-2.56348,-0.037,0,0.67,0.00038147,-0.0221558,0,0,0,0,0,41.63,204.139,3194510
-0.0512695,-0.00817871,1.09058,0.549316,1.0376,-2.56348,-0.037,0,0.67,0.00038147,-0.0221558,0,0,0,0,0,41.63,204.158,3194510
-0.0512695,-0.00817871,1.09058,0.549316,1.0376,-2.56348,-0.037,0,0.67,0.00038147,-0.0221558,0,0,0,0,0,41.63,204.178,3194510
-0.0512695,-0.00817871,1.09058,0.549316,1.0376,-2.56348,-0.037,0,0.67,0.00038147,-0.0221558,0,0,0,0,0,41.63,204.217,3194510
-0.0512695,-0.00817871,1.09058,0.549316,1.0376,-2.56348,-0.037,0,0.67,0.00038147,-0.0221558,0,0,0,0,0,41.63,204.242,3194510
-0.0512695,-0.00817871,1.09058,0.549316,1.0376,-2.56348,-0.037,0,0.67,0.00038147,-0.0221558,0,0,0,0,0,41.63,204.258,3194510
-0.0512695,-0.00817871,1.09058,0.549316,1.0376,-2.56348,-0.037,0,0.67,0.00038147,-0.0221558,0,0,0,0,0,41.63,204.295,3194510
-0.0512695,-0.00817871,1.09058,0.549316,1.0376,-2.56348,-0.037,0,0.67,0.00038147,-0.0221558,0,0,0,0,0,41.63,204.302,3194510
-0.0512695,-0.00817871,1.09058,0.549316,1.0376,-2.56348,-0.037,0,0.67,0.00038147,-0.0221558,0,0,0,0,0,41.63,204.322,3194510
-0.0512695,-0.00817871,1.09058,0.549316,1.0376,-2.56348,-0.037,0,0.67,0.00038147,-0.0221558,0,0,0,0,0,41.63,204.338,3194510
-0.0512695,-0.00817871,1.09058,0.549316,1.0376,-2.56348,-0.037,0,0.67,0.00038147,-0.0221558,0,0,0,0,0,41.63,204.359,3194510
-0.0512695,-0.00817871,1.09058,0.549316,1.0376,-2.56348,-0.037,0,0.67,0.00038147,-0.0221558,0,0,0,0,0,41.63,204.47,3194510
-0.0512695,-0.00817871,1.09058,0.549316,1.0376,-2.56348,-0.037,0,0.67,0.00038147,-0.0221558,0,0,0,0,0,41.63,204.48,3194510
-0.0512695,-0.00817871,1.09058,0.549316,1.0376,-2.56348,-0.037,0,0.67,0.00038147,-0.0221558,0,0,0,0,0,41.63,204.499,3194510
-0.0512695,-0.00817871,1.09058,0.549316,1.0376,-2.56348,-0.037,0,0.67,0.00038147,-0.0221558,0,0,0,0,0,41.63,204.519,3194510
-0.0512695,-0.00817871,1.09058,0.549316,1.0376,-2.56348,-0.037,0,0.67,0.00038147,-0.0221558,0,0,0,0,0,41.63,204.538,3194510
-0.0512695,-0.00817871,1.09058,0.549316,1.0376,-2.56348,-0.037,0,0.67,0.00038147,-0.0221558,0,0,0,0,0,41.63,204.569,3194510
-0.0512695,-0.00817871,1.09058,0.549316,1.0376,-2.56348,-0.037,0,0.67,0.00038147,-0.0221558,0,0,0,0,0,41.63,204.579,3194510
-0.0512695,-0.00817871,1.09058,0.549316,1.0376,-2.56348,-0.037,0,0.67,0.00038147,-0.0221558,0,0,0,0,0,41.63,204.604,3194510
-0.0512695,-0.00817871,1.09058,0.549316,1.0376,-2.56348,-0.037,0,0.67,0.00038147,-0.0221558,0,0,0,0,0,41.63,204.618,3194510
-0.0512695,-0.00817871,1.09058,0.549316,1.0376,-2.56348,-0.037,0,0.67,0.00038147,-0.0221558,0,0,0,0,0,41.63,204.641,3194510
-0.0512695,-0.00817871,1.09058,0.549316,1.0376,-2.56348,-0.037,0,0.67,0.00038147,-0.0221558,0,0,0,0,0,41.63,204.658,3194510
-0.0512695,-0.00817871,1.09058,0.549316,1.0376,-2.56348,-0.037,0,0.67,0.00038147,-0.0221558,0,0,0,0,0,41.63,204.684,3194510
-0.0512695,-0.00817871,1.09058,0.549316,1.0376,-2.56348,-0.037,0,0.67,0.00038147,-0.0221558,0,0,0,0,0,41.63,204.698,3194510
-0.0512695,-0.00817871,1.09058,0.549316,1.0376,-2.56348,-0.037,0,0.67,0.00038147,-0.0221558,0,0,0,0,0,41.63,204.718,3194510
-0.0512695,-0.00817871,1.09058,0.549316,1.0376,-2.56348,-0.037,0,0.67,0.00038147,-0.0221558,0,0,0,0,0,41.63,204.752,3194510
-0.0512695,-0.00817871,1.09058,0.549316,1.0376,-2.56348,-0.037,0,0.67,0.00038147,-0.0221558,0,0,0,0,0,41.63,204.759,3194510
-0.0512695,-0.00817871,1.09058,0.549316,1.0376,-2.56348,-0.037,0,0.67,0.00038147,-0.0221558,0,0,0,0,0,41.63,204.779,3194510
-0.0512695,-0.00817871,1.09058,0.549316,1.0376,-2.56348,-0.037,0,0.67,0.00038147,-0.0221558,0,0,0,0,0,41.63,204.798,3194510
-0.0512695,-0.00817871,1.09058,0.549316,1.0376,-2.56348,-0.037,0,0.67,0.00038147,-0.0221558,0,0,0,0,0,41.63,204.817,3194510
-0.0512695,-0.00817871,1.09058,0.549316,1.0376,-2.56348,-0.037,0,0.67,0.00038147,-0.0221558,0,0,0,0,0,41.63,204.838,3194510
-0.0512695,-0.00817871,1.09058,0.549316,1.0376,-2.56348,-0.037,0,0.67,0.00038147,-0.0221558,0,0,0,0,0,41.63,204.858,3194510
-0.0512695,-0.00817871,1.09058,0.549316,1.0376,-2.56348,-0.037,0,0.67,0.00038147,-0.0221558,0,0,0,0,0,41.63,204.877,3194510
-0.0512695,-0.00817871,1.09058,0.549316,1.0376,-2.56348,-0.037,0,0.67,0.00038147,-0.0221558,0,0,0,0,0,41.63,204.898,3194510
-0.0512695,-0.00817871,1.09058,0.549316,1.0376,-2.56348,-0.037,0,0.67,0.00038147,-0.0221558,0,0,0,0,0,41.63,204.935,3194510
-0.0512695,-0.00817871,1.09058,0.549316,1.0376,-2.56348,-0.037,0,0.67,0.00038147,-0.0221558,0,0,0,0,0,41.63,204.942,3194510
-0.0512695,-0.00817871,1.09058,0.549316,1.0376,-2.56348,-0.037,0,0.67,0.00038147,-0.0221558,0,0,0,0,0,41.63,204.957,3194510
-0.0661011,-0.0265503,0.981262,-0.427246,1.15967,-38.3911,-0.058,-0.033,4.15,0,-0.0126801,0,0,0,0,0,41.61,204.985,3195561
-0.0366211,-0.0559082,1.02106,0.244141,0.305176,-52.0019,-0.032,-0.065,7.58,0.000152588,-0.00895691,0,0,0,0,0,41.61,205.072,3195636
-0.0856934,-0.0175781,1.03235,1.09863,-1.89209,-53.2837,-0.076,-0.02,8.37,1.52588e-05,-0.00820923,0,0,0,0,0,41.61,205.079,3195651
-0.00866699,0.0949707,0.946838,0.366211,-0.732422,-55.1147,0.017,0.081,9.2,-0.000167847,-0.00741577,0,0,0,0,0,41.61,205.098,3195666
-0.0169067,0.0326538,1.01111,-1.09863,-0.244141,-60.4858,0,0.02,10.07,-0.000335693,-0.00656128,0,0,0,0,0,41.61,205.118,3195681
-0.0107422,0.0686035,0.973633,0.183105,0.183105,-64.3311,0.014,0.054,11.98,-0.000640869,-0.00469971,0,0,0,0,0,41.61,205.138,3195711
0.019165,-0.0168457,1.04736,0.549316,0.915527,-67.5049,0.025,-0.037,13.99,-0.000808716,-0.00271606,0,0,0,0,0,41.61,205.166,3195741
0.019165,-0.0168457,1.04736,0.549316,0.915527,-67.5049,0.025,-0.037,13.99,-0.000808716,-0.00271606,0,0,0,0,0,41.61,205.178,3195741
0.0202637,0.0220947,1.01245,-0.183105,2.01416,-66.1011,0.036,0,15.99,-0.00100708,-0.000839233,0,0,0,0,0,41.62,205.198,3195771
-0.114807,-0.015625,0.973511,0.549316,-0.732422,-65.979,-0.103,0.004,16.97,-0.00115967,-0.000839233,0,0,0,0,0,41.62,205.218,3195786
-0.000915527,0.0222168,1.04382,-1.40381,0.366211,-64.5142,0.018,0.005,17.96,-0.00137329,-0.000839233,0,0,0,0,0,41.62,205.241,3195801
-0.0327148,0.0197144,1.02887,-0.366211,0.976562,-62.561,-0.01,0.013,19.85,-0.00186157,-0.000839233,0,0,0,0,0,41.62,205.258,3195831
-0.111267,-0.0213013,1.03369,-0.183105,0.12207,-62.9272,-0.097,0.003,20.79,-0.00219727,-0.000839233,0,0,0,0,0,41.62,205.278,3195846
0.0206909,-0.0115967,1.00531,-0.488281,0.366211,-61.6455,0.028,-0.033,21.72,-0.00257874,-0.000869751,0,0,0,0,0,41.62,205.299,3195861
-0.0181274,0.00665283,1.01373,0.488281,0.12207,-62.3169,0,-0.002,23.6,-0.00335693,-0.000900269,0,0,0,0,0,41.62,205.318,3195891
0.00775146,0.0267334,1.02905,1.2207,0.488281,-63.3545,0.031,0.005,24.54,-0.0037384,-0.000900269,0,0,0,0,0,41.62,205.339,3195906
0.0111084,-0.026001,1.00244,0.610352,0.366211,-64.3921,0.011,-0.044,25.5,-0.0040741,-0.000915527,0,0,0,0,0,41.62,205.359,3195921
0.0145264,0.0241089,1.01892,0.976562,0.12207,-65.6738,0.037,-0.002,27.46,-0.00468445,-0.000961304,0,0,0,0,0,41.62,205.378,3195951
0.0168457,0.120728,1.0127,2.74658,2.86865,-65.1855,0.085,0.081,28.44,-0.00488281,-0.000915527,0,0,0,0,0,41.62,205.398,3195966
-0.000976562,0.0333252,1.05072,1.46484,1.34277,-63.7207,0.029,0.01,30.37,-0.00521851,-0.000762939,0,0,0,0,0,41.62,205.422,3195996
-0.0903931,-0.00378418,0.992188,0.854492,-0.244141,-64.0259,-0.066,0.025,31.32,-0.00541687,-0.000671387,0,0,0,0,0,41.62,205.442,3196011
0.0231934,0.00714111,0.977722,0.183105,-0.488281,-62.3779,0.036,-0.024,32.27,-0.00563049,-0.000579834,0,0,0,0,0,41.62,205.458,3196026
0.0194092,-0.0281982,1.01337,-1.0376,-0.793457,-61.6455,0.014,-0.052,34.14,-0.00617981,-0.000427246,0,0,0,0,0,41.62,205.48,3196056
-0.0731812,0.0177612,1.01361,-0.427246,-0.366211,-62.5,-0.035,0.038,35.07,-0.00648499,-0.00038147,0,0,0,0,0,41.62,205.498,3196071
-0.00878906,0.00311279,1.01074,0,0.610352,-62.3169,0.008,-0.01,36.01,-0.00682068,-0.000320435,0,0,0,0,0,41.62,205.519,3196086
-0.0300903,0.0328979,1.01581,0.732422,0.488281,-65.1855,0.011,0.025,38.9,-0.00712585,-0.000289917,0,0,0,0,0,41.62,205.56,3196131
0.0134277,-0.00531006,1.02161,0.305176,0.671387,-64.8804,0.02,-0.031,39.87,-0.0071106,-0.000274658,0,0,0,0,0,41.62,205.579,3196146
-0.0419922,0.0427246,1.02441,0.427246,1.09863,-64.27,0.01,0.04,40.84,-0.00706482,-0.000259399,0,0,0,0,0,41.62,205.599,3196161
-0.00402832,-0.0117188,1.02167,0.305176,1.58691,-64.0869,0.003,-0.025,46.65,-0.00680542,-1.52588e-05,0,0,0,0,0,41.62,205.675,3196251
-0.0457153,0.00836182,0.996216,1.15967,-0.12207,-64.9414,-0.01,0.019,47.62,-0.00680542,0,0,0,0,0,0,41.62,205.702,3196266
-0.0688477,-0.0394897,1.03906,0.366211,0.427246,-61.8896,-0.059,0.005,49.55,-0.0068512,4.57764e-05,0,0,0,0,0,41.59,205.728,3196296
-0.00982666,0.00317383,1.02136,0.549316,0.488281,-58.7769,0.011,-0.011,50.45,-0.00692749,4.57764e-05,0,0,0,0,0,41.59,205.742,3196311
-0.0518188,0.0230713,1.03552,0.183105,0.549316,-59.3262,0,0.033,51.33,-0.00698853,6.10352e-05,0,0,0,0,0,41.59,205.761,3196327
0.00427246,-0.00189209,1.00415,0.915527,1.0376,-51.1475,0.015,-0.025,54.58,-0.00700378,3.05176e-05,0,0,0,0,0,41.59,205.816,3196387
-0.0428467,0.0610962,0.993469,1.64795,-0.0610352,-48.645,0.04,0.048,55.33,-0.00694275,3.05176e-05,0,0,0,0,0,41.59,205.834,3196401
-0.0625,-0.0264282,1.04431,0.305176,1.09863,-47.5464,-0.041,0.014,56.75,-0.00682068,3.05176e-05,0,0,0,0,0,41.59,205.858,3196431
-0.0353394,0.0314331,1.00659,0,1.2207,-45.8374,0.022,0.023,58.14,-0.00668335,7.62939e-05,0,0,0,0,0,41.59,205.887,3196461
-0.0317383,-0.0283203,0.977173,0.305176,0.366211,-42.1753,-0.026,-0.01,58.79,-0.0065918,0.00012207,0,0,0,0,0,41.59,205.911,3196476
-0.0217285,-0.0341187,0.985291,0.0610352,0,-39.6729,-0.026,-0.021,59.39,-0.00653076,0.000152588,0,0,0,0,0,41.59,205.92,3196491
-0.0477295,-0.00537109,1.0343,0.0610352,-0.244141,-38.6353,-0.013,0.014,59.98,-0.00650024,0.000167847,0,0,0,0,0,41.59,205.939,3196507
0.000732422,0.046936,1.02289,0.793457,0.244141,-35.3394,0.055,-0.001,60.53,-0.00643921,0.000198364,0,0,0,0,0,41.59,205.958,3196521
-0.0352173,-0.0551147,0.974792,-0.427246,0.12207,-33.4473,-0.051,-0.017,61.57,-0.00631714,0.000213623,0,0,0,0,0,41.59,205.981,3196551
0.017395,0.020813,0.978516,-0.305176,0.366211,-31.3721,0.04,-0.028,62.05,-0.00627136,0.000167847,0,0,0,0,0,41.59,205.999,3196567
-0.039978,-0.0546875,1.06036,-0.671387,0,-31.0669,-0.052,-0.014,62.52,-0.00624084,9.15527e-05,0,0,0,0,0,41.59,206.018,3196581
0.0172729,-0.0697021,1.00806,0,0.854492,-31.311,-0.041,-0.07,63.43,-0.006073,0.000106812,0,0,0,0,0,41.59,206.039,3196611
-0.053833,-0.0155029,1.04755,-1.28174,0.0610352,-31.6772,-0.023,0.017,63.9,-0.0059967,7.62939e-05,0,0,0,0,0,41.59,206.059,3196627
-0.0525513,0.0290527,0.981201,-1.09863,0.549316,-29.8462,0.017,0.036,64.36,-0.00593567,0.000106812,0,0,0,0,0,41.59,206.078,3196641
-0.0128174,0.0220947,1.00507,-0.488281,-0.793457,-31.7383,0.029,-0.002,65.3,-0.00592041,0.000137329,0,0,0,0,0,41.59,206.098,3196671
0.00268555,0.0249634,1.00458,0,0,-31.9214,0.038,-0.015,65.78,-0.00585938,0.000137329,0,0,0,0,0,41.59,206.118,3196687
-0.038208,0.0227051,1.04059,0.183105,-0.488281,-34.4238,0.019,0.019,66.28,-0.00575256,0.000137329,0,0,0,0,0,41.59,206.138,3196701
0.00756836,-0.0172119,0.985107,0.488281,-0.0610352,-33.5693,0,-0.036,67.28,-0.00575256,0.000137329,0,0,0,0,0,41.59,206.158,3196731
-0.0360107,0.00994873,1.04694,0.488281,0.976562,-34.668,0.009,0.012,67.8,-0.00575256,0.000106812,0,0,0,0,0,41.59,206.179,3196747
0.00738525,-0.0122681,0.985718,0.183105,1.40381,-35.2783,0.004,-0.034,68.32,-0.00575256,6.10352e-05,0,0,0,0,0,41.59,206.199,3196761
-0.0324707,0.0166626,1.05353,0.0610352,1.0376,-36.0718,0.018,0.011,69.4,-0.00563049,-0.000106812,0,0,0,0,0,41.62,206.219,3196791
-0.0157471,0.0166016,1.01422,1.40381,1.15967,-34.4238,0.022,-0.004,69.92,-0.00553894,-0.000106812,0,0,0,0,0,41.62,206.24,3196807
-0.0513306,-0.0194702,1.06726,0.610352,0.915527,-35.5835,-0.022,0.015,70.45,-0.00543213,-0.000106812,0,0,0,0,0,41.62,206.259,3196821
-0.00146484,0.0248413,1.03754,0.732422,0.427246,-32.959,0.036,-0.016,71.45,-0.00523376,-4.57764e-05,0,0,0,0,0,41.62,206.289,3196852
-0.0335083,-0.0315552,1.02319,-0.366211,-0.12207,-33.3862,-0.027,-0.003,71.95,-0.00512695,-3.05176e-05,0,0,0,0,0,41.62,206.299,3196867
-0.00402832,0.0444946,0.960693,0.610352,0.0610352,-31.1279,0.053,-0.007,72.42,-0.00498962,-3.05176e-05,0,0,0,0,0,41.62,206.318,3196882
-0.060791,0.0239868,1.06934,0.915527,0.12207,-33.5083,0.017,0.038,73.41,-0.00463867,-1.52588e-05,0,0,0,0,0,41.62,206.339,3196912
0.00177002,-0.015686,0.982971,0.12207,-0.305176,-32.1655,-0.003,-0.03,73.9,-0.00463867,0,0,0,0,0,0,41.62,206.359,3196927
-0.0159302,-0.0280762,1.00964,-0.366211,-0.0610352,-33.8745,-0.019,-0.017,74.39,-0.00463867,0,0,0,0,0,0,41.62,206.379,3196942
0.0240479,-0.0328979,0.990906,-0.366211,-0.366211,-33.9966,-0.014,-0.056,75.42,-0.00463867,-1.52588e-05,0,0,0,0,0,41.62,206.398,3196972
0.0010376,0.015564,1.00726,-0.305176,-0.427246,-35.0952,0.026,-0.022,75.93,-0.00463867,-0.000106812,0,0,0,0,0,41.62,206.418,3196987
-0.041687,0.0358887,0.97699,0.488281,0.793457,-34.9731,0.035,0.024,76.46,-0.00457764,-0.000183105,0,0,0,0,0,41.62,206.438,3197002
-0.0300293,0.0022583,1.02612,0.183105,0.244141,-33.8745,0.006,0.004,77.5,-0.0045166,-0.000305176,0,0,0,0,0,41.62,206.458,3197032
-0.03125,-0.0137329,0.993469,-0.244141,-0.183105,-33.3862,-0.009,0.002,77.99,-0.0045166,-0.000305176,0,0,0,0,0,41.62,206.48,3197047
-0.0349731,0.0102539,1.03979,0.0610352,-0.12207,-32.5928,0.013,0.01,78.49,-0.0045166,-0.000305176,0,0,0,0,0,41.62,206.499,3197062
0.000366211,0.0430908,0.997498,-0.183105,-0.976562,-33.5693,0.052,-0.017,79.48,-0.00448608,-0.000305176,0,0,0,0,0,41.62,206.52,3197092
-0.024231,-0.0128174,1.02673,0.488281,-0.610352,-33.9355,-0.006,-0.003,79.99,-0.00442505,-0.000305176,0,0,0,0,0,41.62,206.539,3197107
-0.00524902,-0.00946045,0.994873,0.671387,0.0610352,-33.5693,0,-0.021,80.49,-0.00436401,-0.000320435,0,0,0,0,0,41.62,206.558,3197122
-0.0108643,-0.0275269,0.998474,-0.366211,0.793457,-34.0576,-0.018,-0.017,81.49,-0.00436401,-0.00038147,0,0,0,0,0,41.62,206.579,3197152
0.0212402,0.036377,1.01923,0.549316,0.244141,-33.1421,0.048,-0.04,82,-0.00434875,-0.000473022,0,0,0,0,0,41.62,206.598,3197167
-0.0351562,0.0393677,0.977966,0.610352,0.610352,-33.6914,0.043,0.015,83.02,-0.00427246,-0.000640869,0,0,0,0,0,41.62,206.623,3197197
-0.0273438,-0.0223389,1.00714,0,-0.0610352,-33.8135,-0.016,0,83.52,-0.00422668,-0.000640869,0,0,0,0,0,41.62,206.639,3197212
-0.0354004,0.0170898,1.02222,0.427246,0.12207,-33.4473,0.022,0.011,84.02,-0.00416565,-0.000640869,0,0,0,0,0,41.62,206.658,3197227
-0.0457764,-0.00891113,1.02087,-0.793457,-0.0610352,-34.4238,-0.003,0.019,85.04,-0.00404358,-0.000640869,0,0,0,0,0,41.62,206.688,3197257
0.000183105,0.0322266,1.00348,-0.671387,-0.488281,-33.3252,0.041,-0.022,85.55,-0.00396729,-0.000656128,0,0,0,0,0,41.62,206.698,3197272
-0.0297852,0.00665283,1.0509,0.549316,0.427246,-35.9497,0.013,0.004,86.61,-0.0037384,-0.000701904,0,0,0,0,0,41.59,206.738,3197302
-0.0169067,0.03302,1.02777,0.732422,0.366211,-35.8887,0.04,-0.006,87.67,-0.00370789,-0.000839233,0,0,0,0,0,41.59,206.758,3197332
-0.0168457,-0.00964355,0.982117,0.732422,0.610352,-33.8135,-0.002,-0.007,88.18,-0.00364685,-0.000930786,0,0,0,0,0,41.59,206.785,3197347
-0.00585938,-0.0314941,0.968811,1.0376,0.183105,-33.3252,-0.024,-0.018,88.69,-0.00361633,-0.000930786,0,0,0,0,0,41.59,206.8,3197362
-0.0211182,-0.0132446,0.994812,0.976562,0.0610352,-32.959,-0.006,-0.003,89.68,-0.00352478,-0.000930786,0,0,0,0,0,41.59,206.818,3197392
-0.0505981,-0.0202637,0.974915,1.34277,-0.0610352,-33.2031,-0.013,0.026,90.18,-0.00352478,-0.000915527,0,0,0,0,0,41.59,206.839,3197407
-0.00549316,0.00390625,1.02618,0.854492,0.183105,-32.1655,0.01,-0.02,91.16,-0.00352478,-0.000900269,0,0,0,0,0,41.59,206.863,3197437
-0.0585327,0.0143433,1.02673,1.0376,0.12207,-34.2407,0.021,0.032,91.66,-0.00349426,-0.00088501,0,0,0,0,0,41.59,206.879,3197452
-0.00610352,0.00268555,0.985779,0.610352,0.244141,-32.959,0.008,-0.018,92.17,-0.00344849,-0.000869751,0,0,0,0,0,41.59,206.898,3197467
0.00128174,-0.0144653,0.980835,1.09863,-0.610352,-33.5693,-0.009,-0.024,92.67,-0.00341797,-0.00088501,0,0,0,0,0,41.59,206.918,3197482
0.00927734,0.0335083,1.01813,0.793457,1.52588,-32.5317,0.037,-0.036,93.68,-0.00338745,-0.000900269,0,0,0,0,0,41.59,206.939,3197512
-0.0268555,0.00469971,1.06989,0.183105,0.732422,-32.959,0.011,0,94.18,-0.00332642,-0.000946045,0,0,0,0,0,41.59,206.958,3197527
0.0210571,0.0132446,0.986084,-0.610352,-0.183105,-30.7007,0.015,-0.046,95.12,-0.0032196,-0.000976562,0,0,0,0,0,41.59,206.982,3197557
-0.0229492,0.0251465,1.05127,-0.366211,-0.0610352,-32.7148,0.031,-0.005,95.6,-0.00314331,-0.0010376,0,0,0,0,0,41.59,206.998,3197572
-0.0476074,-0.00177002,1.01868,-0.427246,0.366211,-30.8228,0.007,0.021,96.07,-0.0030365,-0.00108337,0,0,0,0,0,41.59,207.019,3197587
-0.0186768,0.0372925,1.03827,-0.915527,-0.610352,-31.3721,0.044,-0.011,96.53,-0.00288391,-0.00112915,0,0,0,0,0,41.59,207.038,3197602
-0.010376,0.0588989,1.01843,-0.488281,0.488281,-30.7617,0.064,-0.022,97.47,-0.00250244,-0.00132751,0,0,0,0,0,41.59,207.065,3197632
-0.039917,-0.0319824,1.03973,-0.671387,-0.732422,-33.02,-0.021,0.018,97.95,-0.00227356,-0.00146484,0,0,0,0,0,41.59,207.079,3197647
0.00866699,0.0473633,0.988525,0.427246,0.549316,-32.8369,0.05,-0.04,98.45,-0.00201416,-0.00160217,0,0,0,0,0,41.59,207.099,3197662
-0.0134888,0.0308838,1.05396,0.183105,0.915527,-35.2783,0.036,-0.017,99.47,-0.00143433,-0.00202942,0,0,0,0,0,41.59,207.119,3197692
0.0205688,-0.0302124,1.01141,-0.793457,1.83105,-34.5459,-0.029,-0.04,99.99,-0.00112915,-0.00228882,0,0,0,0,0,41.59,207.14,3197708
-0.0488281,0.0234985,1.00873,-0.610352,1.28174,-35.2783,0.036,0.018,100.51,-0.000823975,-0.00257874,0,0,0,0,0,41.59,207.161,3197722
0.0222778,0.00274658,0.967957,0.305176,0.305176,-34.668,0.001,-0.046,101.55,-0.000137329,-0.00314331,0,0,0,0,0,41.59,207.178,3197752
-0.0621948,-0.0139771,1.04034,-0.0610352,-0.12207,-34.4849,0.002,0.037,102.08,-0.000137329,-0.00344849,0,0,0,0,0,41.59,207.2,3197768
-0.0249023,0.0562134,1.01007,-0.976562,0.854492,-33.02,0.064,-0.014,102.58,-9.15527e-05,-0.00372314,0,0,0,0,0,41.59,207.219,3197782
-0.0548706,-0.0178223,1.02032,-0.915527,0.366211,-32.2266,0,0.03,103.55,0.00012207,-0.00424194,0,0,0,0,0,41.61,207.239,3197812
0.0245361,0.0289307,0.988098,-0.732422,-0.732422,-31.25,0.026,-0.056,104.02,0.000259399,-0.00448608,0,0,0,0,0,41.61,207.259,3197828
-0.0239258,-0.0292969,1.04333,-1.2207,-1.09863,-32.7759,-0.018,0.003,104.5,0.000396729,-0.004776,0,0,0,0,0,41.61,207.28,3197842
-0.00372314,-0.0262451,0.993958,-0.854492,-0.183105,-32.5317,-0.019,-0.014,105.48,0.000549316,-0.00505066,0,0,0,0,0,41.61,207.298,3197872
-0.00231934,-0.00720215,1.03479,-0.976562,0.183105,-33.5693,-0.001,-0.022,105.98,0.000549316,-0.00508118,0,0,0,0,0,41.61,207.319,3197888
-0.0043335,0.000854492,1.01135,-1.46484,1.58691,-33.3862,0.007,-0.022,106.47,0.000549316,-0.00512695,0,0,0,0,0,41.61,207.339,3197902
-0.0216064,0.00671387,1.04834,-1.34277,0.366211,-35.1562,0.018,-0.008,106.99,0.000549316,-0.00520325,0,0,0,0,0,41.61,207.358,3197917
-0.022522,-0.0318604,0.97937,-1.09863,0.671387,-35.5835,-0.018,0.005,108.05,0.000610352,-0.00520325,0,0,0,0,0,41.61,207.378,3197948
-0.0287476,-0.0169067,1.02472,-1.34277,0.0610352,-35.0952,-0.001,0.005,108.58,0.000640869,-0.00520325,0,0,0,0,0,41.61,207.399,3197962
-0.0459595,0.00231934,0.990295,-1.46484,-0.427246,-34.8511,0.023,0.015,109.62,0.000747681,-0.00520325,0,0,0,0,0,41.61,207.419,3197992
-0.0172729,-0.0163574,1.03259,-2.01416,0.183105,-33.2031,-0.002,-0.006,110.13,0.000839233,-0.00520325,0,0,0,0,0,41.61,207.439,3198008
-0.00695801,0.0126343,0.988953,-2.01416,-0.549316,-34.1797,0.02,-0.025,110.63,0.000946045,-0.00523376,0,0,0,0,0,41.61,207.457,3198022
-0.00372314,0.00714111,1.01593,-0.854492,0.488281,-33.3252,0.015,-0.026,111.65,0.00119019,-0.00532532,0,0,0,0,0,41.61,207.479,3198052
0.012085,-0.020752,0.993591,-0.854492,0.183105,-34.5459,-0.016,-0.03,112.16,0.00119019,-0.00543213,0,0,0,0,0,41.61,207.502,3198068
0.000854492,-0.0255127,1.04883,-2.2583,0.793457,-34.3018,-0.015,-0.019,112.68,0.00119019,-0.00556946,0,0,0,0,0,41.61,207.518,3198082
-0.0216064,-0.0321655,0.953735,-2.0752,0.427246,-35.0952,-0.011,0.005,114.73,0.00128174,-0.006073,0,0,0,0,0,41.61,207.568,3198142
-0.0216064,-0.0321655,0.953735,-2.0752,0.427246,-35.0952,-0.011,0.005,114.73,0.00128174,-0.006073,0,0,0,0,0,41.61,207.579,3198142
-0.0249634,-0.0148926,1.01025,-2.56348,0.244141,-34.1797,0.006,-0.001,115.78,0.00132751,-0.006073,0,0,0,0,0,41.61,207.598,3198172
-0.00762939,0.0303345,1.02399,-3.2959,-0.0610352,-33.2642,0.041,-0.037,116.81,0.00144958,-0.00608826,0,0,0,0,0,41.61,207.628,3198203
-0.00622559,-0.0202637,0.992676,-3.2959,-0.244141,-34.729,-0.003,-0.015,117.32,0.00154114,-0.00614929,0,0,0,0,0,41.61,207.655,3198218
-0.00823975,-0.00012207,1.06622,-3.23486,1.15967,-35.2783,0.017,-0.025,118.39,0.00166321,-0.0063324,0,0,0,0,0,41.61,207.678,3198248
-0.00653076,-0.00402832,1.01434,-3.41797,0.366211,-36.438,0.013,-0.023,118.93,0.00166321,-0.00646973,0,0,0,0,0,41.61,207.698,3198263
-0.000671387,-0.00012207,0.973877,-3.66211,1.28174,-34.3018,0.014,-0.03,119.99,0.00166321,-0.00686646,0,0,0,0,0,41.61,207.731,3198293
-0.0570068,-0.0516357,1.04913,-4.3335,1.2207,-35.0952,0,0.04,120.5,0.00166321,-0.00709534,0,0,0,0,0,41.61,207.747,3198308
0.013855,0.00445557,1.0072,-4.69971,0.854492,-33.7524,0.012,-0.048,121.02,0.00166321,-0.00730896,0,0,0,0,0,41.61,207.758,3198323
-0.0360718,-0.0406494,1.01331,-2.74658,0.427246,-32.4707,0.001,0.016,122.03,0.00158691,-0.00773621,0,0,0,0,0,41.61,207.778,3198353
0.0576782,0.0180664,0.923767,-0.732422,-0.671387,-30.3345,0,-0.091,122.5,0.00154114,-0.00796509,0,0,0,0,0,41.61,207.798,3198368
-0.0724487,-0.0534668,1.03058,1.2207,0.610352,-32.1655,0.012,0.053,122.97,0.00154114,-0.00823975,0,0,0,0,0,41.61,207.819,3198383
0.0296021,-0.0688477,0.977478,1.34277,0.244141,-31.9214,-0.057,-0.02,123.92,0.00146484,-0.00872803,0,0,0,0,0,41.61,207.839,3198413
-0.0090332,0.0285645,1.02148,0.915527,0.732422,-35.5225,0.045,-0.044,124.44,0.00138855,-0.0090332,0,0,0,0,0,41.61,207.858,3198428
-0.0293579,-0.0294189,0.960388,1.28174,1.95312,-35.2173,0.008,0.007,124.98,0.00134277,-0.0093689,0,0,0,0,0,41.61,207.879,3198443
-0.0114746,-0.00152588,1.03137,0,2.0752,-37.8418,0.021,-0.026,126.06,0.00131226,-0.00939941,0,0,0,0,0,41.61,207.9,3198473
-0.0275879,0.00592041,0.969543,1.2207,2.2583,-35.7666,0.035,-0.016,126.6,0.00135803,-0.00946045,0,0,0,0,0,41.61,207.918,3198488
-0.0574951,-0.0228271,1.00592,0.305176,1.34277,-35.6445,0.03,0.023,127.14,0.00143433,-0.00950623,0,0,0,0,0,41.61,207.939,3198503
-0.0710449,-0.0623169,1.11169,0,1.2207,-35.6445,0.009,0.053,128.21,0.00169373,-0.00961304,0,0,0,0,0,41.61,207.959,3198533
-0.0215454,0.019165,0.965942,-0.183105,-0.488281,-33.5693,0.041,-0.03,128.73,0.00187683,-0.00964355,0,0,0,0,0,41.61,207.978,3198548
-0.0171509,-0.0644531,0.978271,-1.09863,0.366211,-34.729,-0.026,0.018,129.23,0.0020752,-0.00968933,0,0,0,0,0,41.61,207.999,3198563
-0.0615234,-0.0460205,1.08612,-0.793457,0.0610352,-34.1187,0.018,0.036,129.75,0.0022583,-0.00968933,0,0,0,0,0,41.61,208.018,3198578
0.00622559,-0.0350342,0.965393,0.0610352,-0.244141,-34.1797,-0.018,-0.017,130.75,0.0022583,-0.00967407,0,0,0,0,0,41.61,208.044,3198608
0.050354,0.000671387,1.01752,0.671387,1.77002,-34.6069,-0.02,-0.075,131.78,0.0022583,-0.00970459,0,0,0,0,0,41.61,208.067,3198638
-0.00115967,-0.0163574,1.02441,0.610352,0.732422,-35.7666,0,-0.025,132.31,0.00222778,-0.00979614,0,0,0,0,0,41.61,208.082,3198653
-0.0258179,0.0321655,1.01184,1.64795,2.31934,-34.1797,0.052,-0.039,132.83,0.00224304,-0.00993347,0,0,0,0,0,41.61,208.104,3198668
0.00305176,-0.0721436,1.04779,0.0610352,1.77002,-34.8511,-0.043,0.009,133.35,0.00227356,-0.0101013,0,0,0,0,0,41.61,208.12,3198683
-0.038269,0.0375977,0.952637,0,1.34277,-34.1797,0.063,-0.034,134.37,0.00228882,-0.0104675,0,0,0,0,0,41.61,208.14,3198713
-0.0637207,0.019165,1.05591,-0.0610352,0.244141,-34.4849,0.068,-0.007,134.9,0.00241089,-0.0107117,0,0,0,0,0,41.61,208.16,3198728
-0.0234985,-0.112366,1.03625,-1.15967,0.427246,-32.1655,-0.051,0.057,135.86,0.00270081,-0.0106812,0,0,0,0,0,41.61,208.192,3198758
0.0370483,0.0198975,0.952637,0.183105,-0.671387,-30.5176,-0.004,-0.076,136.8,0.00299072,-0.0105743,0,0,0,0,0,41.61,208.219,3198788
-0.0383911,-0.043396,1.04254,0.305176,0.976562,-32.1045,0.009,0.018,137.77,0.00328064,-0.0106201,0,0,0,0,0,41.61,208.243,3198818
0.0396118,-0.0162964,0.999756,0.183105,0.427246,-31.311,-0.031,-0.051,138.24,0.00341797,-0.0106506,0,0,0,0,0,41.59,208.262,3198833
-0.0296631,-0.0316162,1.04211,-0.12207,1.89209,-31.3721,0.011,0.004,139.22,0.00357056,-0.0107574,0,0,0,0,0,41.59,208.293,3198863
-0.0319214,0.0150757,0.957092,0.183105,0.915527,-34.1797,0.043,-0.027,140.21,0.00360107,-0.0110168,0,0,0,0,0,41.59,208.321,3198893
-0.0321655,-0.0322266,1.01898,-0.183105,0.610352,-32.8369,0.013,0.006,140.71,0.00367737,-0.0112,0,0,0,0,0,41.59,208.339,3198908
-0.0318604,-0.102478,1.06049,-0.976562,-0.183105,-32.7148,-0.03,0.059,141.19,0.00372314,-0.011322,0,0,0,0,0,41.59,208.358,3198923
-0.0245361,0.0195923,0.959534,-0.183105,-1.15967,-31.6162,0.039,-0.037,142.17,0.0038147,-0.0115814,0,0,0,0,0,41.59,208.379,3198953
-0.020874,-0.0119629,1.02148,0,0.305176,-31.7383,0.018,-0.016,142.64,0.00390625,-0.0117645,0,0,0,0,0,41.59,208.399,3198968
0.0389404,0.0634155,0.965759,0.305176,0.0610352,-32.3486,0.015,-0.11,143.13,0.00402832,-0.0120392,0,0,0,0,0,41.59,208.418,3198983
-0.0020752,-0.00646973,1.01031,-0.488281,1.70898,-33.02,0.006,-0.031,144.12,0.00402832,-0.0128174,0,0,0,0,0,41.59,208.439,3199013
0.0578003,0.0575562,0.992004,-0.0610352,-0.549316,-33.2642,-0.005,-0.117,144.61,0.00402832,-0.0133209,0,0,0,0,0,41.59,208.459,3199029
-0.0233154,-0.020813,0.977905,0,0.671387,-34.4238,0.015,-0.005,145.13,0.00402832,-0.0139008,0,0,0,0,0,41.59,208.479,3199043
-0.010498,-0.0350342,1.08972,-0.854492,1.09863,-35.7056,-0.002,-0.005,146.16,0.00408936,-0.0139008,0,0,0,0,0,41.59,208.502,3199073
-0.0507812,-0.0101929,1.01099,-0.793457,1.28174,-36.5601,0.044,-0.001,146.71,0.00416565,-0.0139008,0,0,0,0,0,41.59,208.522,3199089
0.0917358,0.0847778,1.00848,-1.34277,-0.976562,-35.8887,-0.025,-0.158,147.79,0.00436401,-0.0140228,0,0,0,0,0,41.59,208.543,3199118
-0.0758057,-0.115601,1.01984,-0.183105,1.40381,-36.0107,0.01,0.099,148.33,0.00445557,-0.0141754,0,0,0,0,0,41.59,208.56,3199133
-0.0446167,0.0205688,1.03333,3.17383,1.70898,-35.8276,0.055,-0.033,148.86,0.00457764,-0.0142975,0,0,0,0,0,41.59,208.582,3199149
0.0236816,-0.13623,1.04016,1.58691,0.976562,-37.3535,-0.083,0.068,149.96,0.00474548,-0.0145721,0,0,0,0,0,41.59,208.617,3199178
-0.0402222,-0.0419922,1.05347,0.549316,0.854492,-35.6445,0.019,0.017,150.5,0.00473022,-0.0146332,0,0,0,0,0,41.59,208.626,3199193
-0.0134888,-0.0383911,0.965576,-2.56348,1.64795,-35.8276,-0.001,0.003,151.57,0.00473022,-0.0146942,0,0,0,0,0,41.59,208.654,3199223
0.00231934,0.012207,1.02667,-2.01416,1.28174,-34.3018,0.008,-0.051,152.1,0.00473022,-0.0147247,0,0,0,0,0,41.59,208.665,3199238
-0.00939941,-0.00848389,1.02997,-1.46484,0.854492,-34.9121,0.009,-0.027,152.61,0.00473022,-0.0148163,0,0,0,0,0,41.59,208.68,3199253
-0.0886841,-0.0623779,0.976746,0.183105,1.58691,-34.6069,0.055,0.058,153.14,0.004776,-0.0148773,0,0,0,0,0,41.59,208.703,3199269
0.0394897,-0.00427246,1.01874,1.58691,1.09863,-33.3252,-0.033,-0.052,153.65,0.00482178,-0.0149384,0,0,0,0,0,41.59,208.721,3199283
0.0246582,-0.0421143,0.955933,-0.427246,0.549316,-31.9824,-0.037,-0.009,154.63,0.00492859,-0.0150452,0,0,0,0,0,41.59,208.742,3199313
-0.0106201,-0.0700684,1.00281,0.610352,1.46484,-32.8979,-0.016,0.029,155.11,0.00494385,-0.0150299,0,0,0,0,0,41.59,208.759,3199329
-0.0195312,0.00604248,1.0379,-0.0610352,1.40381,-33.5083,0.023,-0.037,155.61,0.00495911,-0.0150146,0,0,0,0,0,41.61,208.777,3199343
-0.0712891,0.0043335,1.02545,1.2207,1.28174,-33.6304,0.069,-0.015,156.62,0.00505066,-0.015213,0,0,0,0,0,41.61,208.8,3199373
-0.0387573,-0.0369873,1.03485,0.0610352,1.89209,-32.2876,0.023,0.009,157.11,0.00518799,-0.0153351,0,0,0,0,0,41.61,208.818,3199389
0.0166626,-0.0708008,0.992798,-0.549316,1.46484,-31.8603,-0.04,0.02,157.58,0.00531006,-0.0154572,0,0,0,0,0,41.61,208.838,3199403
-0.0263672,-0.0690918,0.991577,-0.854492,0.854492,-32.0435,0,0.035,158.06,0.00540161,-0.0155182,0,0,0,0,0,41.61,208.858,3199418
-0.0614014,0.00695801,1.06152,2.0752,0.671387,-32.2876,0.06,-0.025,159.02,0.00575256,-0.0157013,0,0,0,0,0,41.61,208.878,3199449
0.00128174,-0.0699463,1.03387,0.671387,1.89209,-32.7759,-0.025,0.025,159.5,0.00598145,-0.0158234,0,0,0,0,0,41.61,208.902,3199463
0.038269,0.0493774,0.995056,-0.793457,-0.488281,-31.6162,-0.019,-0.097,160.46,0.00639343,-0.0160217,0,0,0,0,0,41.61,208.918,3199493
-0.0722656,-0.0554199,1.08051,1.34277,1.70898,-33.5083,0.05,0.034,161.44,0.00686646,-0.0166016,0,0,0,0,0,41.61,208.954,3199523
0.0360718,-0.0584106,0.980347,0.366211,1.83105,-35.5225,-0.053,0.008,162.48,0.00733948,-0.0171661,0,0,0,0,0,41.61,208.985,3199554
-0.0418701,-0.0139771,1.02924,1.83105,1.58691,-34.9121,0.034,-0.012,163.01,0.00752258,-0.0171661,0,0,0,0,0,41.61,208.998,3199569
-0.0452881,-0.0619507,1.0636,2.38037,3.54004,-33.7524,0.023,0.033,163.52,0.00775146,-0.0171509,0,0,0,0,0,41.61,209.019,3199584
-0.0206909,-0.0460205,1.03375,1.34277,1.28174,-35.7666,0.004,0.012,164.04,0.00799561,-0.0171051,0,0,0,0,0,41.61,209.038,3199599
-0.0481567,-0.0511475,0.998474,0.488281,1.28174,-32.1655,0.029,0.026,165.05,0.00801086,-0.0169373,0,0,0,0,0,41.61,209.058,3199629
-0.0297241,-0.0788574,1.01904,-0.915527,-0.183105,-28.2593,0.004,0.046,165.5,0.00804138,-0.0167999,0,0,0,0,0,41.61,209.08,3199644
0.00231934,0.017395,0.964478,-0.976562,1.0376,-25.9399,-0.002,-0.052,165.89,0.0080719,-0.0166473,0,0,0,0,0,41.61,209.099,3199659
-0.0336914,0.0241089,1.02228,0.732422,0.732422,-20.3857,0.033,-0.053,166.6,0.00827026,-0.01651,0,0,0,0,0,41.61,209.119,3199689
0.0126953,-0.0864258,1.03784,0,0,-18.4937,-0.037,0.043,166.88,0.00839233,-0.0164795,0,0,0,0,0,41.61,209.139,3199704
-0.0338745,-0.0620728,1.06201,-0.0610352,0.366211,-17.0898,0.014,0.029,167.14,0.00849915,-0.0163879,0,0,0,0,0,41.61,209.158,3199719
0.0441895,-0.020813,0.983398,0.610352,-0.610352,-10.498,-0.052,-0.025,167.55,0.00866699,-0.0161743,0,0,0,0,0,41.61,209.179,3199749
-0.0539551,0.0474854,1.06732,5.49316,0.366211,-7.01904,0.058,-0.073,167.67,0.00872803,-0.0161285,0,0,0,0,0,41.61,209.199,3199764
-0.00982666,-0.114563,0.97406,1.46484,0.732422,-4.27246,-0.018,0.079,167.74,0.00880432,-0.0160828,0,0,0,0,0,41.61,209.218,3199779
0.0145874,-0.0844727,1.1449,0.671387,1.09863,-2.99072,-0.037,0.04,167.88,0.00892639,-0.0158844,0,0,0,0,0,41.61,209.239,3199809
0.00152588,0.00439453,0.933228,-0.244141,-1.58691,-1.15967,-0.004,-0.037,167.89,0.00892639,-0.0157776,0,0,0,0,0,41.61,209.258,3199824
0.0196533,-0.0258179,1.005,-1.09863,0,-2.19727,-0.029,-0.014,167.96,0.00894165,-0.0156555,0,0,0,0,0,41.56,209.278,3199854
0.0109863,-0.0185547,1.10461,-1.40381,-0.671387,-1.52588,-0.019,-0.022,167.99,0.00891113,-0.015625,0,0,0,0,0,41.56,209.299,3199869
-0.0331421,-0.00860596,0.966553,-1.34277,0.12207,-1.46484,0.026,-0.018,168.01,0.00886536,-0.0156403,0,0,0,0,0,41.56,209.318,3199884
0.0375977,0.0012207,0.961731,-0.610352,-0.305176,-3.05176,-0.04,-0.042,168.05,0.00883484,-0.015686,0,0,0,0,0,41.56,209.339,3199899
-0.0450439,-0.0661621,0.979309,0.854492,0.0610352,-2.50244,0.027,0.04,168.13,0.00869751,-0.015976,0,0,0,0,0,41.56,209.359,3199929
0.019043,-0.0219116,1.0022,0.0610352,0.671387,-3.2959,-0.026,-0.016,168.18,0.00863647,-0.0161285,0,0,0,0,0,41.56,209.38,3199944
-0.0584106,0.0115356,1.03485,1.28174,1.64795,-4.08936,0.056,-0.034,168.24,0.0085907,-0.0163116,0,0,0,0,0,41.56,209.398,3199959
0.0389404,-0.0574951,1.02112,-0.305176,1.28174,0.12207,-0.053,0.013,168.31,0.00845337,-0.0165405,0,0,0,0,0,41.56,209.418,3199989
-0.0228271,-0.135193,1.01959,-0.671387,0.0610352,3.72314,-0.008,0.101,168.28,0.00831604,-0.0165558,0,0,0,0,0,41.56,209.438,3200004
-0.0106201,-0.0422363,0.963745,0.976562,-0.549316,10.3149,-0.002,0.01,168.06,0.00805664,-0.0164948,0,0,0,0,0,41.56,209.46,3200034
0.00598145,0.0205688,1.04016,0.915527,-0.732422,12.7563,-0.005,-0.056,167.88,0.00793457,-0.01651,0,0,0,0,0,41.56,209.485,3200049
-0.0214844,-0.0422363,1.02893,1.34277,-1.2207,12.8174,0.008,0.011,167.69,0.00793457,-0.0165405,0,0,0,0,0,41.56,209.499,3200064
0.0680542,0.131409,0.938721,-0.427246,-2.44141,19.2871,-0.039,-0.175,167.18,0.00796509,-0.01651,0,0,0,0,0,41.56,209.52,3200094
0.0120239,0.0315552,1.02197,1.89209,-1.52588,19.4092,-0.007,-0.067,166.89,0.00794983,-0.0166931,0,0,0,0,0,41.56,209.538,3200109
0.00115967,-0.135986,1.03607,1.15967,-1.2207,23.1323,-0.034,0.097,166.57,0.00791931,-0.0168457,0,0,0,0,0,41.56,209.558,3200124
-0.0291748,0.0245361,1.02686,1.58691,-0.305176,25.0854,0.033,-0.05,165.8,0.00773621,-0.0170135,0,0,0,0,0,41.56,209.578,3200154
0.0582886,0.0227661,1.03674,0.366211,-0.0610352,27.8931,-0.051,-0.07,165.4,0.00762939,-0.0171967,0,0,0,0,0,41.56,209.598,3200169
0.0307007,-0.0663452,0.971252,-0.244141,-1.2207,32.2876,-0.047,0.025,164.93,0.00746155,-0.0174103,0,0,0,0,0,41.56,209.619,3200184
0.0163574,0.0272217,1.02557,0.915527,-0.0610352,34.9121,-0.008,-0.063,164.42,0.00726318,-0.0176544,0,0,0,0,0,41.56,209.638,3200199
0.0184937,0.00524902,0.972473,0.732422,-1.15967,40.1001,-0.015,-0.04,163.27,0.0070343,-0.0182495,0,0,0,0,0,41.56,209.658,3200229
0.0125732,-0.0316162,1.03821,0.366211,0.366211,41.3208,-0.02,-0.005,162.65,0.00701904,-0.0186005,0,0,0,0,0,41.56,209.679,3200244
0.0404663,-0.0281372,1.00317,-0.244141,-0.244141,43.457,-0.045,-0.016,161.37,0.00691223,-0.0189514,0,0,0,0,0,41.56,209.699,3200274
-0.0203247,-0.0205078,1.00983,-0.488281,-0.427246,44.6777,0.014,-0.004,160.7,0.00682068,-0.0189514,0,0,0,0,0,41.56,209.718,3200289
0.0114136,-0.0234985,1.04779,-0.366211,-1.40381,46.6919,-0.016,-0.013,160.02,0.00672913,-0.0189514,0,0,0,0,0,41.56,209.74,3200304
-0.0100708,-0.0662231,0.977356,-1.28174,-1.89209,45.227,-0.011,0.036,158.63,0.00672913,-0.019043,0,0,0,0,0,41.56,209.759,3200334
0.0396118,-0.003479,1.0578,-2.13623,-0.976562,45.4712,-0.033,-0.043,157.95,0.00669861,-0.0190887,0,0,0,0,0,41.56,209.778,3200349
0.0783691,0.261841,0.925171,-2.31934,-3.90625,43.5791,0.032,-0.299,157.28,0.00665283,-0.0193787,0,0,0,0,0,41.58,209.799,3200364
-0.0172119,0.0331421,1.05182,1.09863,-0.183105,45.3491,0.034,-0.053,155.92,0.00656128,-0.0203705,0,0,0,0,0,41.58,209.819,3200394
-0.0155029,-0.0690308,1.05121,1.15967,-1.0376,44.6167,-0.008,0.038,155.24,0.0065155,-0.0208893,0,0,0,0,0,41.58,209.839,3200410
0.0386963,-0.0195923,1.01849,-0.854492,-0.915527,44.2505,-0.037,-0.028,154.58,0.00645447,-0.0214081,0,0,0,0,0,41.58,209.862,3200424
0.0113525,-0.0430298,1.05341,-1.09863,0.244141,43.335,-0.021,0.002,153.27,0.00616455,-0.022522,0,0,0,0,0,41.58,209.879,3200454
0.0196533,-0.0515747,1.00671,-1.2207,-0.488281,41.687,-0.033,0.007,152.65,0.00596619,-0.022522,0,0,0,0,0,41.58,209.9,3200470
0.0602417,-0.041748,1.06512,-0.732422,0.183105,42.2974,-0.063,-0.022,152.01,0.00570679,-0.0225372,0,0,0,0,0,41.58,209.918,3200484
-0.00384521,-0.0379639,0.949463,0.12207,-0.854492,42.0532,-0.006,0.007,150.76,0.00514221,-0.022644,0,0,0,0,0,41.58,209.944,3200514
0.012146,-0.010376,1.02612,0.12207,0.12207,43.9453,-0.006,-0.026,150.11,0.00514221,-0.0227203,0,0,0,0,0,41.58,209.959,3200530
0.0045166,-0.0556641,1.03217,-1.09863,-1.09863,43.0298,-0.022,0.016,149.46,0.00512695,-0.0227966,0,0,0,0,0,41.58,209.978,3200544
-0.017395,-0.0499268,1.02277,-0.366211,0.427246,44.9829,-0.001,0.022,148.79,0.00509644,-0.0228577,0,0,0,0,0,41.58,209.998,3200559
0.029541,0.0536499,0.960388,-1.46484,-2.50244,43.1519,0.014,-0.089,147.49,0.00506592,-0.0231934,0,0,0,0,0,41.58,210.018,3200590
-0.0217896,0.0313721,1.00537,-0.732422,-1.77002,44.8608,0.046,-0.043,146.82,0.00509644,-0.0235138,0,0,0,0,0,41.58,210.038,3200604
0.0269165,0.00543213,0.972107,0.427246,-1.64795,45.6543,-0.007,-0.046,145.46,0.00527954,-0.024292,0,0,0,0,0,41.58,210.061,3200634
0.0114136,-0.0807495,1.04883,-0.305176,-1.77002,45.0439,-0.042,0.03,144.79,0.00532532,-0.0247192,0,0,0,0,0,41.58,210.078,3200650
0.0163574,-0.0392456,1.10437,0,0.732422,44.6777,-0.022,-0.007,144.11,0.00534058,-0.0251312,0,0,0,0,0,41.58,210.098,3200664
0.0618286,0.0144043,0.963074,1.52588,-1.89209,42.1753,-0.027,-0.074,142.8,0.00523376,-0.0260315,0,0,0,0,0,41.58,210.119,3200694
-0.0806885,-0.251282,1.10327,0.0610352,0.915527,43.8843,-0.075,0.218,142.16,0.00509644,-0.026413,0,0,0,0,0,41.58,210.139,3200710
0.0558472,0.0197144,1.08234,-0.366211,-1.0376,44.5557,-0.015,-0.078,141.5,0.00489807,-0.0267029,0,0,0,0,0,41.58,210.158,3200724
-0.000244141,-0.022644,0.889465,-1.0376,-2.2583,45.5933,0,-0.005,140.17,0.00468445,-0.0273285,0,0,0,0,0,41.58,210.18,3200754
0.048645,-0.0349121,1.00562,-1.58691,-0.915527,45.6543,-0.044,-0.03,139.48,0.00465393,-0.0276642,0,0,0,0,0,41.58,210.198,3200770
-0.00512695,-0.0112915,1.09772,-2.0752,-1.46484,44.3115,0.014,-0.015,138.81,0.0045929,-0.0280304,0,0,0,0,0,41.58,210.218,3200784
0.0250244,-0.0186157,0.979309,-1.28174,-1.46484,44.4946,-0.014,-0.027,137.46,0.00460815,-0.0289459,0,0,0,0,0,41.58,210.239,3200815
0.0187378,0.0210571,1.01062,0.183105,-1.77002,45.0439,0.019,-0.051,136.12,0.00462341,-0.0300598,0,0,0,0,0,41.58,210.271,3200844
0.0133057,-0.0330811,0.990601,0.183105,-2.0752,44.7388,-0.014,-0.008,135.45,0.00462341,-0.0306854,0,0,0,0,0,41.58,210.285,3200859
0.0133057,-0.0330811,0.990601,0.183105,-2.0752,44.7388,-0.014,-0.008,135.45,0.00462341,-0.0306854,0,0,0,0,0,41.58,210.298,3200859
-0.00134277,0.0183716,1.01837,0.12207,-1.15967,44.3115,0.033,-0.034,134.11,0.00465393,-0.0307159,0,0,0,0,0,41.56,210.319,3200890
0.00714111,-0.133972,1.05188,-1.40381,-1.0376,44.1284,-0.081,0.063,133.45,0.00463867,-0.0307465,0,0,0,0,0,41.56,210.339,3200905
0.00836182,-0.00518799,0.981628,1.2207,-2.92969,43.9453,0.01,-0.023,132.15,0.00456238,-0.0307159,0,0,0,0,0,41.56,210.36,3200935
-0.0316772,-0.0452271,0.988953,1.52588,-2.19727,44.3115,0.007,0.032,131.48,0.00456238,-0.0307007,0,0,0,0,0,41.56,210.379,3200950
-0.0139771,-0.0793457,1.01208,1.34277,-2.2583,43.9453,-0.03,0.041,130.81,0.00454712,-0.0306549,0,0,0,0,0,41.56,210.397,3200965
0.0482788,0.0139771,1.02301,1.58691,-2.62451,44.7998,0,-0.066,130.14,0.0045166,-0.0306091,0,0,0,0,0,41.56,210.418,3200980
0.0209961,0.0698853,1.0351,1.15967,-1.95312,43.457,0.063,-0.079,128.83,0.00437927,-0.0305939,0,0,0,0,0,41.56,210.438,3201010
0.0501099,-0.0307007,1.02161,0.12207,-2.44141,42.6636,-0.033,-0.038,128.19,0.0043335,-0.0307007,0,0,0,0,0,41.56,210.458,3201025
0.0200806,-0.0308228,1.00922,0.0610352,-1.09863,43.2739,-0.014,-0.013,127.54,0.0042572,-0.0308228,0,0,0,0,0,41.56,210.478,3201040
0.000671387,-0.0837402,1.02704,0.915527,-1.2207,43.0298,-0.045,0.033,126.24,0.00419617,-0.0312042,0,0,0,0,0,41.56,210.498,3201070
0.00762939,-0.0770874,1.02887,0.671387,0.244141,43.396,-0.045,0.023,125.59,0.00410461,-0.0313721,0,0,0,0,0,41.56,210.518,3201085
0.0253906,-0.0466919,1.04077,-0.366211,0.183105,42.9687,-0.03,-0.009,124.31,0.00395203,-0.0317688,0,0,0,0,0,41.56,210.543,3201115
0.0010376,-0.0531006,1.00665,-0.427246,-1.58691,42.5415,-0.023,0.014,123.66,0.00384521,-0.0317688,0,0,0,0,0,41.56,210.558,3201130
0.00567627,-0.053833,1.00305,-0.976562,-1.40381,43.5791,-0.026,0.01,123.03,0.00369263,-0.0317688,0,0,0,0,0,41.56,210.578,3201145
-0.0168457,-0.126526,1.06207,1.52588,-2.13623,44.0674,-0.075,0.066,121.69,0.00361633,-0.0318298,0,0,0,0,0,41.56,210.599,3201175
-0.0332642,-0.0522461,1.01477,1.46484,-1.40381,45.0439,-0.005,0.042,121.02,0.00354004,-0.0317841,0,0,0,0,0,41.56,210.618,3201190
0.0126343,-0.0112915,1.01691,0.610352,-2.38037,44.2505,0.006,-0.017,120.35,0.00346375,-0.031723,0,0,0,0,0,41.56,210.639,3201205
0.0448608,-0.0386353,1.00116,-0.793457,-1.58691,45.227,-0.033,-0.031,119.68,0.00337219,-0.0316925,0,0,0,0,0,41.56,210.658,3201220
0.0151978,0.026001,1.0285,0.488281,-1.0376,45.3491,0.039,-0.036,118.33,0.00318909,-0.0317993,0,0,0,0,0,41.56,210.681,3201250
0.0289307,-0.000244141,1.01764,-0.0610352,-1.15967,44.6777,0.009,-0.035,117.66,0.00315857,-0.0319519,0,0,0,0,0,41.56,210.698,3201265
0.00518799,-0.0638428,1.05219,1.46484,0.427246,45.0439,-0.035,0.014,116.3,0.00302124,-0.0321045,0,0,0,0,0,41.56,210.72,3201295
-0.00158691,-0.092041,1.00018,0.0610352,-0.244141,44.4336,-0.059,0.032,115.64,0.00286865,-0.032074,0,0,0,0,0,41.56,210.738,3201310
0.048645,0.0154419,1.00232,-0.854492,-0.488281,44.7388,0.016,-0.059,114.97,0.00268555,-0.0320587,0,0,0,0,0,41.56,210.759,3201325
0.000366211,-0.0487061,1.02954,-2.0752,0.488281,44.4946,-0.02,0.01,113.65,0.00268555,-0.0320892,0,0,0,0,0,41.56,210.778,3201355
-0.0142212,0.0252075,0.964722,-0.793457,-0.976562,43.1519,0.051,-0.004,112.99,0.00270081,-0.0320892,0,0,0,0,0,41.56,210.798,3201370
-0.00341797,-0.010437,1.01843,1.40381,-0.976562,43.335,0.015,-0.001,112.34,0.00276184,-0.0320892,0,0,0,0,0,41.55,210.818,3201385
0.000549316,-0.0362549,1.0285,0.610352,-1.0376,43.2129,-0.01,0.004,111.69,0.00276184,-0.0320892,0,0,0,0,0,41.55,210.839,3201400
0.00823975,-0.029541,1.03748,-0.488281,-1.34277,44.3115,-0.006,-0.004,110.38,0.00279236,-0.0320892,0,0,0,0,0,41.55,210.859,3201430
0.0137939,0.0803223,0.973938,0.12207,-2.31934,43.8843,0.093,-0.046,109.71,0.00288391,-0.0321198,0,0,0,0,0,41.55,210.88,3201445
0.0166016,-0.0493774,1.04877,2.01416,-1.40381,44.6777,-0.028,-0.006,108.38,0.00328064,-0.0323486,0,0,0,0,0,41.55,210.902,3201475
0.0127563,0.00457764,1.0542,3.11279,0.12207,44.9829,0.023,-0.018,107.71,0.003479,-0.0323486,0,0,0,0,0,41.55,210.92,3201490
0.0350342,-0.0485229,1.00366,4.3335,-1.28174,44.1894,-0.035,-0.023,107.04,0.00367737,-0.0323792,0,0,0,0,0,41.55,210.939,3201505
-0.0297852,-0.012146,0.918457,2.38037,-0.915527,43.9453,0.015,0.028,106.39,0.00386047,-0.0324097,0,0,0,0,0,41.55,210.958,3201520
0.0130005,-0.0197144,1.05627,-0.427246,-1.09863,45.4712,0,-0.01,105.02,0.00413513,-0.0324097,0,0,0,0,0,41.55,210.978,3201550
-0.0115356,-0.00219727,0.994324,-0.0610352,-0.732422,47.2412,0.021,0.008,104.32,0.00427246,-0.0324097,0,0,0,0,0,41.55,210.998,3201565
0.0166016,0.0567017,0.99939,0.12207,-1.28174,48.7061,0.072,-0.031,102.88,0.00454712,-0.0324402,0,0,0,0,0,41.55,211.018,3201595
0.0055542,-0.0319214,1.08032,0.427246,-0.976562,48.2178,-0.01,0,102.16,0.00474548,-0.032486,0,0,0,0,0,41.55,211.038,3201610
0.0107422,0.0020752,1.03491,0.610352,-0.488281,49.3774,0.021,-0.012,101.42,0.00494385,-0.032547,0,0,0,0,0,41.55,211.058,3201625
0.0383911,0.0244751,0.969971,0.854492,-1.15967,47.2412,0.036,-0.042,100.7,0.00517273,-0.0326538,0,0,0,0,0,41.55,211.078,3201640
0.00360107,0.00488281,1.0235,0,-0.854492,46.0205,0.024,-0.004,99.29,0.00572205,-0.0329285,0,0,0,0,0,41.55,211.101,3201670
-0.0115967,-0.0180664,1.01245,-1.0376,-1.52588,46.4478,0.004,0.014,98.59,0.00602722,-0.0329285,0,0,0,0,0,41.55,211.119,3201685
0.0161133,0.022583,0.976379,-0.854492,-0.976562,46.9971,0.039,-0.018,97.89,0.00634766,-0.0329285,0,0,0,0,0,41.55,211.138,3201700
0.0111084,-0.0158081,1.0282,-2.13623,-0.732422,47.3022,0.004,-0.008,96.48,0.00701904,-0.0329285,0,0,0,0,0,41.55,211.158,3201731
0.00244141,0.00506592,0.991577,-1.58691,-1.46484,45.5322,0.025,-0.001,95.79,0.00737,-0.0329285,0,0,0,0,0,41.55,211.178,3201745
0.0189209,0.0457153,0.986206,-1.28174,-2.92969,48.7671,0.066,-0.018,92.91,0.00892639,-0.0328369,0,0,0,0,0,41.55,211.231,3201805
-0.0129395,-0.0490723,1.07654,-1.83105,-2.74658,48.2178,-0.024,0.018,92.18,0.00938416,-0.0328369,0,0,0,0,0,41.55,211.25,3201820
0.0408325,0.0562134,0.998352,-1.64795,-2.62451,46.6919,0.077,-0.038,91.47,0.0098877,-0.0328522,0,0,0,0,0,41.55,211.261,3201835
0.0308228,0.0424194,0.934082,-1.70898,-2.92969,46.2036,0.063,-0.026,90.78,0.0104828,-0.0329132,0,0,0,0,0,41.55,211.278,3201851
0.0472412,-0.0283813,1.03821,-1.15967,-1.28174,45.105,-0.004,-0.041,90.1,0.0111237,-0.03302,0,0,0,0,0,41.55,211.298,3201865
-0.0437012,-0.0565186,1.01813,-1.09863,-1.28174,41.8091,-0.033,0.049,89.45,0.0117188,-0.0331116,0,0,0,0,0,41.55,211.319,3201880
-0.0187988,-0.0988159,1.04773,0.854492,0.305176,41.3208,-0.075,0.021,87.59,0.0137024,-0.0335693,0,0,0,0,0,41.58,211.35,3201925
-0.0187988,-0.0988159,1.04773,0.854492,0.305176,41.3208,-0.075,0.021,87.59,0.0137024,-0.0335693,0,0,0,0,0,41.58,211.36,3201925
0.00695801,-0.0462036,1.01404,0.183105,-0.732422,42.4194,-0.022,-0.003,86.32,0.0148926,-0.0337982,0,0,0,0,0,41.58,211.381,3201955
0.000549316,-0.00750732,1.03217,-1.09863,-0.0610352,44.1894,0.016,0.005,85.65,0.0155029,-0.0337982,0,0,0,0,0,41.58,211.399,3201971
-0.0340576,-0.0221558,0.97522,-0.549316,-2.0752,44.4336,-0.002,0.038,85,0.0155029,-0.0337677,0,0,0,0,0,41.58,211.418,3201985
-0.0374756,-0.0496216,1.01508,0.183105,-2.2583,46.6309,-0.03,0.039,83.6,0.0154114,-0.0336761,0,0,0,0,0,41.58,211.439,3202015
-0.0323486,-0.0289307,1.0329,1.40381,-1.52588,47.7295,-0.008,0.036,82.9,0.0153198,-0.0335846,0,0,0,0,0,41.58,211.46,3202031
0.00585938,0.0380249,0.996887,-0.488281,-1.70898,46.3867,0.06,0.01,80.77,0.0153503,-0.033432,0,0,0,0,0,41.58,211.51,3202075
0.0257568,-0.0435181,1.01227,-0.671387,-2.38037,45.7764,-0.015,-0.022,80.09,0.0154266,-0.0334015,0,0,0,0,0,41.58,211.519,3202091
0.0289307,-0.029541,0.98584,-2.44141,-0.427246,45.6543,-0.001,-0.022,79.41,0.0154877,-0.0334015,0,0,0,0,0,41.58,211.539,3202105
0.0112305,0.020752,0.969849,-1.58691,-1.40381,45.105,0.044,0.004,78.72,0.0155792,-0.033432,0,0,0,0,0,41.58,211.559,3202120
-0.0365601,-0.0910034,1.03223,0,0.305176,45.4102,-0.073,0.027,77.35,0.0159302,-0.033493,0,0,0,0,0,41.58,211.579,3202151
0.0400391,-0.0731812,1.04913,-0.183105,0.549316,46.7529,-0.038,-0.043,76.66,0.0160522,-0.0335236,0,0,0,0,0,41.58,211.599,3202165
0.0254517,0.147705,0.97052,-0.854492,-1.2207,46.5698,0.171,0.022,75.96,0.0162506,-0.0335846,0,0,0,0,0,41.58,211.618,3202180
-0.029541,-0.0612793,1.05658,-1.09863,-0.854492,47.7905,-0.042,0.024,74.55,0.0167847,-0.0335541,0,0,0,0,0,41.58,211.64,3202211
-0.039917,-0.0922852,0.981934,-1.46484,-2.13623,47.1802,-0.077,0.024,73.85,0.0169373,-0.0334778,0,0,0,0,0,41.58,211.658,3202225
-0.00335693,0.038147,1.00275,0.183105,-1.52588,48.5229,0.058,0.026,73.13,0.0170898,-0.0333557,0,0,0,0,0,41.58,211.678,3202241
0.0585938,-0.0864258,1.05463,-0.610352,-1.2207,47.5464,-0.04,-0.068,71.7,0.0174408,-0.0331116,0,0,0,0,0,41.58,211.7,3202271
-0.000793457,-0.0543213,0.986023,-0.976562,-2.01416,47.1191,-0.03,-0.003,70.99,0.0175629,-0.0330505,0,0,0,0,0,41.58,211.718,3202286
0.0665894,0.00866699,1.0451,-1.0376,-1.58691,46.6919,0.053,-0.044,70.29,0.0176849,-0.03302,0,0,0,0,0,41.58,211.739,3202301
0.0357056,-0.00201416,0.998291,-1.09863,-2.13623,46.0205,0.033,-0.018,68.91,0.0180054,-0.0330353,0,0,0,0,0,41.58,211.758,3202331
0.0213013,-0.00854492,1.00385,-0.732422,-1.34277,45.8374,0.022,-0.006,68.22,0.0182037,-0.0330353,0,0,0,0,0,41.58,211.778,3202346
-0.00390625,0.00158691,1.02478,0.12207,-1.2207,45.4102,0.022,0.021,67.54,0.0184326,-0.0330353,0,0,0,0,0,41.58,211.798,3202361
-0.024353,-0.093811,1.04095,0.732422,-0.915527,46.6919,-0.073,0.001,66.14,0.0189667,-0.0329437,0,0,0,0,0,41.58,211.818,3202391
0.00720215,-0.0233765,1.02435,-0.549316,-1.0376,47.6685,0.003,0,65.43,0.0191803,-0.0329437,0,0,0,0,0,41.58,211.838,3202406
0.024231,0.0043335,1.02173,-1.40381,-2.01416,47.4853,0.035,-0.002,64.72,0.0194244,-0.0329437,0,0,0,0,0,41.58,211.858,3202421
0.0137329,-0.0585327,1.03198,-0.12207,-1.70898,46.9971,-0.024,-0.02,63.28,0.0201416,-0.0328674,0,0,0,0,0,41.58,211.878,3202451
0.00891113,-0.0567017,1.06146,0.610352,-0.671387,48.0957,-0.024,-0.014,62.57,0.0204926,-0.0328369,0,0,0,0,0,41.58,211.898,3202466
0.0158081,0.0043335,0.995483,0.732422,-1.95312,47.5464,0.03,0.006,61.85,0.0208588,-0.0328369,0,0,0,0,0,41.58,211.919,3202481
0.0137939,-0.0413818,1.00305,0.305176,-1.34277,47.6074,-0.01,-0.013,60.43,0.0214844,-0.0328369,0,0,0,0,0,41.58,211.938,3202511
-0.00286865,-0.0411987,0.983887,-0.0610352,-2.2583,47.2412,-0.019,0,59.72,0.0214844,-0.0328369,0,0,0,0,0,41.58,211.958,3202526
0.0140381,0.0124512,1.00427,-0.732422,-1.70898,46.9971,0.036,0.014,59.01,0.0214844,-0.0328369,0,0,0,0,0,41.58,211.978,3202541
0.00616455,-0.0432129,1.03473,-1.77002,-1.34277,48.5229,-0.014,-0.006,57.58,0.0215149,-0.0328369,0,0,0,0,0,41.58,211.998,3202571
-0.0119019,0.0279541,0.989563,-0.732422,-1.64795,47.4853,0.034,0.046,56.87,0.0215302,-0.0328217,0,0,0,0,0,41.58,212.018,3202586
0.0100708,0.0288086,0.985657,0.183105,-3.23486,46.5088,0.046,0.029,55.44,0.0218201,-0.0326843,0,0,0,0,0,41.58,212.039,3202616
-0.0227661,0.0119019,1.06335,1.09863,-1.77002,45.5933,0.013,0.049,54.75,0.022049,-0.032547,0,0,0,0,0,41.58,212.058,3202631
0.0128174,-0.0765381,1.0448,-0.12207,-1.28174,44.7998,-0.038,-0.032,54.08,0.0222626,-0.0324097,0,0,0,0,0,41.58,212.078,3202646
0.0596313,0.057373,0.982666,0.366211,-2.2583,44.6167,0.096,0.008,53.4,0.0225067,-0.0322723,0,0,0,0,0,41.58,212.098,3202661
0.00604248,0.00299072,1.00183,-1.09863,-1.95312,45.5933,0.02,0.02,52.06,0.0231018,-0.0319824,0,0,0,0,0,41.58,212.118,3202691
0.0564575,-0.0402832,1.01611,-0.488281,-1.0376,45.9595,0.018,-0.045,51.36,0.023407,-0.0318451,0,0,0,0,0,41.58,212.139,3202706
0.00286865,0.00549316,1.01434,-1.15967,-0.915527,45.4712,0.02,0.025,50.67,0.0237427,-0.031723,0,0,0,0,0,41.58,212.158,3202721
-0.0321655,-0.0487671,1.01758,-1.0376,-0.793457,45.3491,-0.044,0.017,49.3,0.0243988,-0.0314636,0,0,0,0,0,41.58,212.186,3202751
0.0497437,0.015564,1.00854,-0.854492,-1.09863,46.7529,0.058,-0.002,48.62,0.024704,-0.0314636,0,0,0,0,0,41.58,212.198,3202766
-0.0258179,-0.0181274,0.99353,-0.183105,-1.09863,45.8984,-0.017,0.031,47.92,0.0250397,-0.0314331,0,0,0,0,0,41.58,212.218,3202781
-0.0114746,0.0098877,0.999023,-0.0610352,-1.83105,46.875,0.012,0.039,46.53,0.0257721,-0.031311,0,0,0,0,0,41.58,212.239,3202811
-0.00274658,-0.0114136,1.00208,0.305176,-2.01416,46.0205,0.002,0.019,45.83,0.0261688,-0.0312042,0,0,0,0,0,41.58,212.258,3202826
-0.0581665,-0.105103,1.03766,-0.671387,-1.2207,45.6543,-0.102,-0.007,44.44,0.0269623,-0.0310822,0,0,0,0,0,41.58,212.283,3202856
0.0700073,0.0603638,1.02954,-0.427246,-1.40381,45.227,0.104,0.022,43.75,0.0273285,-0.0310669,0,0,0,0,0,41.58,212.298,3202871
0.0302124,-0.0211182,1.05249,1.52588,0.305176,45.5322,0.019,-0.008,42.41,0.0281067,-0.0310974,0,0,0,0,0,41.58,212.335,3202901
0.0481567,-0.0599365,1.0235,0,-0.488281,46.814,0.007,-0.049,41.04,0.0281067,-0.0311737,0,0,0,0,0,41.55,212.358,3202931
-0.0357056,-0.0215454,0.993286,-0.488281,-0.732422,46.1426,-0.031,0.033,40.35,0.0280914,-0.0312195,0,0,0,0,0,41.55,212.378,3202946
-0.00189209,-0.0407715,1.01947,-1.77002,-1.28174,47.0581,-0.016,-0.003,39.65,0.0280457,-0.03125,0,0,0,0,0,41.55,212.398,3202961
-0.0308228,-0.0322876,0.96167,-1.77002,-1.64795,48.2178,-0.034,0.019,38.2,0.0280304,-0.0312195,0,0,0,0,0,41.55,212.42,3202991
0.0100708,0.0922241,0.975281,-0.0610352,-2.01416,50.5981,0.074,0.093,37.44,0.0280609,-0.0310974,0,0,0,0,0,41.55,212.439,3203006
-0.00402832,-0.0855103,1.04559,-1.46484,-1.89209,49.8657,-0.044,-0.037,36.69,0.0281067,-0.0309448,0,0,0,0,0,41.55,212.459,3203021
0.00170898,0.0187378,1.03143,-1.46484,-1.70898,49.6216,0.021,0.043,35.2,0.0283203,-0.0306091,0,0,0,0,0,41.55,212.479,3203051
0.039856,-0.0379639,1.03064,-1.40381,-0.915527,48.1567,0.02,-0.024,34.47,0.0284882,-0.0304108,0,0,0,0,0,41.55,212.498,3203066
-0.0238647,-0.0065918,0.985657,-0.854492,-1.0376,46.3867,-0.015,0.036,33.77,0.028656,-0.0302124,0,0,0,0,0,41.55,212.518,3203081
-0.0255127,-0.0661011,1.0238,0.305176,0.305176,45.7764,-0.048,-0.011,32.38,0.029068,-0.0297546,0,0,0,0,0,41.55,212.539,3203112
0.0222778,0.0187988,0.995911,0,-1.28174,46.6919,0.036,0.033,31.69,0.0292664,-0.0295105,0,0,0,0,0,41.55,212.562,3203126
0.0328369,0.0155029,0.942749,-0.976562,-1.77002,47.2412,0.043,0.024,30.97,0.0295258,-0.0292358,0,0,0,0,0,41.55,212.579,3203141
-0.0196533,-0.0536499,1.04047,0,-1.0376,47.2412,-0.035,-0.006,29.57,0.0300598,-0.0285339,0,0,0,0,0,41.55,212.599,3203172
-0.00793457,-0.0314331,0.994385,-0.976562,-1.46484,47.1802,-0.015,0.006,28.86,0.0302734,-0.0281677,0,0,0,0,0,41.55,212.621,3203186
0.00372314,-0.050293,1.0661,-0.244141,-1.52588,47.5464,-0.013,-0.013,27.44,0.0308075,-0.0272675,0,0,0,0,0,41.55,212.641,3203216
0.0372925,0.0174561,1.02216,0.12207,-0.976562,48.5229,0.047,0.029,26.72,0.0311127,-0.0267944,0,0,0,0,0,41.55,212.658,3203232
0.0418091,0.0147095,0.959167,0.427246,-1.52588,46.9971,0.049,0.023,26,0.0314789,-0.0262756,0,0,0,0,0,41.55,212.678,3203246
0.0673828,0.0105591,1.04327,-0.244141,-1.28174,48.0957,0.07,0.012,25.28,0.0319214,-0.0257416,0,0,0,0,0,41.55,212.699,3203261
0.00012207,0.00738525,1.00281,-1.09863,-1.34277,46.9971,0.007,0.037,23.86,0.032959,-0.0245514,0,0,0,0,0,41.55,212.718,3203292
0.0424805,0.0512085,1.0116,-0.976562,-0.549316,47.1191,0.063,0.061,23.14,0.0335388,-0.0238647,0,0,0,0,0,41.55,212.74,3203306
0.02771,0.00549316,1.03448,-0.915527,-1.70898,47.0581,0.031,0.026,22.44,0.0341797,-0.0231171,0,0,0,0,0,41.55,212.758,3203321
-0.0292358,-0.0639648,1.02417,0.793457,-0.793457,47.4243,-0.047,-0.018,21.01,0.0355377,-0.0214233,0,0,0,0,0,41.55,212.778,3203352
0.0169067,0.0319214,1.01111,0.12207,-1.77002,48.5229,0.029,0.054,20.29,0.0362091,-0.0205383,0,0,0,0,0,41.55,212.799,3203366
0.0317383,-0.0872192,1.10303,-1.34277,-1.34277,48.2178,0.004,-0.059,18.86,0.0375671,-0.0186157,0,0,0,0,0,41.55,212.82,3203396
-0.0122681,-0.0740967,1.03217,-1.77002,-1.95312,47.4853,-0.033,-0.035,18.13,0.0382233,-0.0177307,0,0,0,0,0,41.55,212.842,3203412
0.0179443,0.0635986,0.96936,-0.488281,-2.31934,46.3867,0.037,0.085,17.44,0.0388794,-0.0167999,0,0,0,0,0,41.56,212.859,3203426
0.0394897,0.0248413,0.983887,0.610352,-2.31934,45.7764,0.045,0.042,16.76,0.0395966,-0.0157928,0,0,0,0,0,41.56,212.879,3203441
0.003479,-0.024292,1.008,0.549316,-1.0376,45.5322,-0.003,0.006,15.38,0.041153,-0.0147705,0,0,0,0,0,41.56,212.898,3203472
0.0163574,-0.0598145,1.04315,-0.671387,-0.976562,46.0205,0,-0.03,14.69,0.041153,-0.0147858,0,0,0,0,0,41.56,212.919,3203486
0.0391235,-0.0114746,1.00885,-0.793457,-0.305176,46.0815,0.033,0.009,14,0.0411682,-0.0148163,0,0,0,0,0,41.56,212.939,3203501
0.015625,-0.0100098,0.999451,-1.89209,-0.183105,46.6919,0.011,0.017,12.62,0.0412598,-0.0148315,0,0,0,0,0,41.56,212.958,3203532
-0.0261841,-0.00610352,0.961914,-0.610352,-0.976562,46.875,-0.028,0.028,11.91,0.0412903,-0.014801,0,0,0,0,0,41.56,212.979,3203546
0.0455933,0.0612183,0.96936,0.488281,-1.34277,48.2788,0.055,0.08,11.2,0.0413513,-0.0146942,0,0,0,0,0,41.56,212.998,3203562
0.0374146,-0.0336304,1.06696,-0.366211,-0.671387,47.9126,0.029,-0.007,9.75,0.0414886,-0.0144348,0,0,0,0,0,41.56,213.018,3203592
-0.0103149,-0.038147,1.00165,-2.0752,-1.52588,48.0347,-0.018,-0.005,8.33,0.0415649,-0.0143127,0,0,0,0,0,41.56,213.052,3203622
0.0512085,0.108643,0.918274,-1.40381,-2.13623,46.936,0.062,0.129,7.62,0.0415955,-0.0142212,0,0,0,0,0,41.56,213.062,3203637
0.0511475,0.0714722,1.00409,-1.28174,-2.44141,47.0581,0.055,0.095,6.92,0.0417023,-0.0139923,0,0,0,0,0,41.56,213.078,3203652
-0.0175171,0.0119629,1.02734,-0.244141,0,46.5698,-0.02,0.044,6.21,0.0418396,-0.0136566,0,0,0,0,0,41.56,213.098,3203667
0.00994873,-0.0307007,1.02917,-0.671387,-0.366211,46.3867,0.002,0,5.52,0.0419617,-0.0132904,0,0,0,0,0,41.56,213.118,3203682
-0.0216675,-0.0249023,0.986572,-1.64795,-0.610352,45.9595,-0.028,0.006,4.11,0.0422516,-0.0124359,0,0,0,0,0,41.56,213.139,3203712
0.0129395,-0.00128174,1.00745,-2.13623,-0.12207,47.2412,0.008,0.029,3.41,0.0423889,-0.0119629,0,0,0,0,0,41.56,213.158,3203727
-0.0166016,0.0252075,1.01562,-2.56348,-0.854492,46.2646,-0.02,0.057,2.72,0.0425262,-0.0114441,0,0,0,0,0,41.56,213.178,3203742
-0.00811768,0.101318,0.954285,0.0610352,-1.58691,47.1191,-0.01,0.131,1.3,0.0428314,-0.0101471,0,0,0,0,0,41.56,213.198,3203772
-0.00701904,-0.0688477,1.04291,0.12207,-1.28174,47.5464,-0.012,-0.035,0.6,0.0428314,-0.00939941,0,0,0,0,0,41.56,213.218,3203787
0.0161133,-0.0591431,1.05524,-1.09863,-1.95312,48.645,0.011,-0.025,-0.85,0.0427551,-0.00793457,0,0,0,0,0,41.56,213.242,3203817
-0.000610352,-0.0454102,1.02954,-1.2207,-1.58691,48.5229,-0.005,-0.012,-1.58,0.0427246,-0.00724792,0,0,0,0,0,41.56,213.258,3203832
-0.0206299,-0.0432129,0.985718,-1.52588,-2.2583,47.8516,-0.025,-0.012,-2.3,0.0426636,-0.00656128,0,0,0,0,0,41.56,213.278,3203847
0.039978,-0.00421143,0.950317,-0.671387,-1.40381,47.6074,0.033,0.028,-3.02,0.0426178,-0.00587463,0,0,0,0,0,41.56,213.298,3203862
0.0335693,0.0349121,0.995178,-0.366211,-0.976562,47.9126,0.023,0.069,-4.45,0.0426331,-0.00422668,0,0,0,0,0,41.56,213.318,3203892
-0.0130615,-0.0287476,1.01086,0.488281,0,47.9736,-0.018,0.002,-5.18,0.0426636,-0.0032959,0,0,0,0,0,41.56,213.339,3203907
0.0415649,0.00836182,1.01965,-0.366211,0,48.3398,0.032,0.044,-5.9,0.0427094,-0.00234985,0,0,0,0,0,41.56,213.358,3203922
-0.0499268,-0.0309448,1.0271,-0.549316,0.183105,47.4243,-0.054,-0.004,-7.32,0.0427551,-0.000320435,0,0,0,0,0,41.56,213.378,3203952
0.0345459,-0.027771,1.02557,-1.15967,-0.793457,46.9971,0.029,0.01,-8.03,0.0427246,-0.000320435,0,0,0,0,0,41.56,213.4,3203967
0.0286865,-0.0187378,0.984253,-0.854492,-2.31934,47.0581,0.022,0.017,-8.74,0.0427399,-0.000320435,0,0,0,0,0,41.56,213.418,3203982
-0.0579834,-0.104492,1.02734,1.77002,-0.488281,46.2646,-0.048,-0.081,-10.11,0.0426331,-0.00038147,0,0,0,0,0,41.56,213.44,3204012
0.079834,0.00012207,0.998901,0.671387,-2.13623,46.5088,0.068,0.045,-10.81,0.0425568,-0.000457764,0,0,0,0,0,41.56,213.465,3204027
-0.0219116,-0.105042,1.00818,-0.305176,-1.95312,45.3491,-0.01,-0.076,-11.49,0.0425262,-0.000549316,0,0,0,0,0,41.56,213.478,3204042
0.00866699,-0.0176392,0.997681,-1.34277,-1.34277,47.9126,0.002,0.014,-12.91,0.0425262,-0.000778198,0,0,0,0,0,41.56,213.498,3204072
0.029541,-0.00848389,0.998535,-1.95312,-1.46484,48.8281,0.019,0.028,-13.63,0.0425262,-0.000854492,0,0,0,0,0,41.56,213.518,3204087
-0.0264282,-0.0228882,1.01654,-0.610352,-1.2207,49.8657,-0.031,0.001,-14.37,0.042511,-0.000915527,0,0,0,0,0,41.56,213.539,3204102
-0.0170898,0.00738525,0.991516,0.793457,-0.732422,48.645,-0.03,0.031,-15.86,0.0424652,-0.000839233,0,0,0,0,0,41.56,213.558,3204132
0.0264893,-0.0466309,1.04297,-0.915527,-1.70898,50.8423,0.026,-0.006,-16.62,0.0424347,-0.000762939,0,0,0,0,0,41.56,213.58,3204147
-0.00927734,0.0098877,0.998169,-1.2207,-1.83105,50.415,-0.024,0.035,-17.38,0.0424042,-0.000656128,0,0,0,0,0,41.56,213.598,3204162
0.0112305,0.0169067,1.03632,-0.488281,-2.86865,49.5605,-0.009,0.048,-18.88,0.0423584,-0.000152588,0,0,0,0,0,41.56,213.619,3204192
0.0020752,0.00299072,1.02618,0.671387,-2.19727,49.6826,-0.013,0.031,-19.63,0.0423584,0.000183105,0,0,0,0,0,41.56,213.639,3204207
0.0100708,-0.069458,1.0354,0.610352,-1.15967,49.1333,0.018,-0.033,-20.37,0.0423584,0.000534058,0,0,0,0,0,41.56,213.66,3204222
0.032959,0.0631714,1.00378,-1.52588,-2.01416,48.2788,-0.008,0.097,-21.84,0.0424194,0.00125122,0,0,0,0,0,41.56,213.678,3204252
-0.0168457,-0.0605469,1.01685,-1.58691,-1.64795,47.7295,-0.008,-0.035,-22.55,0.04245,0.00169373,0,0,0,0,0,41.56,213.699,3204267
0.0595093,-0.00402832,1.04547,-0.915527,-1.09863,47.0581,0.038,0.047,-23.26,0.0424805,0.00212097,0,0,0,0,0,41.56,213.719,3204282
0.0592041,0.00897217,1.00018,0.0610352,-1.09863,47.7295,0.032,0.058,-24.67,0.0425568,0.00294495,0,0,0,0,0,41.56,213.741,3204312
-0.0162964,0.0128784,1.00153,0.305176,-1.70898,47.3633,-0.037,0.03,-25.39,0.0425873,0.00341797,0,0,0,0,0,41.56,213.759,3204327
-0.0291138,-0.0834961,1.05304,1.40381,-0.183105,48.645,-0.007,-0.06,-26.1,0.0426025,0.00386047,0,0,0,0,0,41.56,213.779,3204342
0.0461426,-0.0230103,0.993835,-1.09863,-2.2583,48.5229,0.033,0.025,-27.55,0.0426331,0.00448608,0,0,0,0,0,41.56,213.799,3204372
-0.0513916,-0.0310059,0.986694,0.366211,-2.19727,48.4009,-0.048,-0.027,-28.28,0.0426483,0.004776,0,0,0,0,0,41.56,213.818,3204387
0.0140991,-0.0609131,1.02051,-0.732422,-2.62451,49.6216,0.022,-0.021,-29.01,0.0426636,0.00502014,0,0,0,0,0,41.56,213.842,3204402
-0.00213623,-0.0813599,1.02448,0.366211,-2.38037,49.7436,0.019,-0.047,-30.49,0.0427551,0.00549316,0,0,0,0,0,41.56,213.858,3204433
-0.00183105,-0.0557251,1.01843,0.915527,-1.64795,49.1333,0.007,-0.025,-31.23,0.0427551,0.00566101,0,0,0,0,0,41.55,213.879,3204447
0.0298462,-0.0514526,1.0177,0.793457,-1.95312,48.0347,0.032,-0.005,-31.96,0.0427856,0.0058136,0,0,0,0,0,41.55,213.898,3204462
-0.00909424,-0.034668,0.954712,-1.2207,-1.40381,46.4478,-0.008,-0.013,-33.39,0.0429535,0.0058136,0,0,0,0,0,41.55,213.919,3204493
0.0557861,-0.0393066,1.0163,-1.64795,-0.732422,47.1191,0.046,0.02,-34.09,0.0430756,0.0058136,0,0,0,0,0,41.55,213.939,3204507
-0.00726318,-0.0407715,1.05994,-2.0752,-0.854492,46.0205,-0.005,-0.014,-34.79,0.0432129,0.0058136,0,0,0,0,0,41.55,213.958,3204522
-0.0342407,0.038208,0.957581,0.244141,-0.732422,45.6543,-0.071,0.03,-36.17,0.0434418,0.00596619,0,0,0,0,0,41.55,213.979,3204553
0.050415,0.00128174,1.04181,0.244141,-1.34277,46.5088,0.016,0.053,-36.87,0.0434875,0.00613403,0,0,0,0,0,41.55,213.999,3204567
-0.0526733,-0.00219727,1.02191,0.305176,-1.15967,46.4478,-0.063,-0.012,-37.57,0.0435028,0.0063324,0,0,0,0,0,41.55,214.019,3204582
-0.0384521,-0.010498,1.03058,-0.549316,-2.19727,49.1333,-0.046,-0.011,-39.02,0.0434265,0.00674438,0,0,0,0,0,41.55,214.04,3204613
-0.00738525,-0.0263062,1.01642,-0.793457,-3.23486,50.293,-0.012,-0.004,-39.77,0.0433502,0.00695801,0,0,0,0,0,41.55,214.058,3204627
0.0397339,0.0576782,1.03662,0.0610352,-3.90625,51.5137,-0.032,0.088,-41.31,0.0430908,0.0075531,0,0,0,0,0,41.55,214.089,3204657
0.0145874,-0.0170288,0.963867,-0.732422,-2.99072,51.5747,-0.001,0.014,-42.09,0.0429382,0.00798035,0,0,0,0,0,41.55,214.099,3204673
0.000671387,0.0231323,0.985229,0.244141,-3.05176,51.1475,-0.039,0.034,-42.86,0.0427399,0.00843811,0,0,0,0,0,41.55,214.119,3204687
0.03479,0.0211182,1.01746,-0.671387,-2.44141,51.2695,-0.015,0.055,-43.63,0.042511,0.00895691,0,0,0,0,0,41.55,214.139,3204702
0.0467529,0.0337524,1.03333,-0.12207,-2.19727,51.3306,-0.017,0.073,-45.16,0.0419464,0.0101318,0,0,0,0,0,41.55,214.159,3204733
-0.0345459,-0.0585327,1.0014,-0.610352,-1.15967,51.2695,-0.008,-0.05,-45.92,0.041626,0.0107422,0,0,0,0,0,41.55,214.178,3204747
0.0380249,0.0525513,0.978088,0.0610352,-2.0752,51.8799,-0.038,0.077,-46.7,0.0412903,0.0113831,0,0,0,0,0,41.55,214.2,3204762
-0.0158691,0.0429688,1.01965,0.488281,-1.40381,51.4526,-0.069,0.03,-48.23,0.0405273,0.0126801,0,0,0,0,0,41.55,214.219,3204793
-0.00671387,-0.0286865,0.984009,0.732422,-1.58691,49.2554,-0.009,-0.011,-48.97,0.0400848,0.0133362,0,0,0,0,0,41.55,214.241,3204807
0.0511475,-0.0369873,1.04047,-0.427246,-1.70898,50.1709,0.033,0.027,-49.72,0.0396423,0.0140076,0,0,0,0,0,41.55,214.259,3204822
0.0126953,0.0496216,0.98938,0.488281,-2.86865,50.4761,-0.058,0.052,-51.23,0.0387115,0.0153503,0,0,0,0,0,41.55,214.277,3204853
0.0437012,0.00280762,1.0304,0.915527,-2.44141,50.415,-0.004,0.046,-51.99,0.0381775,0.0160828,0,0,0,0,0,41.55,214.298,3204867
-0.0407104,-0.0769653,1.04388,0.610352,-2.13623,50.4761,0.007,-0.068,-52.74,0.0376434,0.0168152,0,0,0,0,0,41.55,214.318,3204882
0.0479736,-0.00146484,1.00763,-0.305176,-3.66211,48.8892,0,0.046,-54.21,0.0376434,0.0183563,0,0,0,0,0,41.55,214.338,3204913
0.0198975,-0.00415039,1.04004,-0.305176,-3.479,48.9502,-0.015,0.021,-54.97,0.0376434,0.0192108,0,0,0,0,0,41.55,214.358,3204927
-0.0283203,-0.0513916,0.981934,-0.305176,-2.99072,48.4009,-0.002,-0.045,-55.7,0.0376434,0.02005,0,0,0,0,0,41.55,214.379,3204943
-0.03479,0.0098877,1.01801,2.31934,-2.80762,48.8892,-0.057,-0.019,-57.17,0.0375824,0.0218506,0,0,0,0,0,41.57,214.398,3204973
-0.00372314,-0.0706177,1.05035,2.01416,-2.50244,49.0112,0.027,-0.036,-57.91,0.0375214,0.0227356,0,0,0,0,0,41.57,214.424,3204988
0.0519409,-0.0391235,0.999451,1.95312,-2.38037,48.4619,0.031,0.026,-59.37,0.0374298,0.0246124,0,0,0,0,0,41.57,214.443,3205018
-0.00219727,0.00341797,0.97821,2.0752,-2.62451,46.9971,-0.031,0,-60.08,0.0373993,0.0256042,0,0,0,0,0,41.57,214.458,3205033
0.0617676,-0.0193481,1.00879,1.77002,-1.40381,47.9126,0.018,0.044,-60.8,0.0373535,0.0266266,0,0,0,0,0,41.57,214.479,3205048
0.0105591,0.00390625,1.03461,1.34277,-1.28174,47.4243,-0.027,0.01,-61.52,0.0372925,0.0276794,0,0,0,0,0,41.57,214.499,3205063
0.0055542,-0.0122681,1.01514,1.64795,-1.28174,48.1567,-0.014,-0.002,-62.95,0.0371552,0.029892,0,0,0,0,0,41.57,214.518,3205093
0.0431519,-0.019043,1.05151,1.2207,-0.854492,49.3164,0.008,0.027,-63.68,0.0371552,0.0310211,0,0,0,0,0,41.57,214.538,3205108
-0.0125732,0.0443115,1.00073,2.13623,-1.15967,48.2788,-0.071,0.004,-64.42,0.0371094,0.0321808,0,0,0,0,0,41.57,214.558,3205123
-0.00140381,0.0273438,0.993469,2.92969,-1.89209,50.293,-0.05,0.005,-65.92,0.0368652,0.0333405,0,0,0,0,0,41.57,214.578,3205153
-0.0150757,-0.0869141,1.04175,1.52588,-2.50244,51.3916,0.048,-0.053,-66.69,0.0367279,0.0333099,0,0,0,0,0,41.57,214.599,3205168
0.0460815,0.0860596,1.02002,2.80762,-2.13623,51.5747,-0.086,0.069,-67.47,0.0365448,0.0332947,0,0,0,0,0,41.57,214.619,3205183
0.0528564,0.0362549,1.01306,2.80762,-1.58691,50.5981,-0.038,0.054,-69.01,0.0360718,0.033371,0,0,0,0,0,41.57,214.639,3205213
0.0222168,-0.024292,1.04224,2.19727,-1.46484,49.1943,0.006,0.003,-69.76,0.0358124,0.0334625,0,0,0,0,0,41.57,214.659,3205228
0.0687866,0.0135498,1.01453,2.38037,-0.976562,48.584,-0.012,0.059,-70.49,0.0355377,0.0335999,0,0,0,0,0,41.57,214.678,3205243
0.038208,0.00140381,1.01776,2.68555,0.12207,47.4243,-0.01,0.025,-71.91,0.0355377,0.0339813,0,0,0,0,0,41.57,214.699,3205273
0.00354004,0.0167236,1.03455,3.2959,0.183105,46.814,-0.035,-0.003,-72.62,0.0355072,0.0341949,0,0,0,0,0,41.57,214.718,3205288
0.0288696,-0.0255127,1.00891,3.35693,0.549316,47.9126,0.013,0.008,-73.34,0.0354614,0.0344086,0,0,0,0,0,41.57,214.739,3205303
0.00732422,0.020813,0.993408,4.21143,-0.427246,47.1802,-0.035,0,-74.05,0.0354004,0.0344086,0,0,0,0,0,41.57,214.758,3205318
-0.0108032,0.0324707,1.03284,3.479,-1.2207,48.1567,-0.05,-0.014,-75.5,0.0352478,0.0344086,0,0,0,0,0,41.57,214.778,3205348
0.00958252,-0.0390625,1.02374,3.2959,-1.15967,49.1943,0.024,-0.013,-76.22,0.035141,0.0344086,0,0,0,0,0,41.57,214.798,3205363
0.0292358,-0.00714111,1.03979,4.88281,-1.40381,49.8657,0,0.012,-77.72,0.0349274,0.0344086,0,0,0,0,0,41.57,214.819,3205393
0.0462646,0.00854492,1.04413,5.7373,-1.58691,49.6216,-0.01,0.031,-78.47,0.0348053,0.0344391,0,0,0,0,0,41.57,214.841,3205408
0.0251465,-0.0679321,1.01788,4.3335,-2.62451,49.4995,0.061,-0.003,-79.21,0.0347137,0.0344849,0,0,0,0,0,41.57,214.859,3205423
0.0424805,0.0688477,1.00995,1.2207,-1.15967,47.1802,-0.069,0.036,-80.66,0.0346527,0.0345917,0,0,0,0,0,41.57,214.878,3205453
0.0616455,0.0592041,1.03638,-0.488281,-0.976562,46.6919,-0.057,0.051,-81.36,0.0345154,0.034729,0,0,0,0,0,41.55,214.899,3205468
-0.0148315,0.0548096,1.03638,-1.0376,-0.854492,47.3633,-0.064,-0.025,-82.07,0.034317,0.0348663,0,0,0,0,0,41.55,214.919,3205483
0.0367432,-0.00201416,1.01312,-1.58691,-0.793457,47.1191,0,0.018,-83.46,0.0336304,0.0352631,0,0,0,0,0,41.55,214.939,3205513
-0.0352173,0.0983276,1.04694,-0.244141,-0.366211,47.4853,-0.108,-0.043,-84.18,0.0331726,0.0354614,0,0,0,0,0,41.55,214.959,3205528
0.00250244,-0.0374146,1.01508,0.0610352,-0.915527,48.3398,0.031,-0.018,-84.9,0.0326691,0.0356293,0,0,0,0,0,41.55,214.981,3205543
-0.0322876,-0.0202637,1.00055,0.366211,-0.854492,49.7436,0.013,-0.051,-86.39,0.0315704,0.0359955,0,0,0,0,0,41.55,214.998,3205573
0.0631714,-0.0343018,1.06702,-1.28174,-0.854492,50.0488,0.032,0.042,-87.14,0.0310364,0.0361786,0,0,0,0,0,41.55,215.02,3205588
0.013916,0.00341797,1.00208,-2.31934,-1.2207,50.293,-0.008,-0.004,-87.89,0.0305176,0.036377,0,0,0,0,0,41.55,215.038,3205603
0.02771,-0.0429077,1.03467,-1.95312,-0.854492,50.1099,0.036,0.007,-89.39,0.0293427,0.0368652,0,0,0,0,0,41.55,215.058,3205633
0.00622559,0.0200806,1.0047,-0.671387,-1.2207,50.4761,-0.026,-0.013,-90.15,0.0287628,0.0371246,0,0,0,0,0,41.55,215.079,3205648
0.0430908,-0.0267334,0.97699,0.427246,-0.610352,48.584,0.02,0.024,-90.88,0.0281677,0.037384,0,0,0,0,0,41.55,215.098,3205663
-0.0108032,0.0128174,1.05585,0.793457,0,50.1099,-0.018,-0.032,-92.38,0.0270996,0.0379639,0,0,0,0,0,41.55,215.121,3205693
0.0332642,0.0134888,0.997559,0.915527,-1.09863,50.5981,-0.02,0.012,-93.14,0.0265503,0.0382385,0,0,0,0,0,41.55,215.139,3205708
0.0299683,0.0264282,0.984192,0.183105,-1.77002,49.3164,-0.033,0.007,-93.89,0.0259552,0.0385437,0,0,0,0,0,41.55,215.158,3205723
0.0653687,-0.0866699,0.950134,-0.671387,-3.11279,45.7764,0.075,0.053,-95.33,0.024704,0.0391235,0,0,0,0,0,41.55,215.181,3205753
0.0303345,0.0606689,0.974731,-0.671387,-2.62451,47.0581,-0.068,0.002,-96.03,0.0240936,0.0394592,0,0,0,0,0,41.55,215.198,3205768
-0.00305176,0.0541382,1.03662,-0.671387,-1.40381,47.0581,-0.058,-0.032,-96.74,0.0233917,0.0397797,0,0,0,0,0,41.55,215.219,3205783
0.0535889,-0.0270996,0.953003,-0.305176,-1.28174,46.5088,0.015,0.034,-98.13,0.0218811,0.040451,0,0,0,0,0,41.55,215.239,3205814
0.0123291,0.0559082,1.0379,-1.40381,-0.915527,46.0205,-0.061,-0.02,-98.83,0.0210876,0.0408173,0,0,0,0,0,41.55,215.259,3205828
0.0528564,-0.100281,1.0025,-1.28174,-0.305176,44.6777,0.086,0.045,-99.51,0.0203094,0.0411987,0,0,0,0,0,41.55,215.279,3205843
0.0432739,0.0324707,1.02728,-1.28174,-0.0610352,48.3398,-0.044,0.011,-100.93,0.0187988,0.0419922,0,0,0,0,0,41.55,215.299,3205874
0.0369873,0.0187378,1.00006,0.12207,-0.366211,47.1802,-0.03,0.008,-101.64,0.0179596,0.0419922,0,0,0,0,0,41.55,215.32,3205888
0.036377,-0.046814,0.999634,-0.183105,-0.427246,49.6216,0.033,0.021,-102.37,0.0171204,0.0420074,0,0,0,0,0,41.55,215.339,3205903
-0.0289917,0.0648804,1.01349,0.549316,-0.854492,49.7436,-0.06,-0.067,-103.12,0.0162659,0.0419922,0,0,0,0,0,41.55,215.358,3205918
0.0211182,0.0319214,1.05981,-0.427246,-1.58691,51.3306,-0.04,-0.014,-105.42,0.0136108,0.0418701,0,0,0,0,0,41.55,215.388,3205963
0.0211182,0.0319214,1.05981,-0.427246,-1.58691,51.3306,-0.04,-0.014,-105.42,0.0136108,0.0418701,0,0,0,0,0,41.55,215.402,3205963
0.0442505,0.0206299,1.01038,-0.488281,-0.732422,49.6826,-0.036,0.01,-106.91,0.0116882,0.0418701,0,0,0,0,0,41.57,215.419,3205994
0.0166626,0.0861816,1.0625,0.854492,0.427246,49.3164,-0.09,-0.037,-107.66,0.0106354,0.0418549,0,0,0,0,0,41.57,215.44,3206008
0.0733643,-0.0227051,1.06677,0.12207,0.549316,48.8281,-0.004,0.048,-108.38,0.00950623,0.0418396,0,0,0,0,0,41.57,215.458,3206023
-0.00115967,0.027832,1.01685,-0.244141,0.366211,47.4243,-0.027,-0.037,-109.83,0.00947571,0.0418243,0,0,0,0,0,41.57,215.481,3206054
0.0595703,0.0450439,1.03906,-0.549316,0.671387,47.0581,-0.065,0.012,-110.53,0.00938416,0.0417786,0,0,0,0,0,41.57,215.499,3206068
-0.0405884,0.0288086,0.980042,0.549316,-0.244141,47.4243,-0.013,-0.074,-111.23,0.00924683,0.041687,0,0,0,0,0,41.57,215.521,3206083
0.00610352,-0.0394897,1.00763,0.183105,-0.488281,48.8892,0.032,-0.004,-112.68,0.00889587,0.0413513,0,0,0,0,0,41.57,215.542,3206114
0.0169678,-0.00622559,1.00385,-0.427246,-0.793457,49.7436,-0.002,-0.007,-113.42,0.00872803,0.0413513,0,0,0,0,0,41.57,215.563,3206128
-0.00604248,0.0595703,0.994202,0.244141,-1.52588,49.2554,-0.052,-0.055,-114.16,0.00854492,0.0413055,0,0,0,0,0,41.57,215.578,3206143
0.00549316,-0.0012207,0.994324,-0.12207,-1.77002,48.9502,-0.001,-0.02,-115.62,0.00816345,0.0411987,0,0,0,0,0,41.57,215.599,3206174
0.0298462,-0.0487671,0.991577,-0.671387,-0.732422,48.9502,0.03,0.022,-116.36,0.00799561,0.041153,0,0,0,0,0,41.57,215.619,3206188
0.0377197,0.0245972,0.977356,0.305176,-1.09863,49.5605,-0.038,-0.003,-117.09,0.00782776,0.0411072,0,0,0,0,0,41.57,215.638,3206203
0.0901489,-0.0705566,1.0246,-0.244141,-0.976562,49.9268,0.021,0.085,-117.84,0.00764465,0.0411377,0,0,0,0,0,41.57,215.658,3206218
0.0369873,0.00427246,1.03918,-1.52588,0.793457,49.5605,-0.02,0.001,-119.31,0.00718689,0.0412445,0,0,0,0,0,41.57,215.678,3206248
0.0525513,-0.0206909,1.05225,-1.40381,0.915527,48.4619,-0.006,0.026,-120.04,0.00691223,0.0413208,0,0,0,0,0,41.57,215.698,3206263
0.0205688,-0.0215454,1.00714,0.183105,-0.366211,49.4995,0.009,0,-121.52,0.00630188,0.0414429,0,0,0,0,0,41.57,215.719,3206294
-0.0112915,-0.165833,0.975647,-0.732422,-1.15967,49.4385,0.148,0.052,-122.26,0.00608826,0.0415192,0,0,0,0,0,41.57,215.739,3206309
0.0318604,0.0551147,0.991394,0.427246,-1.15967,49.5605,-0.061,-0.03,-123,0.00595093,0.041626,0,0,0,0,0,41.57,215.758,3206324
-0.00140381,-0.0449219,1.00214,-1.40381,-1.58691,48.645,0.04,-0.003,-124.48,0.00549316,0.041687,0,0,0,0,0,41.57,215.778,3206354
0.0188599,0.0101929,1.00549,-1.64795,-2.38037,49.1333,-0.016,-0.018,-125.21,0.0052948,0.041687,0,0,0,0,0,41.57,215.798,3206369
0.0604858,0.0321655,1.00299,-1.15967,-2.31934,48.9502,-0.058,0.001,-125.95,0.0050354,0.041687,0,0,0,0,0,41.57,215.818,3206384
0.0435791,0.0250854,0.974915,-0.0610352,-2.0752,48.9502,-0.043,-0.009,-127.41,0.00462341,0.0417786,0,0,0,0,0,41.57,215.839,3206414
0.026123,0.0245361,1.01337,0.671387,-0.854492,48.8281,-0.031,-0.024,-128.14,0.00439453,0.0418243,0,0,0,0,0,41.57,215.858,3206429
0.0338135,-0.0305786,1.01111,-0.427246,-1.0376,49.4385,0.006,0.015,-128.88,0.00415039,0.0418549,0,0,0,0,0,41.57,215.878,3206444
0.0176392,-0.012085,0.972229,-0.732422,-0.427246,48.8281,0.002,-0.007,-129.62,0.00415039,0.0418854,0,0,0,0,0,41.57,215.898,3206459
0.0284424,-0.0212402,1.05359,-1.52588,-0.671387,47.3633,0.001,0.003,-131.06,0.00402832,0.0418854,0,0,0,0,0,41.57,215.918,3206489
0.0140381,-0.00360107,0.981323,-0.671387,-0.854492,47.8516,-0.002,-0.016,-131.78,0.00395203,0.0418854,0,0,0,0,0,41.57,215.939,3206504
0.0465698,-0.0383301,1.00781,0.427246,-0.12207,47.9126,0,0.029,-133.21,0.00370789,0.0419159,0,0,0,0,0,41.57,215.959,3206534
0.0198364,0.0163574,1.01257,0.488281,-0.732422,46.6309,-0.02,-0.027,-133.92,0.0035553,0.0419464,0,0,0,0,0,41.57,215.978,3206549
0.0776978,0.0393066,1.04535,0.366211,0.427246,45.9595,-0.076,-0.003,-134.6,0.00334167,0.0419464,0,0,0,0,0,41.57,216,3206564
0.0249634,0.0415649,1.01508,-0.183105,-0.854492,46.5088,-0.04,-0.043,-135.98,0.00283813,0.0419312,0,0,0,0,0,41.57,216.019,3206594
0.0265503,0.00933838,1.00891,-0.183105,0,46.6309,-0.019,-0.019,-136.68,0.00253296,0.0418549,0,0,0,0,0,41.57,216.039,3206609
0.0342407,-0.0268555,1.06683,-0.854492,-0.305176,47.4853,0,0.01,-137.38,0.00253296,0.0417786,0,0,0,0,0,41.57,216.059,3206624
0.00189209,0.0960083,1.0174,0.732422,0.244141,47.7905,-0.059,-0.101,-138.11,0.00248718,0.0416412,0,0,0,0,0,41.57,216.078,3206639
0.0389404,-0.0425415,0.996155,0.0610352,-0.976562,48.9502,0.004,0.027,-139.55,0.00239563,0.0412598,0,0,0,0,0,41.57,216.098,3206669
-0.00701904,0.0149536,1.03448,-0.0610352,-0.976562,48.8281,0.002,-0.047,-140.29,0.00239563,0.0410767,0,0,0,0,0,41.57,216.118,3206684
0.0610352,0.0377808,0.976501,0.427246,-1.77002,49.4385,-0.064,-0.02,-141.03,0.00234985,0.0408478,0,0,0,0,0,41.57,216.139,3206699
0.0313721,-0.0391235,1.00653,0.0610352,-1.2207,50.0488,0.006,0.019,-142.53,0.00228882,0.0403748,0,0,0,0,0,41.57,216.159,3206729
0.00939941,0.0386963,1.03589,1.15967,-0.305176,49.8657,-0.022,-0.056,-143.28,0.0022583,0.0401306,0,0,0,0,0,41.57,216.179,3206744
0.10144,0.0169067,1.00574,0.427246,-0.183105,49.9878,-0.083,0.016,-144.02,0.00215149,0.039856,0,0,0,0,0,41.57,216.198,3206759
0.0618896,-0.0067749,1.07538,0.183105,0.915527,49.4385,-0.037,0.008,-145.49,0.00177002,0.0391846,0,0,0,0,0,41.57,216.218,3206789
0.0477295,0.0654297,1.00745,1.46484,0.366211,49.1333,-0.065,-0.057,-146.23,0.0014801,0.0388031,0,0,0,0,0,41.57,216.238,3206804
0.010437,0.0658569,1.05212,0.915527,1.15967,49.3774,-0.033,-0.08,-147.71,0.000869751,0.0379944,0,0,0,0,0,41.57,216.259,3206834
0.0293579,-0.0285645,1.0304,0.488281,0.366211,49.7436,0,0.01,-148.45,0.000534058,0.0375214,0,0,0,0,0,41.57,216.282,3206849
-0.0285645,0.046875,1.02014,-0.854492,0.732422,49.1333,0.01,-0.083,-149.19,0.000213623,0.0370026,0,0,0,0,0,41.57,216.298,3206864
0.0131226,-0.0667114,1.04614,-0.915527,-0.366211,49.3774,0.032,0.035,-150.67,-0.000579834,0.0356598,0,0,0,0,0,41.57,216.323,3206894
-0.0130615,0.0145264,1.01831,0.915527,-1.0376,48.3398,0.015,-0.046,-151.4,-0.000961304,0.0349579,0,0,0,0,0,41.57,216.339,3206909
0.0519409,-0.00390625,0.986328,1.0376,-1.2207,49.3164,-0.033,0,-152.13,-0.00135803,0.0342102,0,0,0,0,0,41.57,216.359,3206924
0.00689697,0.0162964,1.03625,0.549316,-1.0376,49.8047,-0.001,-0.039,-152.88,-0.00178528,0.0334625,0,0,0,0,0,41.57,216.378,3206939
0.0632935,0.0218506,0.979492,0.488281,-1.28174,49.8657,-0.055,-0.018,-154.38,-0.00270081,0.0317841,0,0,0,0,0,41.57,216.399,3206969
0.0579834,-0.0534058,0.979614,-0.305176,-0.915527,49.3774,-0.018,0.046,-155.13,-0.00325012,0.0309448,0,0,0,0,0,41.57,216.419,3206984
0.0649414,-0.00952148,1.01453,-0.366211,0.0610352,39.978,-0.042,0.008,-156.44,-0.00430298,0.0293274,0,0,0,0,0,41.57,216.439,3207014
0.0438843,0.0406494,0.970337,-0.0610352,0.366211,36.8652,-0.043,-0.045,-156.99,-0.00489807,0.0284882,0,0,0,0,0,41.57,216.458,3207029
0.0261841,0.0753174,1.03107,0.610352,1.0376,34.5459,-0.039,-0.085,-157.52,-0.0055542,0.0275726,0,0,0,0,0,41.57,216.48,3207044
0.00421143,-0.0383911,1.02075,-0.610352,-0.244141,31.8603,0.023,0.012,-158.47,-0.00688171,0.0257263,0,0,0,0,0,41.57,216.498,3207074
-0.0032959,0.131531,1.0097,1.58691,0.244141,30.5786,-0.03,-0.148,-158.94,-0.0075531,0.0247498,0,0,0,0,0,41.57,216.518,3207089
-0.0205688,-0.0430908,1.01764,1.0376,0.183105,29.0527,0.048,0.009,-159.38,-0.00820923,0.0236664,0,0,0,0,0,41.57,216.538,3207104
0.0239868,-0.0150146,0.972473,-1.70898,-0.244141,20.6299,-0.003,0,-160.13,-0.00947571,0.0213928,0,0,0,0,0,41.57,216.559,3207135
-0.0391235,-0.000549316,1.01227,-2.44141,-1.40381,21.9727,0.05,-0.035,-160.45,-0.0101013,0.0202179,0,0,0,0,0,41.57,216.577,3207149
0.00158691,0.147949,1.0578,-0.671387,0,19.8975,-0.035,-0.162,-160.77,-0.0106964,0.0189056,0,0,0,0,0,41.57,216.598,3207164
0.0360107,-0.0356445,1.0282,0.183105,-0.305176,17.7002,-0.007,0.022,-161.04,-0.0113373,0.0174866,0,0,0,0,0,41.57,216.619,3207179
0.00610352,0.0739136,1.03351,0.549316,0.427246,15.3198,-0.013,-0.09,-161.56,-0.0126953,0.0145111,0,0,0,0,0,41.57,216.638,3207209
0.0197144,0.0379639,1.00055,0.488281,0.732422,15.564,-0.015,-0.05,-161.79,-0.0134125,0.0128632,0,0,0,0,0,41.57,216.658,3207224
0.0343018,0.106873,1.00964,-1.09863,-0.0610352,11.8408,-0.05,-0.112,-162.23,-0.0148468,0.00952148,0,0,0,0,0,41.57,216.678,3207255
0.003479,0.043457,1.0199,-1.46484,0.0610352,10.437,-0.001,-0.061,-162.38,-0.0156097,0.00770569,0,0,0,0,0,41.57,216.698,3207269
-0.0115967,0.111877,1.03461,-2.01416,0.244141,9.39941,-0.007,-0.132,-162.54,-0.0156097,0.00576782,0,0,0,0,0,41.57,216.718,3207284
0.0420532,0.0997925,1.03772,-1.34277,-0.366211,3.90625,-0.055,-0.104,-162.62,-0.0156555,0.00366211,0,0,0,0,0,41.57,216.739,3207299
-0.00665283,0.0454102,0.959717,-0.732422,-0.793457,2.38037,0.006,-0.065,-162.71,-0.0156708,-0.000686646,0,0,0,0,0,41.57,216.76,3207329
0.0222778,0.0236816,0.999451,0,-0.488281,0.732422,-0.014,-0.036,-162.73,-0.0156708,-0.00294495,0,0,0,0,0,41.57,216.779,3207344
0.0110474,0.0118408,0.965332,-0.305176,-0.793457,0.366211,0,-0.028,-162.75,-0.0156708,-0.00753784,0,0,0,0,0,41.57,216.799,3207375
0.0183716,0.0181274,0.934082,-1.40381,0,-0.0610352,-0.009,-0.031,-162.75,-0.0156708,-0.0098877,0,0,0,0,0,41.57,216.819,3207389
-0.0010376,-0.129211,1.04108,-3.11279,0.427246,0.610352,0.053,0.101,-162.76,-0.0156403,-0.0121918,0,0,0,0,0,41.57,216.839,3207404
-0.0161743,0.0790405,1.07373,-0.915527,0,-0.183105,0.006,-0.103,-162.75,-0.0155792,-0.0144958,0,0,0,0,0,41.57,216.857,3207419
0.0223389,-0.0253906,0.979858,-1.46484,0.671387,-3.66211,-0.001,0.009,-162.69,-0.0155029,-0.016861,0,0,0,0,0,41.57,216.878,3207449
-0.0215454,-0.0140381,1.11255,-1.34277,0.854492,-5.12695,0.038,-0.017,-162.63,-0.0154724,-0.016861,0,0,0,0,0,41.57,216.898,3207464
0.02948,0.0437622,0.973083,-1.2207,-0.305176,-9.46045,-0.029,-0.053,-162.51,-0.0154419,-0.0169067,0,0,0,0,0,41.57,216.918,3207479
-0.00280762,0.0116577,1.08179,-0.915527,1.40381,-15.564,0.011,-0.034,-162.12,-0.0154266,-0.0171661,0,0,0,0,0,41.57,216.938,3207509
-0.0269165,-0.0490723,1.05035,-0.976562,0.610352,-16.6626,0.052,0.016,-161.88,-0.0153809,-0.0173187,0,0,0,0,0,41.57,216.958,3207524
0.0621948,0.0101318,0.903809,-0.549316,-1.09863,-16.6016,-0.052,-0.009,-161.62,-0.0153351,-0.0174866,0,0,0,0,0,41.57,216.978,3207539
-0.0491333,-0.0219116,1.07416,0.183105,0.915527,-14.8315,0.064,-0.017,-161.15,-0.0152283,-0.017868,0,0,0,0,0,41.57,216.998,3207569
0.0222168,-0.00305176,1.04974,0.12207,0.183105,-15.8081,-0.009,-0.011,-160.92,-0.0151215,-0.0180817,0,0,0,0,0,41.57,217.018,3207584
-0.00714111,-0.0392456,1.01837,-0.366211,0.488281,-13.7329,0.029,0.013,-160.49,-0.0150909,-0.0186005,0,0,0,0,0,41.57,217.041,3207615
-0.0307617,-0.0866089,1.12732,-1.64795,0.488281,-12.3901,0.068,0.047,-160.3,-0.0149994,-0.0188141,0,0,0,0,0,41.57,217.058,3207629
0.0223389,0.0535889,0.954773,-0.976562,-0.671387,-11.6577,-0.031,-0.062,-160.12,-0.0148926,-0.019043,0,0,0,0,0,41.57,217.078,3207645
0.0123291,-0.0415039,0.889038,-0.549316,-0.915527,-11.9629,0.01,0.024,-159.94,-0.0147858,-0.0193024,0,0,0,0,0,41.57,217.098,3207660
-0.000976562,0.00189209,1.03699,-0.305176,0.366211,-11.1084,0.008,-0.023,-159.6,-0.0144958,-0.0197906,0,0,0,0,0,41.57,217.118,3207690
0.0513306,0.0331421,0.896301,-0.427246,-0.854492,-12.5732,-0.052,-0.031,-159.42,-0.0143738,-0.0200806,0,0,0,0,0,41.57,217.138,3207705
-0.00610352,0.0371704,1.06195,-0.244141,2.01416,-10.6812,0,-0.058,-159.08,-0.0140991,-0.0207825,0,0,0,0,0,41.57,217.158,3207735
0.0231323,-0.0614624,0.976013,-1.15967,0.305176,-12.5732,0.007,0.045,-158.9,-0.0140991,-0.0211639,0,0,0,0,0,41.57,217.181,3207750
-0.00274658,0.0164185,0.938904,-1.46484,0.12207,-12.4512,0.002,-0.035,-158.71,-0.0140991,-0.0215454,0,0,0,0,0,41.57,217.2,3207765
-0.00708008,-0.0440063,0.975281,-0.976562,1.09863,-11.2915,0.028,0.018,-158.54,-0.0140839,-0.0219421,0,0,0,0,0,41.57,217.218,3207780
-0.0196533,0.0384521,0.993469,-1.77002,0.427246,-12.2681,0.008,-0.064,-158.17,-0.0140076,-0.0227509,0,0,0,0,0,41.57,217.239,3207810
0.0150757,-0.00646973,0.93335,-1.64795,0.12207,-11.4746,-0.007,-0.008,-158,-0.0140076,-0.0232391,0,0,0,0,0,41.57,217.259,3207825
-0.0402222,-0.0112305,1.09491,-1.58691,1.0376,-13.1836,0.045,-0.028,-157.81,-0.0139771,-0.0237579,0,0,0,0,0,41.57,217.278,3207840
0.0576172,0.0500488,0.933594,-1.95312,-0.732422,-13.855,-0.069,-0.044,-157.44,-0.0138855,-0.0248566,0,0,0,0,0,41.57,217.299,3207870
-0.0245972,-0.0587769,1.00378,-1.46484,0.488281,-14.4653,0.048,0.022,-157.22,-0.0138702,-0.0254517,0,0,0,0,0,41.57,217.318,3207885
0.0421143,-0.0164185,1.03094,-2.0752,0.12207,-13.1836,-0.03,0.008,-156.85,-0.0137482,-0.0260315,0,0,0,0,0,41.57,217.338,3207915
-0.0065918,-0.0299072,0.943176,-2.01416,0.0610352,-14.7705,0.019,0.002,-156.63,-0.0137024,-0.0260315,0,0,0,0,0,41.57,217.358,3207930
0.00604248,-0.0122681,0.994446,-2.01416,1.52588,-12.3901,0,-0.009,-156.44,-0.0137024,-0.0260315,0,0,0,0,0,41.57,217.378,3207945
0.0206909,-0.0150146,1.13861,-2.19727,1.70898,-12.5732,-0.012,-0.004,-156.26,-0.0137024,-0.0260315,0,0,0,0,0,41.57,217.398,3207960
-0.00811768,0.0177612,0.915283,-1.58691,0.671387,-11.5967,0,-0.041,-155.87,-0.0136108,-0.0260468,0,0,0,0,0,41.57,217.418,3207990
-0.0055542,-0.0187988,1.02313,-1.34277,1.09863,-12.0239,0.011,-0.009,-155.7,-0.0135498,-0.0261078,0,0,0,0,0,41.57,217.438,3208005
-0.0307007,-0.0435791,1.12378,-2.01416,0.671387,-10.498,0.043,0,-155.53,-0.013443,-0.0261688,0,0,0,0,0,41.58,217.459,3208020
0.00939941,-0.0106201,0.960999,-2.2583,-0.732422,-13.2446,-0.006,-0.01,-155.19,-0.0132294,-0.0263672,0,0,0,0,0,41.58,217.479,3208050
-0.122986,-0.0554199,1.10852,-1.09863,1.83105,-16.4185,0.131,-0.03,-154.95,-0.0130463,-0.0265198,0,0,0,0,0,41.58,217.498,3208065
0.0565796,0.0524292,0.976562,-2.62451,0.366211,-15.1367,-0.077,-0.048,-154.72,-0.0128479,-0.0267181,0,0,0,0,0,41.58,217.518,3208080
-0.0285034,0.0261841,1.04144,1.2207,0.793457,-23.1934,0.01,-0.062,-154.09,-0.0126953,-0.0271912,0,0,0,0,0,41.58,217.539,3208110
-0.00268555,-0.0394287,1.04083,0.793457,0.366211,-24.1089,0.016,0.008,-153.74,-0.0126953,-0.0274811,0,0,0,0,0,41.58,217.559,3208125
-0.0393677,0.0349731,0.980286,-0.305176,2.01416,-29.48,0.015,-0.073,-152.89,-0.0126953,-0.0279388,0,0,0,0,0,41.58,217.58,3208155
-0.0308228,0.0159302,1.08057,0.0610352,-0.183105,-31.4331,0.015,-0.055,-152.43,-0.0126953,-0.028244,0,0,0,0,0,41.58,217.599,3208170
-0.000183105,-0.112,1.03015,-0.854492,2.74658,-32.4097,0.048,0.073,-151.95,-0.0126495,-0.0285492,0,0,0,0,0,41.58,217.619,3208185
-0.0407104,-0.0297241,0.899719,-0.610352,-0.244141,-31.0669,0.045,-0.015,-151.47,-0.0125427,-0.0288086,0,0,0,0,0,41.58,217.64,3208200
-0.00500488,-0.0230713,1.00208,-1.09863,1.28174,-30.6396,0.009,-0.007,-150.57,-0.0124054,-0.0288086,0,0,0,0,0,41.58,217.658,3208230
-0.0119629,-0.0194702,1.04974,-0.549316,-0.976562,-29.7852,0.013,-0.015,-150.11,-0.0124054,-0.0288086,0,0,0,0,0,41.58,217.678,3208245
-0.0280762,-0.0390625,1.00574,-1.09863,1.09863,-27.6489,0.037,-0.005,-149.69,-0.0123749,-0.0288086,0,0,0,0,0,41.58,217.698,3208260
0.0440674,-0.0366211,0.997925,-1.46484,0.0610352,-27.5269,-0.025,0.029,-148.84,-0.0121918,-0.0287018,0,0,0,0,0,41.58,217.718,3208290
0.0316772,0.0355225,0.974243,-1.09863,-0.366211,-26.4282,-0.052,-0.038,-148.44,-0.012146,-0.0286102,0,0,0,0,0,41.58,217.742,3208305
0.0010376,-0.0616455,1.08209,-1.15967,0.12207,-27.2217,0.023,0.025,-148.04,-0.0121307,-0.0285492,0,0,0,0,0,41.58,217.758,3208320
0.0244751,0.000854492,1.01575,-1.28174,-0.0610352,-26.9775,-0.029,-0.013,-147.25,-0.0121307,-0.0284424,0,0,0,0,0,41.58,217.779,3208350
-0.0139771,0.0065918,1.02533,0.549316,1.2207,-27.0386,0,-0.039,-146.84,-0.0121765,-0.0284424,0,0,0,0,0,41.58,217.799,3208365
-0.0300903,-0.0457153,0.967041,-0.732422,1.34277,-28.0762,0.042,-0.003,-146.43,-0.0121765,-0.0284729,0,0,0,0,0,41.58,217.818,3208380
-0.0361938,-0.0534058,1.034,-0.671387,1.64795,-27.4658,0.05,-0.002,-145.59,-0.0120087,-0.0285187,0,0,0,0,0,41.58,217.838,3208410
0.0662231,-0.036499,0.945374,-0.915527,-0.366211,-28.8086,-0.043,0.043,-145.17,-0.0118866,-0.0284882,0,0,0,0,0,41.58,217.861,3208425
0.00750732,0.00939941,0.955933,-0.671387,-0.366211,-26.9165,-0.021,-0.027,-144.75,-0.011795,-0.0284424,0,0,0,0,0,41.58,217.878,3208440
-0.0307007,-0.0474243,1.04346,1.52588,1.40381,-28.4424,0.041,-0.005,-143.9,-0.0115814,-0.0284424,0,0,0,0,0,41.58,217.898,3208470
0.0722046,-0.0392456,1.05212,1.28174,1.15967,-27.9541,-0.046,0.048,-143.49,-0.0114594,-0.0284119,0,0,0,0,0,41.58,217.919,3208485
-0.00915527,-0.0144043,0.976562,-0.366211,0.671387,-29.2358,0.005,-0.017,-142.61,-0.0113831,-0.0282898,0,0,0,0,0,41.58,217.946,3208516
0.0316162,0.00543213,1.00049,0.793457,1.34277,-29.2969,-0.039,-0.008,-142.18,-0.0113831,-0.0282898,0,0,0,0,0,41.59,217.961,3208530
-0.0380859,-0.041626,1.05365,-0.488281,1.28174,-29.8462,0.043,-0.015,-141.73,-0.0113678,-0.0282898,0,0,0,0,0,41.59,217.978,3208545
-0.0111084,-0.0634155,1.03192,0.183105,1.83105,-28.8696,0.035,0.019,-141.29,-0.011322,-0.0282898,0,0,0,0,0,41.59,217.998,3208560
-0.0232544,-0.0272827,0.980469,1.83105,0.671387,-29.6631,0.022,-0.015,-140.4,-0.0111237,-0.0281982,0,0,0,0,0,41.59,218.019,3208590
0.00341797,0.000183105,1.0108,1.52588,1.2207,-28.5645,-0.015,-0.019,-139.97,-0.0110168,-0.0281677,0,0,0,0,0,41.59,218.04,3208605
-0.0307007,-0.052124,1.00714,-0.305176,0.427246,-28.9917,0.044,-0.001,-139.53,-0.0108795,-0.0281677,0,0,0,0,0,41.59,218.058,3208620
-0.0200806,-0.0309448,1.04651,0.732422,0.427246,-29.541,0.021,-0.011,-138.69,-0.0106659,-0.0283051,0,0,0,0,0,41.59,218.079,3208650
0.0298462,-0.0333252,1.01929,0.366211,1.34277,-29.1138,-0.013,0.024,-138.24,-0.0105591,-0.0283813,0,0,0,0,0,41.59,218.098,3208665
0.00634766,-0.0379639,1.091,1.58691,0.366211,-27.771,0.006,0.011,-137.4,-0.0102997,-0.0285339,0,0,0,0,0,41.59,218.118,3208696
-0.0250854,-0.0982666,1.0545,2.01416,2.31934,-27.1606,0.071,0.035,-136.99,-0.0101013,-0.0285645,0,0,0,0,0,41.59,218.139,3208710
0.00939941,-0.0357056,0.977905,1.83105,-0.244141,-27.71,0.005,0.014,-136.58,-0.00984192,-0.0285645,0,0,0,0,0,41.59,218.158,3208725
-0.0396729,-0.0787354,1.01324,2.2583,1.28174,-27.71,0.07,0.011,-136.16,-0.009552,-0.0285645,0,0,0,0,0,41.59,218.178,3208740
0.0321045,-0.0687866,1.01099,1.83105,0.183105,-28.6865,0.012,0.054,-135.31,-0.00874329,-0.0285187,0,0,0,0,0,41.59,218.199,3208770
0.000549316,-0.0341187,0.985657,1.70898,1.58691,-29.1748,0.011,0.008,-134.88,-0.00874329,-0.0284424,0,0,0,0,0,41.59,218.218,3208785
0.0130005,-0.0261841,1.05609,1.2207,-0.12207,-30.9448,-0.003,0.011,-134.42,-0.00874329,-0.0283508,0,0,0,0,0,41.59,218.238,3208800
0.00549316,-0.0289307,0.983704,0.427246,1.09863,-31.25,0.005,0.009,-133.49,-0.00881958,-0.0283508,0,0,0,0,0,41.59,218.26,3208830
0.0357056,-0.0120239,1.02057,0.12207,1.34277,-31.25,-0.028,0.019,-133.02,-0.00886536,-0.0283508,0,0,0,0,0,41.59,218.278,3208845
-0.0103149,0.0150757,0.990784,0.305176,2.19727,-31.4331,-0.016,-0.031,-132.55,-0.00895691,-0.0283508,0,0,0,0,0,41.59,218.298,3208860
-0.074585,-0.046875,1.03076,0.854492,2.80762,-30.0293,0.071,-0.038,-131.61,-0.00930786,-0.0285339,0,0,0,0,0,41.59,218.317,3208890
-0.0204468,0.0101929,1.01898,0.305176,0.915527,-30.2734,-0.007,-0.034,-131.16,-0.00944519,-0.0287018,0,0,0,0,0,41.59,218.339,3208905
-0.017395,-0.020752,0.971313,0.671387,1.2207,-28.5034,0.014,-0.011,-130.72,-0.00944519,-0.0289154,0,0,0,0,0,41.59,218.359,3208920
-0.0285645,-0.0356445,1.05334,0.793457,-0.0610352,-29.2358,0.032,-0.01,-129.87,-0.00941467,-0.0293884,0,0,0,0,0,41.59,218.378,3208950
-0.00616455,-0.0322876,1.01117,0,1.15967,-27.3437,0.015,0.005,-129.45,-0.0093689,-0.0296478,0,0,0,0,0,41.59,218.398,3208965
0.00787354,0.0287476,1.04102,-0.183105,-0.732422,-28.6865,-0.041,-0.022,-129.03,-0.00932312,-0.0299225,0,0,0,0,0,41.59,218.418,3208981
0.0172729,-0.0239258,1.01599,0.915527,0.12207,-28.5645,-0.005,0.018,-128.19,-0.0092926,-0.0305328,0,0,0,0,0,41.59,218.439,3209011
-0.00964355,-0.0704956,1.04022,-0.305176,0.427246,-29.541,0.048,0.025,-127.74,-0.00926208,-0.0308075,0,0,0,0,0,41.59,218.458,3209026
-0.00823975,0.0499268,0.997314,0,2.0752,-28.6865,-0.048,-0.046,-127.31,-0.00921631,-0.0310974,0,0,0,0,0,41.59,218.478,3209041
-0.0373535,-0.0438232,0.977905,0.12207,2.38037,-29.1748,0.044,-0.013,-126.41,-0.00927734,-0.0314026,0,0,0,0,0,41.59,218.499,3209071
0.0142212,-0.0218506,0.965759,0.12207,0.366211,-30.2124,-0.003,0.016,-125.97,-0.00927734,-0.0314026,0,0,0,0,0,41.59,218.518,3209086
0.00762939,0.0481567,0.940735,-1.46484,0.549316,-26.7334,-0.057,-0.029,-125.1,-0.00938416,-0.031311,0,0,0,0,0,41.59,218.541,3209116
-0.0968628,0.0368652,0.995056,0.427246,-0.610352,-29.541,0.01,-0.108,-124.67,-0.00949097,-0.0313568,0,0,0,0,0,41.59,218.56,3209131
-0.0574951,-0.0406494,1.08771,0.305176,1.89209,-27.771,0.05,-0.033,-124.24,-0.00956726,-0.0315094,0,0,0,0,0,41.59,218.578,3209146
0.0599365,-0.0933838,1.01343,-0.915527,-0.793457,-28.9917,0.029,0.094,-123.81,-0.00958252,-0.031601,0,0,0,0,0,41.59,218.599,3209161
-0.00891113,0.0361938,1.00085,1.40381,1.0376,-28.1982,-0.039,-0.034,-122.95,-0.009552,-0.0317383,0,0,0,0,0,41.59,218.618,3209191
0.0527344,-0.0279541,1.06726,0.854492,0,-29.3579,-0.019,0.051,-122.51,-0.00958252,-0.0318146,0,0,0,0,0,41.59,218.638,3209206
0.00817871,-0.00653076,0.999756,0.427246,2.13623,-28.8696,-0.012,0.002,-122.08,-0.00958252,-0.0318451,0,0,0,0,0,41.59,218.659,3209221
0.0257568,-0.0405884,1.00903,1.0376,1.0376,-29.1748,0.007,0.036,-121.21,-0.00958252,-0.0318604,0,0,0,0,0,41.59,218.679,3209251
0.0124512,-0.00299072,0.956543,1.28174,1.40381,-29.7241,-0.017,0.005,-120.76,-0.00958252,-0.0318146,0,0,0,0,0,41.59,218.698,3209266
-0.0378418,-0.0383301,1.05133,0.12207,1.34277,-29.7852,0.037,-0.02,-120.31,-0.00956726,-0.0317841,0,0,0,0,0,41.59,218.719,3209281
-0.0106812,-0.0210571,1.02527,-0.549316,0.12207,-30.7617,0.008,-0.004,-119.4,-0.00950623,-0.0317535,0,0,0,0,0,41.59,218.738,3209311
0.019104,0.0144653,0.990967,-0.244141,0.732422,-30.7007,-0.036,0.004,-118.94,-0.00949097,-0.0317535,0,0,0,0,0,41.59,218.758,3209326
-0.0223999,0.128723,1.04938,1.28174,1.09863,-31.8603,-0.118,-0.084,-117.99,-0.00961304,-0.0318298,0,0,0,0,0,41.59,218.781,3209356
-0.0257568,-0.0891724,1.06653,-0.12207,1.83105,-30.8838,0.075,0.013,-117.52,-0.00975037,-0.0319366,0,0,0,0,0,41.59,218.799,3209371
-0.0293579,-0.0144043,1.07245,1.28174,1.0376,-30.0903,0.01,-0.024,-117.07,-0.0098114,-0.0320587,0,0,0,0,0,41.59,218.818,3209386
0.0301514,0.0214844,1.03394,0.915527,1.34277,-29.2358,-0.047,0.013,-116.63,-0.00991821,-0.0321808,0,0,0,0,0,41.59,218.839,3209401
-0.00640869,-0.0488892,1.0155,0.305176,0.610352,-29.7852,0.032,0.012,-115.75,-0.0101624,-0.0323029,0,0,0,0,0,41.59,218.858,3209431
-0.0178223,-0.0488281,1.05902,-0.305176,1.58691,-29.48,0.036,0.001,-115.31,-0.0102386,-0.0323029,0,0,0,0,0,41.59,218.885,3209446
-0.0324097,-0.000915527,1.01721,-0.793457,0.793457,-29.7241,0,-0.031,-114.86,-0.0102844,-0.0323334,0,0,0,0,0,41.59,218.898,3209461
-0.0157471,0.00268555,0.983459,0.488281,0.732422,-29.9683,-0.01,-0.017,-113.98,-0.0102844,-0.0324097,0,0,0,0,0,41.59,218.918,3209491
0.0132446,-0.0283203,1.02667,0.366211,0.976562,-29.2969,0.005,0.021,-113.53,-0.0102844,-0.0324402,0,0,0,0,0,41.59,218.938,3209506
0.00622559,-0.0335083,1.04919,-0.183105,0.915527,-29.602,0.012,0.017,-113.09,-0.0102844,-0.0324554,0,0,0,0,0,41.59,218.959,3209521
0.0170288,0.00970459,0.976013,0.732422,1.70898,-28.3813,-0.029,0.011,-112.21,-0.0102997,-0.0325165,0,0,0,0,0,41.57,218.978,3209551
-0.0055542,-0.0161743,1.09052,0.305176,0.732422,-29.602,0.001,0,-111.78,-0.0103455,-0.0325317,0,0,0,0,0,41.57,218.998,3209566
-0.0588989,-0.034729,1.0434,0.0610352,1.70898,-28.5645,0.038,-0.043,-111.34,-0.0103455,-0.0325928,0,0,0,0,0,41.57,219.018,3209581
-0.00158691,-0.0159302,1.02979,0.0610352,1.46484,-28.4424,0,0.004,-110.07,-0.0103455,-0.0327606,0,0,0,0,0,41.57,219.051,3209626
-0.00158691,-0.0159302,1.02979,0.0610352,1.46484,-28.4424,0,0.004,-110.07,-0.0103455,-0.0327606,0,0,0,0,0,41.57,219.06,3209626
0.00189209,-0.0172119,1.07758,-0.183105,0.12207,-29.541,-0.001,0.007,-109.62,-0.0103455,-0.0328064,0,0,0,0,0,41.57,219.079,3209641
0.0194702,0.0102539,0.99292,-0.671387,0.0610352,-29.1138,-0.031,0.015,-108.79,-0.0102692,-0.0328064,0,0,0,0,0,41.57,219.098,3209671
-0.00891113,-0.0201416,1.02002,-0.366211,0.244141,-28.8086,0.005,-0.001,-108.34,-0.0102386,-0.0328064,0,0,0,0,0,41.57,219.119,3209686
0.0126953,-0.0246582,1.01233,0.427246,1.2207,-27.8931,0.003,0.02,-107.93,-0.0102386,-0.0327911,0,0,0,0,0,41.57,219.139,3209701
0.012146,0.0592041,0.99585,0.12207,2.01416,-28.8086,-0.076,-0.004,-107.05,-0.0102234,-0.0327606,0,0,0,0,0,41.57,219.16,3209731
0.0341797,-0.0858765,1.00824,-0.244141,0.793457,-28.9917,0.056,0.059,-106.62,-0.0102386,-0.0327148,0,0,0,0,0,41.57,219.18,3209746
-0.00274658,-0.0296021,1.0166,1.15967,1.34277,-29.0527,0.013,0.007,-106.18,-0.0102081,-0.0326233,0,0,0,0,0,41.57,219.199,3209761
-0.00189209,-0.0620117,1.05566,1.52588,0.549316,-28.5645,0.044,0.017,-105.32,-0.0100555,-0.0325165,0,0,0,0,0,41.57,219.218,3209791
0.00750732,-0.0100708,0.979858,0.0610352,1.77002,-27.4048,-0.007,0.012,-104.9,-0.00994873,-0.0325165,0,0,0,0,0,41.57,219.238,3209806
-0.0671387,-0.00378418,1.00903,0.183105,-0.0610352,-28.3813,0.004,-0.06,-104.49,-0.00982666,-0.032547,0,0,0,0,0,41.57,219.259,3209821
-0.0183716,-0.0291748,1.02325,0,0.183105,-27.2827,0.017,-0.006,-103.66,-0.00982666,-0.0326843,0,0,0,0,0,41.57,219.278,3209851
-0.0144043,0.00701904,1.04315,0.12207,-0.976562,-27.6489,-0.019,-0.011,-103.25,-0.00982666,-0.0326843,0,0,0,0,0,41.57,219.299,3209866
0.0194092,0.0123291,0.974609,0.549316,0.366211,-27.3437,-0.03,0.02,-102.83,-0.00985718,-0.0326843,0,0,0,0,0,41.57,219.32,3209881
-0.0189819,-0.00366211,1.01074,1.15967,1.83105,-29.2969,-0.006,-0.013,-101.96,-0.010025,-0.0326385,0,0,0,0,0,41.57,219.338,3209911
0.0296631,-0.0305176,1.06067,0.12207,0.610352,-30.1514,0.009,0.039,-101.52,-0.010025,-0.032608,0,0,0,0,0,41.57,219.359,3209926
-0.0134888,0.0150757,0.998962,0.366211,1.52588,-29.6631,-0.025,-0.011,-100.6,-0.0100403,-0.0323944,0,0,0,0,0,41.57,219.386,3209957
0.00177002,-0.0480347,1.05188,0.183105,0.366211,-30.4565,0.032,0.014,-100.15,-0.0100708,-0.0323944,0,0,0,0,0,41.57,219.4,3209971
-0.0432739,-0.0390625,1.00537,-0.366211,1.70898,-29.48,0.031,-0.031,-99.71,-0.0100403,-0.0323944,0,0,0,0,0,41.57,219.418,3209986
0.0229492,0.0209961,0.967102,0.305176,0.366211,-29.2358,-0.037,0.024,-98.83,-0.0100403,-0.0324707,0,0,0,0,0,41.57,219.442,3210017
-0.0221558,-0.00195312,0.990967,0.366211,0.0610352,-30.0293,-0.008,-0.016,-98.39,-0.0101013,-0.0325012,0,0,0,0,0,41.57,219.458,3210031
-0.0012207,-0.0215454,1.04614,-0.0610352,-1.0376,-29.8462,0.007,0.007,-97.93,-0.0101471,-0.0325317,0,0,0,0,0,41.57,219.482,3210046
-0.0204468,-0.00518799,1.01135,0,0.915527,-30.0293,-0.005,-0.014,-97.48,-0.0101471,-0.0325317,0,0,0,0,0,41.57,219.498,3210061
0.00250244,-0.0155029,0.968201,0.183105,1.28174,-30.2124,0.002,0.009,-96.57,-0.0102081,-0.032486,0,0,0,0,0,41.57,219.519,3210091
0.0415039,0.013916,1.00146,0.12207,-0.366211,-30.8228,-0.031,0.044,-96.12,-0.0102539,-0.0324097,0,0,0,0,0,41.57,219.539,3210106
0.0123291,-0.00152588,0.995422,0.12207,0.244141,-31.4331,-0.012,0.017,-95.64,-0.0103455,-0.0322876,0,0,0,0,0,41.57,219.558,3210121
0.0110474,0.0133057,1.05865,-0.671387,0.671387,-29.8462,-0.028,0.015,-94.73,-0.0104828,-0.0320587,0,0,0,0,0,41.57,219.579,3210151
-0.0449219,-0.00799561,1.0036,0.12207,1.64795,-29.7852,-0.002,-0.038,-94.28,-0.0105743,-0.0319672,0,0,0,0,0,41.57,219.6,3210166
-0.0187988,-0.0106201,0.975098,0,0.183105,-30.7617,-0.001,-0.011,-93.82,-0.0105743,-0.0319061,0,0,0,0,0,41.57,219.618,3210181
-0.0160522,0.0181274,0.988892,-1.09863,1.15967,-30.5176,-0.031,-0.01,-92.93,-0.0105591,-0.0317535,0,0,0,0,0,41.57,219.638,3210211
-0.00463867,-0.00842285,1.07074,-0.610352,1.15967,-31.25,-0.006,0.003,-92.46,-0.0105743,-0.0316772,0,0,0,0,0,41.57,219.658,3210226
-0.0175171,-0.00378418,1.04962,0.427246,0.976562,-30.1514,-0.009,-0.009,-92.01,-0.0105743,-0.0316772,0,0,0,0,0,41.57,219.678,3210241
-0.0360107,-0.0222778,1.01691,0.427246,0.610352,-30.1514,0.009,-0.028,-91.07,-0.0105743,-0.0317078,0,0,0,0,0,41.57,219.698,3210271
0.0012207,-0.00549316,0.974487,0.12207,0.488281,-30.3955,-0.007,0.008,-90.62,-0.0105743,-0.0317535,0,0,0,0,0,41.57,219.719,3210286
-0.00622559,0.00238037,1.02307,0.366211,0.610352,-30.6396,-0.015,0.001,-90.16,-0.0105743,-0.0317688,0,0,0,0,0,41.57,219.739,3210301
-0.038208,-0.0413818,1.05554,-0.610352,0.732422,-31.311,0.026,-0.03,-89.24,-0.0105591,-0.0317993,0,0,0,0,0,41.57,219.76,3210332
-0.0144653,0.00714111,0.995422,-1.52588,0.305176,-29.1748,-0.021,-0.005,-88.79,-0.0105438,-0.0318451,0,0,0,0,0,41.57,219.778,3210347
0.00408936,0.088562,0.983521,0.793457,-0.427246,-30.3345,-0.102,0.014,-88.35,-0.0106049,-0.0318909,0,0,0,0,0,41.57,219.798,3210362
0.108276,0.0740967,1.02301,1.46484,-0.305176,-30.2734,-0.081,0.12,-87.45,-0.010788,-0.0319366,0,0,0,0,0,41.57,219.818,3210392
-0.0587769,0.0935669,0.994019,0.915527,0.0610352,-31.0059,-0.108,-0.045,-86.98,-0.0110168,-0.0318756,0,0,0,0,0,41.57,219.838,3210407
-0.00488281,-0.0197754,1.05914,2.62451,0.976562,-31.9824,0.008,0.003,-86.04,-0.0117493,-0.0318298,0,0,0,0,0,41.57,219.866,3210437
-0.0236206,-0.0131836,1.02386,3.2959,1.77002,-31.5552,0.001,-0.015,-85.57,-0.0121155,-0.0318298,0,0,0,0,0,41.57,219.878,3210452
0.0149536,-0.0518188,0.990723,2.2583,1.58691,-33.2642,0.044,0.019,-85.08,-0.0124512,-0.0318298,0,0,0,0,0,41.57,219.898,3210467
-0.0197754,-0.00640869,1.00623,1.52588,0.549316,-32.1655,-0.004,-0.01,-84.58,-0.0127716,-0.0318298,0,0,0,0,0,41.57,219.918,3210482
-0.0345459,-0.0266113,1.0166,1.46484,0.427246,-32.5928,0.014,-0.026,-83.61,-0.013443,-0.0318451,0,0,0,0,0,41.57,219.938,3210512
0.00231934,0.003479,1.00317,1.89209,1.0376,-31.3721,-0.01,0.013,-83.14,-0.0137634,-0.0318756,0,0,0,0,0,41.57,219.958,3210527
-0.045105,-0.0249634,1.05658,1.95312,0,-32.7148,0.012,-0.037,-82.66,-0.0137634,-0.0319061,0,0,0,0,0,41.57,219.979,3210542
0.0078125,-0.00384521,0.957581,1.89209,0.732422,-31.6772,0,0.017,-81.71,-0.0138245,-0.0319977,0,0,0,0,0,41.54,219.998,3210572
-0.00396729,0.00793457,0.992004,2.38037,0.366211,-31.7993,-0.013,0.007,-81.24,-0.0138702,-0.0319977,0,0,0,0,0,41.54,220.018,3210587
0.0065918,0.0315552,1.04956,3.05176,2.31934,-32.0435,-0.034,0.022,-80.75,-0.0139465,-0.0319672,0,0,0,0,0,41.54,220.038,3210602
-0.0132446,0.00311279,0.984985,3.479,1.95312,-31.7993,-0.007,-0.002,-79.78,-0.0140991,-0.0318756,0,0,0,0,0,41.54,220.058,3210632
-0.017334,-0.0221558,0.980652,3.23486,0.976562,-31.8603,0.017,-0.01,-79.31,-0.0140991,-0.0318756,0,0,0,0,0,41.54,220.079,3210647
-0.00164795,0.0280151,1.00806,3.84521,1.0376,-30.8228,-0.028,0.014,-78.84,-0.0141144,-0.0318756,0,0,0,0,0,41.54,220.098,3210662
-0.043396,-0.0404663,1.02344,2.68555,-0.366211,-30.2734,0.031,-0.039,-77.91,-0.0141144,-0.0319214,0,0,0,0,0,41.54,220.118,3210692
-0.00854492,0.0452271,0.962708,3.05176,1.0376,-29.3579,-0.044,0.012,-77.46,-0.0141144,-0.0319824,0,0,0,0,0,41.54,220.139,3210707
-0.0326538,-0.0117188,1.04382,3.479,-0.427246,-30.2124,0.007,-0.022,-77.01,-0.0141296,-0.0320587,0,0,0,0,0,41.54,220.158,3210722
-0.0163574,0.0187988,0.999451,4.5166,-0.488281,-30.0293,-0.016,0,-76.14,-0.0141296,-0.0322113,0,0,0,0,0,41.54,220.178,3210752
-0.0317993,-0.0469971,0.998657,4.02832,-0.366211,-29.1748,0.043,-0.032,-75.69,-0.0141144,-0.0323181,0,0,0,0,0,41.54,220.199,3210767
0.0316162,0.0484619,1.03528,3.84521,-0.12207,-29.2358,-0.03,0.053,-75.26,-0.0140839,-0.0324097,0,0,0,0,0,41.54,220.218,3210782
-0.0222168,0.0350952,1.01526,2.56348,1.15967,-28.0762,-0.03,-0.003,-74.38,-0.0141144,-0.0324402,0,0,0,0,0,41.54,220.239,3210812
-0.0557861,-0.00292969,1.02887,-0.12207,-0.183105,-27.0386,-0.003,-0.045,-73.98,-0.0141602,-0.032486,0,0,0,0,0,41.54,220.258,3210827
0.0130005,0.0592041,1.00531,-0.488281,0.915527,-24.9634,-0.044,0.038,-73.59,-0.0142517,-0.0325165,0,0,0,0,0,41.54,220.278,3210842
-0.00354004,-0.00323486,1.05121,0.12207,-0.610352,-26.6113,0.012,0.004,-72.81,-0.0145416,-0.0324707,0,0,0,0,0,41.54,220.301,3210872
-0.053894,-0.0162964,1.03839,0.610352,0.549316,-25.6348,0.009,-0.047,-72.43,-0.0145416,-0.0324707,0,0,0,0,0,41.54,220.319,3210887
0.00183105,0.0462036,1.00549,-0.244141,-1.28174,-27.6489,-0.033,0.024,-72.02,-0.0145569,-0.0324707,0,0,0,0,0,41.54,220.338,3210902
-0.0257568,-0.00177002,1.04028,1.28174,-0.610352,-28.5645,0.005,-0.016,-71.2,-0.0147095,-0.0323792,0,0,0,0,0,41.54,220.359,3210932
0.000488281,-0.0157471,0.987305,0.12207,0.12207,-30.0293,0.026,0.002,-70.75,-0.0147705,-0.0323334,0,0,0,0,0,41.54,220.378,3210947
0.0445557,0.0165405,0.991943,-0.976562,-0.0610352,-29.3579,0.01,0.055,-70.3,-0.0148163,-0.0322418,0,0,0,0,0,41.54,220.398,3210962
-0.0394897,0.0540771,0.997009,1.2207,1.34277,-32.4097,-0.052,-0.01,-69.36,-0.0149841,-0.0319824,0,0,0,0,0,41.54,220.419,3210992
0.00256348,-0.0110474,1.04926,0.976562,-0.0610352,-33.3862,0.024,0.005,-68.87,-0.0151215,-0.0319824,0,0,0,0,0,41.54,220.439,3211007
-0.0216064,0.0444336,1.01971,1.52588,0.976562,-33.5693,-0.036,0.003,-68.37,-0.0152588,-0.0319824,0,0,0,0,0,41.54,220.459,3211022
0.0130615,0.00152588,0.995117,0.976562,-0.244141,-33.02,0.016,0.019,-67.36,-0.0155334,-0.0319061,0,0,0,0,0,41.54,220.478,3211052
-0.0488281,-0.00231934,0.968811,1.52588,0.671387,-33.4473,-0.003,-0.039,-66.86,-0.0156555,-0.0318604,0,0,0,0,0,41.54,220.498,3211067
-0.0065918,-0.00720215,1.05402,0.305176,0.427246,-34.3018,0.018,-0.001,-66.35,-0.0156555,-0.0318451,0,0,0,0,0,41.58,220.522,3211082
-0.0245972,0.0795898,1.01001,0.366211,0.427246,-31.189,-0.068,0.018,-65.39,-0.0157013,-0.0318298,0,0,0,0,0,41.58,220.539,3211112
0.0619507,0.000366211,0.952454,0.915527,-0.244141,-30.5176,0.039,0.063,-64.93,-0.0157776,-0.0317841,0,0,0,0,0,41.58,220.558,3211127
0.00793457,0.00189209,1.00018,1.95312,-0.183105,-29.7852,0.016,0.015,-64.48,-0.0158081,-0.0316772,0,0,0,0,0,41.58,220.578,3211144
-0.00744629,-0.0261841,0.983337,0,-0.549316,-28.0762,0.035,-0.011,-63.6,-0.0157776,-0.0315857,0,0,0,0,0,41.58,220.599,3211172
-0.0178223,0.0202026,0.993164,0.488281,-0.305176,-29.1748,-0.01,0,-63.16,-0.0157318,-0.0315857,0,0,0,0,0,41.58,220.622,3211187
-0.0236206,-0.0078125,0.994019,0.610352,-0.305176,-27.771,0.011,-0.017,-62.74,-0.0157318,-0.0315857,0,0,0,0,0,41.58,220.639,3211202
-0.0621948,0.0499878,0.998657,0.183105,0.549316,-28.0762,-0.057,-0.024,-61.9,-0.0157623,-0.0314941,0,0,0,0,0,41.58,220.658,3211232
0.0218506,0.0213013,1.06775,-0.427246,1.09863,-27.5269,0.008,0.036,-61.49,-0.0158234,-0.0314331,0,0,0,0,0,41.58,220.678,3211247
-0.0324097,0.0310059,1.00421,0.366211,0,-28.5645,-0.027,-0.006,-61.06,-0.0158997,-0.0313416,0,0,0,0,0,41.58,220.699,3211262
-0.0279541,0.0258179,1.06219,1.09863,0.610352,-29.8462,-0.019,-0.004,-60.2,-0.016098,-0.03125,0,0,0,0,0,41.58,220.719,3211292
0.00494385,0.026123,1.03955,0,1.40381,-28.3813,-0.002,0.023,-59.76,-0.016098,-0.0312347,0,0,0,0,0,41.58,220.739,3211307
-0.0595703,0.170471,0.954285,1.89209,2.0752,-28.0762,-0.161,0.041,-59.35,-0.0162201,-0.0311737,0,0,0,0,0,41.58,220.758,3211322
-0.022644,0.0841064,1.11615,2.01416,1.46484,-27.71,-0.064,0.031,-58.51,-0.0165863,-0.0309143,0,0,0,0,0,41.58,220.779,3211352
-0.0889893,-0.0361328,1.0318,0.671387,-0.183105,-27.9541,0.001,-0.088,-58.09,-0.0168304,-0.0307922,0,0,0,0,0,41.58,220.798,3211367
0.0656738,0.0812988,0.938904,1.52588,0.183105,-27.5879,-0.016,0.104,-57.68,-0.0170746,-0.0306702,0,0,0,0,0,41.58,220.819,3211382
-0.0299683,0.00646973,1.02588,1.95312,-0.671387,-28.2593,-0.002,-0.016,-56.83,-0.0176544,-0.0304718,0,0,0,0,0,41.58,220.839,3211412
0.0152588,0.0245972,0.971436,1.77002,0.183105,-29.1138,0.006,0.03,-56.4,-0.0179596,-0.0304565,0,0,0,0,0,41.58,220.858,3211427
0.0187378,-0.0178833,1.04193,-0.488281,-0.732422,-28.8696,0.045,0.009,-55.96,-0.018219,-0.030426,0,0,0,0,0,41.58,220.878,3211442
0.00701904,0.0194702,1.05426,-0.671387,-1.15967,-29.8462,0.008,0.02,-55.08,-0.0187836,-0.0302429,0,0,0,0,0,41.58,220.898,3211472
-0.0231934,0.0744629,1.04303,0.549316,1.58691,-27.5879,-0.053,0.027,-54.66,-0.019104,-0.0301056,0,0,0,0,0,41.58,220.918,3211487
0.00811768,0.00518799,1.02032,1.15967,-0.12207,-28.8086,0.02,0.012,-54.24,-0.019455,-0.0299377,0,0,0,0,0,41.58,220.939,3211502
0.0010376,0.0640869,1.01837,2.62451,0.427246,-28.8086,-0.029,0.041,-53.38,-0.0200653,-0.029541,0,0,0,0,0,41.58,220.959,3211532
