raw_accel_x,raw_accel_y,raw_accel_z,world_accel_x,world_accel_y,yaw,fused_heading,x,y,z,left_encoder_rate,right_encoder_rate,left_input,right_input,fpga time,navx time
0.0238037,0.0198364,0.943176,0,0,-0.76,359.23,7.62939e-05,-0.000396729,0,0,0,-0.0078125,-0,175.185,204358
0.0238037,0.0198364,0.943176,0,0,-0.76,359.23,7.62939e-05,-0.000396729,0,0,0,-0.0078125,-0,175.194,204358
0.0206909,0.0209961,0.940796,-0.003,0,0,359.99,0,0,0,0,0,-0.0078125,-0,175.213,204388
0.0265503,0.0216064,0.952148,0.001,0,0,0,0,0,0,0,0,-0.0078125,-0,175.231,204403
0.026001,0.0205688,0.933472,0.001,0,0,359.99,0,0,0,0,0,-0.0078125,-0,175.251,204418
0.0244751,0.0234375,0.950562,0,0.002,0,359.99,0,0,0,0,0,-0.0078125,-0,175.271,204448
0.0202637,0.0248413,0.942993,-0.004,0.003,0,359.99,0,0,0,0,0,-0.0078125,-0,175.294,204463
0.0298462,0.0210571,0.958984,0.004,0,0,359.99,0,0,0,0,0,-0.0078125,-0,175.31,204478
0.0240479,0.0181274,0.952698,0,-0.002,0,359.99,0,0,0,0,0,-0.0078125,-0,175.336,204508
0.0264893,0.0202637,0.945618,0.001,0,0,359.99,0,0,0,0,0,-0.0078125,-0,175.352,204523
0.0272217,0.0222778,0.950867,0.002,0.001,0,359.99,0,0,0,0,0,-0.0078125,-0,175.372,204538
0.0223389,0.0257568,0.955383,-0.002,0.004,0,359.99,0,0,0,0,0,-0.0078125,-0,175.424,204598
0.0223389,0.0257568,0.955383,-0.002,0.004,0,359.99,0,0,0,0,0,-0.0078125,-0,175.43,204598
0.0237427,0.0227051,0.947571,0,0.001,0,359.99,0,0,0,0,0,-0.0078125,-0,175.45,204628
0.0263062,0.0205688,0.944397,0.001,0,0,359.99,0,0,0,0,0,-0.0078125,-0,175.47,204643
0.0246582,0.0204468,0.948059,0,0,0,0,0,0,0,0,0,-0.0078125,-0,175.49,204658
0.0227051,0.0217896,0.947388,-0.001,0,0,0,0,0,0,0,0,-0.0078125,-0,175.51,204673
0.0224609,0.0219727,0.943176,-0.002,0.001,0,0,0,0,0,0,0,-0.0078125,-0,175.531,204703
0.0256958,0.0202026,0.953247,0,0,0,0,0,0,0,0,0,-0.0078125,-0,175.55,204718
0.0239868,0.0194702,0.949219,0,-0.001,0,359.99,0,0,0,0,0,-0.0078125,-0,175.571,204748
0.02771,0.0219727,0.94519,0.003,0.001,0,359.99,0,0,0,0,0,-0.0078125,-0,175.59,204763
0.0222778,0.0206909,0.945496,-0.002,0,0,359.99,0,0,0,0,0,-0.0078125,-0,175.611,204778
0.0214233,0.022522,0.944885,-0.003,0.001,0,359.99,0,0,0,0,0,-0.0078125,-0,175.631,204808
0.027771,0.022522,0.96167,0.002,0.001,0,359.99,0,0,0,0,0,-0.0078125,-0,175.65,204823
0.0265503,0.0232544,0.947266,0.001,0.002,0,359.99,0,0,0,0,0,-0.0078125,-0,175.672,204838
0.0272827,0.0178223,0.946777,0.002,-0.003,0,359.99,0,0,0,0,0,-0.0078125,-0,175.691,204868
0.0206909,0.0211792,0.948975,-0.004,0,0,359.99,0,0,0,0,0,-0.0078125,-0,175.711,204883
0.0341797,0.0211792,0.953125,0.009,0,0,359.99,0,0,0,0,0,-0.0078125,-0,175.73,204898
0.0280762,0.0213623,0.948975,0.003,0,0,359.99,0,0,0,0,0,-0.0078125,-0,175.752,204928
0.022583,0.0223389,0.950134,-0.002,0.001,0,359.99,0,0,0,0,0,-0.0078125,-0,175.771,204943
0.0283813,0.0206909,0.936646,0.003,0,0,359.99,0,0,0,0,0,-0.0078125,-0,175.792,204958
0.0224609,0.0222168,0.940979,-0.002,0.001,0,359.99,0,0,0,0,0,-0.0078125,-0,175.81,204988
0.0283203,0.0196533,0.953613,0.003,-0.001,0,359.99,0,0,0,0,0,-0.0078125,-0,175.83,205003
0.0228882,0.0200806,0.947205,-0.001,0,0,359.99,0,0,0,0,0,-0.0078125,-0,175.85,205018
0.0259399,0.0211182,0.942688,0.001,0,0,359.99,0,0,0,0,0,-0.0078125,-0,175.871,205048
0.0250854,0.0197144,0.954834,0,-0.001,0,359.99,0,0,0,0,0,-0.0078125,-0,175.892,205063
0.0263672,0.0192871,0.947571,0.001,-0.001,0,359.99,0,0,0,0,0,-0.0078125,-0,175.911,205078
0.0286865,0.0222778,0.944885,0.004,0.001,0,359.99,0,0,0,0,0,-0.0078125,-0,175.93,205108
0.0231934,0.022583,0.952759,-0.001,0.001,0,359.99,0,0,0,0,0,-0.0078125,-0,175.951,205123
0.0252075,0.0196533,0.955872,0,-0.001,0,359.99,0,0,0,0,0,-0.0078125,-0,175.971,205138
0.0244751,0.0238647,0.959167,0,0.002,0,359.99,0,0,0,0,0,-0.0078125,-0,175.99,205168
0.0273438,0.0217896,0.948059,0.002,0,0,359.99,0,0,0,0,0,-0.0078125,-0,176.012,205183
0.0241699,0.0228271,0.951538,0,0.001,0,359.99,0,0,0,0,0,-0.0078125,-0,176.031,205198
0.0245972,0.0204468,0.948303,0,0,0,359.99,0,0,0,0,0,-0.0078125,-0,176.051,205228
0.0313721,0.0192261,0.941772,0.006,-0.001,0,359.99,0,0,0,0,0,-0.0078125,-0,176.071,205243
0.0204468,0.0257568,0.956604,-0.004,0.004,0,359.99,0,0,0,0,0,-0.0078125,-0,176.09,205258
0.0258179,0.0217896,0.952271,0,0,0,359.99,0,0,0,0,0,-0.0078125,-0,176.11,205288
0.0233765,0.020752,0.94043,-0.001,0,0,359.99,0,0,0,0,0,-0.0078125,-0,176.13,205303
0.0272217,0.0247803,0.954529,0.002,0.003,0,359.99,0,0,0,0,0,-0.0078125,-0,176.15,205318
0.0272217,0.0213623,0.958191,0.002,0,0,359.99,0,0,0,0,0,-0.0078125,-0,176.171,205347
0.0241089,0.0205078,0.942383,0,0,0,359.99,0,0,0,0,0,-0.0078125,-0,176.191,205363
0.0257568,0.0233154,0.957825,0,0.002,0,359.99,0,0,0,0,0,-0.0078125,-0,176.211,205377
0.0211182,0.0245361,0.94574,-0.003,0.003,0,359.99,0,0,0,0,0,-0.0078125,-0,176.23,205407
0.0291748,0.0206909,0.942017,0.004,0,0,359.99,0,0,0,0,0,-0.0078125,-0,176.25,205423
0.0256958,0.0241699,0.946777,0,0.003,0,359.99,0,0,0,0,0,-0.0078125,-0,176.27,205437
0.0229492,0.0211182,0.945801,-0.001,0,0,359.99,0,0,0,0,0,-0.0078125,-0,176.29,205467
0.0238647,0.020752,0.954956,-0.001,0,0,359.99,0,0,0,0,0,-0.0078125,-0,176.31,205483
0.0279541,0.0181274,0.947937,0.003,-0.002,0,359.99,0,0,0,0,0,-0.0078125,-0,176.353,205527
0.0239868,0.0241089,0.94751,0,0.003,0,359.99,0,0,0,0,0,-0.0078125,-0,176.37,205543
0.0296631,0.0184937,0.947083,0.004,-0.002,0,359.99,0,0,0,0,0,-0.0078125,-0,176.39,205557
0.024353,0.0214844,0.947937,0,0,0,359.99,0,0,0,0,0,-0.0078125,-0,176.41,205587
0.0250244,0.0233154,0.945557,0,0.002,0,359.99,0,0,0,0,0,-0.0078125,-0,176.43,205603
0.0239868,0.0202026,0.943542,0,0,0,359.99,0,0,0,0,0,-0.0078125,-0,176.451,205617
0.0212402,0.020752,0.944641,-0.003,0,0,359.99,0,0,0,0,0,-0.0078125,-0,176.471,205647
0.0270996,0.0192871,0.949158,0.002,-0.001,0,359.99,0,0,0,0,0,-0.0078125,-0,176.491,205663
0.0248413,0.0178833,0.953064,0,-0.003,0,359.99,0,0,0,0,0,-0.0078125,-0,176.51,205677
0.0278931,0.0203857,0.949158,0.003,0,0,359.99,0,0,0,0,0,-0.0078125,-0,176.53,205707
0.0236816,0.0234985,0.945679,-0.001,0.002,0,359.99,0,0,0,0,0,-0.0078125,-0,176.55,205723
0.0281372,0.0233154,0.96051,0.002,0.002,0,359.99,0,0,0,0,0,-0.0078125,-0,176.572,205737
0.0252686,0.0214844,0.955627,0,0,0,359.99,0,0,0,0,0,-0.0078125,-0,176.591,205767
0.0255127,0.0236816,0.956543,0,0.002,0,359.99,0,0,0,0,0,-0.0078125,-0,176.61,205783
0.0229492,0.0222778,0.953735,-0.002,0.001,0,359.99,0,0,0,0,0,-0.0078125,-0,176.631,205797
0.0247192,0.0215454,0.946838,0,0,0,359.99,0,0,0,0,0,-0.0078125,-0,176.651,205827
0.026001,0.0203247,0.955078,0,0,0,359.99,0,0,0,0,0,-0.0078125,-0,176.672,205843
0.026123,0.020874,0.950684,0.001,0,0,359.99,0,0,0,0,0,-0.0078125,-0,176.692,205857
0.022522,0.022583,0.943726,-0.002,0.001,0,359.99,0,0,0,0,0,-0.0078125,-0,176.71,205887
0.0240479,0.0212402,0.946716,0,0,0,359.99,0,0,0,0,0,-0.0078125,-0,176.731,205903
0.0276489,0.022522,0.94635,0.002,0.001,-0.01,359.98,0,0,0,0,0,-0.0078125,-0,176.75,205917
0.0235596,0.0220947,0.955994,-0.001,0,0,359.99,0,0,0,0,0,-0.0078125,-0,176.77,205947
0.026001,0.020813,0.949219,0.001,0,0,359.99,0,0,0,0,0,-0.0078125,-0,176.791,205963
0.0269775,0.0176392,0.951782,0.002,-0.003,0,359.99,0,0,0,0,0,-0.0078125,-0,176.811,205977
0.0255737,0.020813,0.944458,0,0,0,359.99,0,0,0,0,0,-0.0078125,-0,176.83,206007
0.0249634,0.0236816,0.94458,0,0.002,0,359.99,0,0,0,0,0,-0.0078125,-0,176.851,206023
0.0286255,0.0187988,0.945496,0.003,-0.002,-0.01,359.98,0,0,0,0,0,-0.0078125,-0,176.87,206037
0.0258179,0.0241089,0.948181,0,0.003,0,359.99,0,0,0,0,0,-0.0078125,-0,176.89,206067
0.0263062,0.0209351,0.958923,0.001,0,0,359.99,0,0,0,0,0,-0.0078125,-0,176.91,206082
0.0228271,0.024231,0.954346,-0.002,0.003,0,359.99,0,0,0,0,0,-0.0078125,-0,176.931,206097
0.0246582,0.0197144,0.945923,0,-0.001,0,359.99,0,0,0,0,0,-0.0078125,-0,176.95,206127
0.0217285,0.0239258,0.950867,-0.003,0.002,-0.01,359.98,0,0,0,0,0,-0.0078125,-0,176.97,206142
0.0256348,0.0185547,0.957153,0,-0.002,-0.01,359.98,0,0,0,0,0,-0.0078125,-0,176.99,206157
0.0283203,0.0206909,0.950012,0.003,0,-0.01,359.98,0,0,0,0,0,-0.0078125,-0,177.011,206187
0.0263672,0.0201416,0.951416,0.001,0,-0.01,359.98,0,0,0,0,0,-0.0078125,-0,177.031,206202
0.0244141,0.0217285,0.944153,0,0,0,359.99,0,0,0,0,0,-0.0078125,-0,177.05,206217
0.0223389,0.0228882,0.945923,-0.002,0.001,0,359.99,0,0,0,0,0,-0.0078125,-0,177.07,206247
0.0275879,0.0204468,0.957764,0.002,0,0,359.99,0,0,0,0,0,-0.0078125,-0,177.09,206262
0.0237427,0.0227661,0.947144,-0.001,0.001,-0.01,359.98,0,0,0,0,0,-0.0078125,-0,177.11,206277
0.0286865,0.0233154,0.947327,0.003,0.002,-0.01,359.98,0,0,0,0,0,-0.0078125,-0,177.13,206307
0.0228271,0.0228271,0.95343,-0.002,0.001,-0.01,359.98,0,0,0,0,0,-0.0078125,-0,177.151,206322
0.0234985,0.0222778,0.947449,-0.001,0.001,-0.01,359.98,0,0,0,0,0,-0.0078125,-0,177.177,206352
0.026001,0.0209961,0.944336,0.001,0,-0.01,359.98,0,0,0,0,0,-0.0078125,-0,177.191,206367
0.0280151,0.0205688,0.953674,0.002,0,-0.02,359.97,0,0,0,0,0,-0.0078125,-0,177.222,206397
0.0280151,0.0205688,0.953674,0.002,0,-0.02,359.97,0,0,0,0,0,-0.0078125,-0,177.231,206397
0.0259399,0.022644,0.949585,0,0.001,-0.02,359.97,0,0,0,0,0,-0.0078125,-0,177.251,206427
0.0266113,0.022644,0.950256,0.001,0.001,-0.02,359.97,0,0,0,0,0,-0.0078125,-0,177.27,206442
0.024292,0.0256348,0.950256,0,0.004,-0.02,359.97,0,0,0,0,0,-0.0078125,-0,177.291,206457
0.0231934,0.0203857,0.94751,-0.001,0,-0.02,359.97,0,0,0,0,0,-0.0078125,-0,177.31,206487
0.0211182,0.020752,0.949036,-0.003,0,-0.02,359.97,0,0,0,0,0,-0.0078125,-0,177.331,206502
0.0246582,0.0203247,0.948242,0,0,-0.02,359.97,0,0,0,0,0,-0.0078125,-0,177.351,206517
0.0233154,0.0182495,0.949524,-0.001,-0.002,-0.02,359.97,0,0,0,0,0,-0.0078125,-0,177.371,206547
0.0263062,0.0193481,0.939209,0.001,-0.001,-0.02,359.97,0,0,0,0,0,-0.0078125,-0,177.391,206562
0.0274048,0.0197754,0.951172,0.002,-0.001,-0.02,359.97,0,0,0,0,0,-0.0078125,-0,177.41,206577
0.0261841,0.0220337,0.960205,0,0,-0.02,359.97,0,0,0,0,0,-0.0078125,-0,177.431,206607
0.0228882,0.0202637,0.950378,-0.002,0,-0.02,359.97,0,0,0,0,0,-0.0078125,-0,177.452,206622
0.026001,0.0217285,0.947266,0,0,-0.02,359.97,0,0,0,0,0,-0.0078125,-0,177.471,206637
0.022644,0.0234375,0.947388,-0.002,0.002,-0.02,359.97,0,0,0,0,0,-0.0078125,-0,177.491,206667
0.0265503,0.0206299,0.947693,0.001,0,-0.02,359.97,0,0,0,0,0,-0.0078125,-0,177.511,206682
0.0231934,0.0217285,0.943176,-0.001,0,-0.02,359.97,0,0,0,0,0,-0.0078125,-0,177.53,206697
0.0223999,0.0202637,0.94751,-0.002,0,-0.02,359.97,0,0,0,0,0,-0.0078125,-0,177.55,206727
0.0272827,0.0233765,0.945557,0.002,0.002,-0.02,359.97,0,0,0,0,0,-0.0078125,-0,177.57,206742
0.022522,0.0199585,0.953064,-0.002,-0.001,-0.02,359.97,0,0,0,0,0,-0.0078125,-0,177.59,206757
0.0251465,0.0183716,0.956543,0,-0.002,-0.02,359.97,0,0,0,0,0,-0.0078125,-0,177.61,206787
0.0270996,0.0221558,0.953186,0.001,0.001,-0.02,359.97,0,0,0,0,0,-0.0078125,-0,177.637,206817
0.0270996,0.0221558,0.953186,0.001,0.001,-0.02,359.97,0,0,0,0,0,-0.0078125,-0,177.65,206817
0.0249634,0.0186157,0.939148,0,-0.002,-0.02,359.97,0,0,0,0,0,-0.0078125,-0,177.695,206862
0.0273438,0.0198975,0.948547,0.002,-0.001,-0.02,359.97,0,0,0,0,0,-0.0078125,-0,177.71,206877
0.0206909,0.0222778,0.953491,-0.004,0.001,-0.02,359.97,0,0,0,0,0,-0.0078125,-0,177.731,206907
0.027771,0.020813,0.94397,0.002,0,-0.02,359.97,0,0,0,0,0,-0.0078125,-0,177.75,206922
0.024292,0.024292,0.946472,0,0.003,-0.02,359.97,0,0,0,0,0,-0.0078125,-0,177.772,206937
0.0223999,0.0224609,0.957764,-0.002,0.001,-0.02,359.97,0,0,0,0,0,-0.0078125,-0,177.79,206967
0.0211182,0.0245361,0.945923,-0.003,0.003,-0.02,359.97,0,0,0,0,0,-0.0078125,-0,177.81,206982
0.0255737,0.0188599,0.95459,0,-0.002,-0.02,359.97,0,0,0,0,0,-0.0078125,-0,177.831,206997
0.0266724,0.020813,0.953552,0.001,0,-0.02,359.97,0,0,0,0,0,-0.0078125,-0,177.851,207027
0.026001,0.0219727,0.94165,0.001,0.001,-0.02,359.97,0,0,0,0,0,-0.0078125,-0,177.871,207042
0.0279541,0.0213623,0.957275,0.002,0,-0.02,359.97,0,0,0,0,0,-0.0078125,-0,177.891,207057
0.0236816,0.0231934,0.949158,-0.001,0.002,-0.02,359.97,0,0,0,0,0,-0.0078125,-0,177.91,207087
0.0247192,0.0206909,0.947815,0,0,-0.02,359.97,0,0,0,0,0,-0.0078125,-0,177.93,207102
0.024231,0.0213623,0.950378,-0.001,0,-0.02,359.97,0,0,0,0,0,-0.0078125,-0,177.951,207117
0.0233154,0.0210571,0.953613,-0.001,0,-0.02,359.97,0,0,0,0,0,-0.0078125,-0,177.97,207147
0.0258789,0.0197144,0.940918,0.001,-0.001,-0.02,359.97,0,0,0,0,0,-0.0078125,-0,177.991,207162
0.0244751,0.0214844,0.955811,0,0,-0.03,359.96,0,0,0,0,0,-0.0078125,-0,178.01,207177
0.0270996,0.0210571,0.949768,0.001,0,-0.02,359.97,0,0,0,0,0,-0.0078125,-0,178.03,207206
0.0250854,0.0217285,0.943848,0,0,-0.02,359.97,0,0,0,0,0,-0.0078125,-0,178.05,207222
0.0230713,0.0238037,0.950256,-0.002,0.002,-0.02,359.97,0,0,0,0,0,-0.0078125,-0,178.071,207236
0.0252075,0.0211182,0.948303,0,0,-0.02,359.97,0,0,0,0,0,-0.0078125,-0,178.09,207266
0.0234375,0.0239868,0.948242,-0.001,0.002,-0.02,359.97,0,0,0,0,0,-0.0078125,-0,178.112,207282
0.0228882,0.0183105,0.949768,-0.002,-0.002,-0.02,359.97,0,0,0,0,0,-0.0078125,-0,178.131,207296
0.0245361,0.0198364,0.947327,0,-0.001,-0.02,359.97,0,0,0,0,0,-0.0078125,-0,178.161,207326
0.0280762,0.0219727,0.949707,0.002,0,-0.02,359.97,0,0,0,0,0,-0.0078125,-0,178.17,207342
0.0273438,0.0217896,0.950989,0.002,0,-0.02,359.97,0,0,0,0,0,-0.0078125,-0,178.19,207356
0.0217896,0.022583,0.953857,-0.003,0.001,-0.02,359.97,0,0,0,0,0,-0.0078125,-0,178.211,207386
0.0279541,0.022522,0.950562,0.002,0.001,-0.03,359.96,0,0,0,0,0,-0.0078125,-0,178.231,207402
0.0256348,0.0219727,0.948608,0,0,-0.03,359.96,0,0,0,0,0,-0.0078125,-0,178.25,207416
0.0244751,0.0222778,0.951477,0,0.001,-0.02,359.97,0,0,0,0,0,-0.0078125,-0,178.27,207446
0.0223389,0.0214844,0.938416,-0.002,0,-0.02,359.97,0,0,0,0,0,-0.0078125,-0,178.298,207462
0.0253906,0.0233765,0.950623,0,0.002,-0.02,359.97,0,0,0,0,0,-0.0078125,-0,178.31,207476
0.0234985,0.0194702,0.950867,-0.001,-0.001,-0.02,359.97,0,0,0,0,0,-0.0078125,-0,178.331,207506
0.0248413,0.0187378,0.948059,0,-0.002,-0.02,359.97,0,0,0,0,0,-0.0078125,-0,178.351,207522
0.0249023,0.0233154,0.949036,0,0.002,-0.02,359.97,0,0,0,0,0,-0.0078125,-0,178.371,207536
0.0245361,0.022644,0.952942,0,0.001,-0.02,359.97,0,0,0,0,0,-0.0078125,-0,178.39,207566
0.0275879,0.020813,0.945068,0.002,0,-0.02,359.97,0,0,0,0,0,-0.0078125,-0,178.41,207582
0.0213623,0.0218506,0.952393,-0.003,0,-0.02,359.97,0,0,0,0,0,-0.0078125,-0,178.43,207596
0.0253296,0.0210571,0.948914,0,0,-0.03,359.96,0,0,0,0,0,-0.0078125,-0,178.45,207626
0.0276489,0.0203857,0.951233,0.002,0,-0.03,359.96,0,0,0,0,0,-0.0078125,-0,178.47,207642
0.0256348,0.0174561,0.950195,0,-0.003,-0.03,359.96,0,0,0,0,0,-0.0078125,-0,178.492,207656
0.0245361,0.0217896,0.956543,0,0,-0.03,359.96,0,0,0,0,0,-0.0078125,-0,178.51,207686
0.0263672,0.0217896,0.947205,0.001,0,-0.03,359.96,0,0,0,0,0,-0.0078125,-0,178.53,207702
0.0247192,0.0200195,0.95752,0,-0.001,-0.03,359.96,0,0,0,0,0,-0.0078125,-0,178.55,207716
0.0263672,0.0212402,0.945984,0.001,0,-0.03,359.96,0,0,0,0,0,-0.0078125,-0,178.57,207746
0.0241699,0.0181274,0.943237,0,-0.002,-0.03,359.96,0,0,0,0,0,-0.0078125,-0,178.592,207762
0.0241089,0.019165,0.950684,-0.001,-0.002,-0.02,359.97,0,0,0,0,0,-0.0078125,-0,178.614,207791
0.024292,0.0192261,0.951233,0,-0.001,-0.03,359.96,0,0,0,0,0,-0.0078125,-0,178.632,207806
0.0250854,0.0195312,0.948303,0,-0.001,-0.02,359.97,0,0,0,0,0,-0.0078125,-0,178.65,207822
0.0237427,0.0198364,0.952026,-0.001,-0.001,-0.03,359.96,0,0,0,0,0,-0.0078125,-0,178.672,207836
0.0223389,0.0215454,0.948547,-0.002,0,-0.02,359.97,0,0,0,0,0,-0.0078125,-0,178.696,207866
0.0267334,0.020813,0.950623,0.001,0,-0.02,359.97,0,0,0,0,0,-0.0078125,-0,178.71,207881
0.0266724,0.0211792,0.948425,0.001,0,-0.02,359.97,0,0,0,0,0,-0.0078125,-0,178.731,207896
0.0288086,0.0192871,0.953979,0.003,-0.001,-0.02,359.97,0,0,0,0,0,-0.0078125,-0,178.751,207926
0.0222778,0.0217285,0.949951,-0.002,0,-0.02,359.97,0,0,0,0,0,-0.0078125,-0,178.771,207941
0.0263672,0.0228882,0.948853,0.001,0.001,-0.02,359.97,0,0,0,0,0,-0.0078125,-0,178.791,207956
0.0247803,0.0189209,0.94751,0,-0.002,-0.02,359.97,0,0,0,0,0,-0.0078125,-0,178.81,207986
0.0274658,0.0201416,0.945129,0.002,0,-0.02,359.97,0,0,0,0,0,-0.0078125,-0,178.831,208001
0.0224609,0.0211792,0.950928,-0.002,0,-0.02,359.97,0,0,0,0,0,-0.0078125,-0,178.85,208016
0.024292,0.0213623,0.947754,0,0,-0.02,359.97,0,0,0,0,0,-0.0078125,-0,178.873,208046
0.0269775,0.0205688,0.949463,0.001,0,-0.02,359.97,0,0,0,0,0,-0.0078125,-0,178.89,208061
0.0253296,0.0222778,0.943787,0,0.001,-0.02,359.97,0,0,0,0,0,-0.0078125,-0,178.91,208076
0.0269775,0.0211792,0.946106,0.001,0,-0.02,359.97,0,0,0,0,0,-0.0078125,-0,178.93,208106
0.0236206,0.0202026,0.946533,-0.001,0,-0.02,359.97,0,0,0,0,0,-0.0078125,-0,178.95,208121
0.0215454,0.0192871,0.957947,-0.003,-0.002,-0.02,359.97,0,0,0,0,0,-0.0078125,-0,178.984,208151
0.0233154,0.020752,0.951416,-0.001,0,-0.02,359.97,0,0,0,0,0,-0.0078125,-0,179.005,208181
0.0233154,0.020752,0.951416,-0.001,0,-0.02,359.97,0,0,0,0,0,-0.0078125,-0,179.01,208181
0.0249023,0.0192871,0.935669,0,-0.001,-0.02,359.97,0,0,0,0,0,-0.0078125,-0,179.031,208196
0.0259399,0.0233154,0.943115,0.001,0.002,-0.02,359.97,0,0,0,0,0,-0.0078125,-0,179.051,208226
0.0272217,0.0199585,0.954468,0.001,-0.001,-0.02,359.97,0,0,0,0,0,-0.0078125,-0,179.071,208241
0.0236206,0.0193481,0.953064,-0.001,-0.001,-0.02,359.97,0,0,0,0,0,-0.0078125,-0,179.09,208256
0.0241699,0.022583,0.947449,0,0.001,-0.02,359.97,0,0,0,0,0,-0.0078125,-0,179.11,208286
0.0232544,0.0218506,0.946899,-0.001,0,-0.02,359.97,0,0,0,0,0,-0.0078125,-0,179.131,208301
0.0222778,0.0198975,0.945129,-0.002,-0.001,-0.02,359.97,0,0,0,0,0,-0.0078125,-0,179.15,208316
0.0274658,0.0196533,0.945068,0.002,-0.001,-0.02,359.97,0,0,0,0,0,-0.0078125,-0,179.178,208346
0.0214844,0.020752,0.9552,-0.003,0,-0.02,359.97,0,0,0,0,0,-0.0078125,-0,179.191,208361
0.0258789,0.0199585,0.951233,0,-0.001,-0.02,359.97,0,0,0,0,0,-0.0078125,-0,179.211,208376
0.0246582,0.0202637,0.944092,0,0,-0.02,359.97,0,0,0,0,0,-0.0078125,-0,179.231,208406
0.0266724,0.0213013,0.953064,0.001,0,-0.02,359.97,0,0,0,0,0,-0.0078125,-0,179.251,208421
0.0248413,0.022644,0.947205,0,0.001,-0.02,359.97,0,0,0,0,0,-0.0078125,-0,179.271,208436
0.0238037,0.022522,0.943359,-0.001,0.001,-0.02,359.97,0,0,0,0,0,-0.0078125,-0,179.291,208466
0.0267944,0.0192871,0.94989,0.001,-0.001,-0.02,359.97,0,0,0,0,0,-0.0078125,-0,179.311,208481
0.0241089,0.0232544,0.948608,0,0.002,-0.02,359.97,0,0,0,0,0,-0.0078125,-0,179.331,208511
0.0256348,0.0210571,0.948364,0,0,-0.02,359.97,0,0,0,0,0,-0.0078125,-0,179.351,208526
0.0274658,0.0195312,0.947876,0.002,-0.001,-0.02,359.97,0,0,0,0,0,-0.0078125,-0,179.371,208541
0.0252686,0.0215454,0.951843,0,0,-0.02,359.97,0,0,0,0,0,-0.0078125,-0,179.39,208556
0.0256958,0.0192261,0.953674,0,-0.002,-0.02,359.97,0,0,0,0,0,-0.0078125,-0,179.411,208586
0.0269775,0.0238647,0.950195,0.001,0.002,-0.02,359.97,0,0,0,0,0,-0.0078125,-0,179.43,208601
0.0263672,0.0184326,0.943115,0.001,-0.002,-0.02,359.97,0,0,0,0,0,-0.0078125,-0,179.45,208616
0.0221558,0.019165,0.946228,-0.002,-0.001,-0.02,359.97,0,0,0,0,0,-0.0078125,-0,179.47,208646
0.0227661,0.0220337,0.948059,-0.002,0.001,-0.02,359.97,0,0,0,0,0,-0.0078125,-0,179.49,208661
0.0229492,0.0193481,0.954346,-0.002,-0.001,-0.02,359.97,0,0,0,0,0,-0.0078125,-0,179.511,208676
0.0220337,0.0218506,0.951782,-0.003,0,-0.02,359.97,0,0,0,0,0,-0.0078125,-0,179.531,208706
0.0241699,0.0186768,0.944092,0,-0.002,-0.02,359.97,0,0,0,0,0,-0.0078125,-0,179.55,208721
0.0263062,0.0253906,0.954163,0.001,0.004,-0.02,359.97,0,0,0,0,0,-0.0078125,-0,179.57,208736
0.0256958,0.0185547,0.952087,0,-0.002,-0.02,359.97,0,0,0,0,0,-0.0078125,-0,179.59,208766
0.0214233,0.0203857,0.94458,-0.003,0,-0.02,359.97,0,0,0,0,0,-0.0078125,-0,179.61,208781
0.027771,0.0217896,0.952515,0.002,0,-0.02,359.97,0,0,0,0,0,-0.0078125,-0,179.632,208811
0.024292,0.0239868,0.949036,0,0.002,-0.02,359.97,0,0,0,0,0,-0.0078125,-0,179.652,208826
0.02948,0.0188599,0.946472,0.004,-0.002,-0.02,359.97,0,0,0,0,0,-0.0078125,-0,179.671,208841
0.0216064,0.0206909,0.944702,-0.003,0,-0.02,359.97,0,0,0,0,0,-0.0078125,-0,179.69,208856
0.022583,0.0246582,0.948669,-0.002,0.003,-0.02,359.97,0,0,0,0,0,-0.0078125,-0,179.71,208886
0.0214233,0.0198364,0.948853,-0.003,-0.001,-0.02,359.97,0,0,0,0,0,-0.0078125,-0,179.73,208901
0.022644,0.0206299,0.954773,-0.002,0,-0.02,359.97,0,0,0,0,0,-0.0078125,-0,179.75,208916
0.0240479,0.0220947,0.948547,0,0.001,-0.02,359.97,0,0,0,0,0,-0.0078125,-0,179.771,208946
0.0230103,0.0246582,0.94397,-0.001,0.003,-0.02,359.97,0,0,0,0,0,-0.0078125,-0,179.79,208961
0.026062,0.0202637,0.949036,0.001,0,-0.02,359.97,0,0,0,0,0,-0.0078125,-0,179.813,208991
0.0228882,0.0214233,0.95282,-0.002,0,-0.02,359.97,0,0,0,0,0,-0.0078125,-0,179.831,209005
0.0238037,0.0170898,0.946167,0,-0.003,-0.02,359.97,0,0,0,0,0,-0.0078125,-0,179.853,209021
0.0288696,0.0202026,0.954407,0.003,0,-0.02,359.97,0,0,0,0,0,-0.0078125,-0,179.871,209050
0.0241089,0.0194702,0.944824,0,-0.001,-0.02,359.97,0,0,0,0,0,-0.0078125,-0,179.89,209065
0.0267944,0.0192871,0.948792,0.001,-0.001,-0.02,359.97,0,0,0,0,0,-0.0078125,-0,179.91,209081
0.0254517,0.0236206,0.955627,0,0.002,-0.02,359.97,0,0,0,0,0,-0.0078125,-0,179.933,209110
0.0247803,0.0231323,0.944458,0,0.002,-0.02,359.97,0,0,0,0,0,-0.0078125,-0,179.95,209125
0.0267944,0.0187988,0.950073,0.001,-0.002,-0.02,359.97,0,0,0,0,0,-0.0078125,-0,179.97,209141
0.0244141,0.0167236,0.94989,0,-0.004,-0.02,359.97,0,0,0,0,0,-0.0078125,-0,179.99,209155
0.0292358,0.0230103,0.949219,0.004,0.001,-0.02,359.97,0,0,0,0,0,-0.0078125,-0,180.01,209185
0.0215454,0.0236206,0.944214,-0.003,0.002,-0.02,359.97,0,0,0,0,0,-0.0078125,-0,180.03,209201
0.026062,0.0210571,0.9505,0.001,0,-0.02,359.97,0,0,0,0,0,-0.0078125,-0,180.05,209215
0.0279541,0.0233154,0.954651,0.002,0.002,-0.03,359.96,0,0,0,0,0,-0.0078125,-0,180.085,209261
0.0230103,0.0200806,0.95166,-0.001,-0.001,-0.03,359.96,0,0,0,0,0,-0.0078125,-0,180.109,209275
0.0274048,0.0199585,0.948975,0.002,-0.001,-0.03,359.96,0,0,0,0,0,-0.0078125,-0,180.113,209290
0.0200195,0.0212402,0.943604,-0.004,0,-0.03,359.96,0,0,0,0,0,-0.0078125,-0,180.131,209305
0.0271606,0.0224609,0.947449,0.002,0.001,-0.03,359.96,0,0,0,0,0,-0.0078125,-0,180.15,209321
0.0258789,0.0233765,0.953186,0,0.002,-0.03,359.96,0,0,0,0,0,-0.0078125,-0,180.17,209335
0.0304565,0.0189819,0.959717,0.005,-0.002,-0.03,359.96,0,0,0,0,0,-0.0078125,-0,180.191,209365
0.0233154,0.0228271,0.942139,-0.001,0.001,-0.03,359.96,0,0,0,0,0,-0.0078125,-0,180.21,209381
0.0213623,0.024292,0.949097,-0.003,0.003,-0.03,359.96,0,0,0,0,0,-0.0078125,-0,180.231,209410
0.0264893,0.019104,0.951294,0.001,-0.002,-0.03,359.96,0,0,0,0,0,-0.0078125,-0,180.251,209425
0.0274658,0.0188599,0.941406,0.002,-0.002,-0.03,359.96,0,0,0,0,0,-0.0078125,-0,180.271,209441
0.0222168,0.0213623,0.941895,-0.002,0,-0.03,359.96,0,0,0,0,0,-0.0078125,-0,180.29,209455
0.0227051,0.0236816,0.944824,-0.001,0.002,-0.03,359.96,0,0,0,0,0,-0.0078125,-0,180.311,209485
0.0292358,0.0209961,0.953918,0.004,0,-0.03,359.96,0,0,0,0,0,-0.0078125,-0,180.331,209501
0.0228882,0.0192261,0.948242,-0.001,-0.001,-0.03,359.96,0,0,0,0,0,-0.0078125,-0,180.351,209515
0.0274658,0.0209961,0.946289,0.002,0,-0.03,359.96,0,0,0,0,0,-0.0078125,-0,180.37,209545
0.024353,0.0270996,0.957458,0,0.005,-0.03,359.96,0,0,0,0,0,-0.0078125,-0,180.39,209561
0.0187378,0.022644,0.944092,-0.005,0.001,-0.03,359.96,0,0,0,0,0,-0.0078125,-0,180.416,209590
0.0287476,0.0189819,0.947388,0.003,-0.002,-0.03,359.96,0,0,0,0,0,-0.0078125,-0,180.431,209605
0.0255737,0.024231,0.953552,0,0.002,-0.03,359.96,0,0,0,0,0,-0.0078125,-0,180.451,209621
0.0265503,0.020874,0.955261,0.001,0,-0.03,359.96,0,0,0,0,0,-0.0078125,-0,180.471,209635
0.0237427,0.0195923,0.941528,0,-0.001,-0.03,359.96,0,0,0,0,0,-0.0078125,-0,180.49,209665
0.0268555,0.0184937,0.949097,0.001,-0.002,-0.03,359.96,0,0,0,0,0,-0.0078125,-0,180.51,209681
0.0247192,0.0223999,0.948669,0,0.001,-0.03,359.96,0,0,0,0,0,-0.0078125,-0,180.531,209695
0.0271606,0.0166626,0.946411,0.002,-0.004,-0.03,359.96,0,0,0,0,0,-0.0078125,-0,180.566,209740
0.0271606,0.0166626,0.946411,0.002,-0.004,-0.03,359.96,0,0,0,0,0,-0.0078125,-0,180.572,209740
0.0232544,0.0236816,0.947327,-0.001,0.002,-0.03,359.96,0,0,0,0,0,-0.0078125,-0,180.59,209755
0.0234375,0.0205688,0.942932,-0.001,0,-0.03,359.96,0,0,0,0,0,-0.0078125,-0,180.632,209800
0.0288086,0.0162964,0.944214,0.004,-0.004,-0.03,359.96,0,0,0,0,0,-0.0078125,-0,180.651,209815
0.0284424,0.019043,0.951416,0.003,-0.002,-0.03,359.96,0,0,0,0,0,-0.0078125,-0,180.675,209845
0.0241089,0.020874,0.952209,0,0,-0.03,359.96,0,0,0,0,0,-0.0078125,-0,180.691,209860
0.0279541,0.0165405,0.945984,0.003,-0.004,-0.03,359.96,0,0,0,0,0,-0.0078125,-0,180.711,209890
0.0216064,0.0203247,0.945129,-0.003,0,-0.03,359.96,0,0,0,0,0,-0.0078125,-0,180.73,209905
0.027832,0.022522,0.954224,0.002,0.001,-0.02,359.97,0,0,0,0,-349.052,-0.0078125,-0,180.75,209920
0.484558,-0.563721,0.961121,0.457,-0.581,-0.06,359.93,0.000610352,-0.000457764,0,0,-642.302,-0.0078125,-0,180.771,209950
0.475647,-0.454895,0.915771,0.447,-0.466,-0.17,359.82,0.0017395,-0.00163269,0,2.38419,-262.567,-0.0078125,-0,180.79,209965
0.136536,-0.253479,0.915649,0.106,-0.261,-0.32,359.67,0.00325012,-0.00328064,0,108.531,-647.564,-0.0078125,-0,180.81,209980
0.263977,-0.366699,0.750671,0.239,-0.365,-0.67,359.32,0.00694275,-0.00791931,0,91.3517,-708.391,-0.0078125,-0,180.833,210010
0.19635,-0.199036,0.933716,0.16,-0.194,-0.9,359.09,0.00920105,-0.0108643,0,116.72,-828.569,-0.0078125,-0,180.85,210025
0.368591,-0.275696,1.06531,0.327,-0.264,-1.2,358.79,0.011795,-0.0141296,0,180.901,-675.425,-0.0078125,-0,180.871,210040
0.215515,-0.19397,0.606445,0.191,-0.184,-1.58,358.41,0.0147247,-0.0177002,0,219.816,-651.529,-0.0078125,-0,180.89,210055
0.125549,-0.057312,0.679993,0.091,-0.041,-2.92,357.07,0.0249939,-0.0300751,0,240.688,-873.782,-0.0078125,-0,180.922,210100
0.125549,-0.057312,0.679993,0.091,-0.041,-2.92,357.07,0.0249939,-0.0300751,0,265.326,-745.379,-0.0078125,-0,180.934,210100
0.0527344,-0.270142,0.858154,0.022,-0.251,-3.92,356.07,0.0327454,-0.039505,0,280.855,-733.111,-0.0078125,-0,180.952,210130
0.10675,-0.100281,0.891541,0.063,-0.075,-4.46,355.53,0.0367279,-0.0445862,0,356.189,-756.058,-0.0078125,-0,180.972,210145
0.046875,-0.127319,0.950684,0.003,-0.104,-5.01,354.98,0.040741,-0.0497742,0,330.874,-1121.58,-0.0078125,-0,180.99,210160
0.238708,-0.215515,0.858154,0.208,-0.173,-5.57,354.42,0.0449066,-0.0551605,0,316.391,-751.823,-0.0078125,-0,181.01,210175
0.14502,-0.0739136,0.786865,0.105,-0.039,-6.74,353.25,0.0536346,-0.0663147,0,296.077,-976.992,-0.0078125,-0,181.033,210205
0.153137,-0.134827,1.02344,0.105,-0.091,-7.37,352.62,0.0581818,-0.0720215,0,327.011,-986.923,-0.0078125,-0,181.05,210220
0.100098,-0.0745239,0.942505,0.05,-0.039,-8.02,351.97,0.0628357,-0.0778046,0,376.747,-1161.04,-0.0078125,-0,181.071,210235
0.113342,-0.0657959,0.852905,0.067,-0.028,-9.34,350.65,0.0722504,-0.0894775,0,370.172,-536.87,-0.0078125,-0,181.09,210265
-0.0579834,0.0510864,1.05627,-0.133,0.062,-9.99,350,0.0769348,-0.0953064,0,376.79,-1304.63,-0.0078125,-0,181.111,210280
0.130432,-0.116272,0.411133,0.123,-0.081,-10.65,349.34,0.081604,-0.101151,0,355.53,-1044.17,-0.0078125,-0,181.13,210295
0.196838,-0.164001,0.62915,0.185,-0.107,-11.98,348.01,0.0908661,-0.113052,0,361.011,-1096.25,-0.0078125,-0,181.15,210325
0.106567,-0.111572,1.03088,0.058,-0.064,-12.67,347.32,0.0956726,-0.119156,0,374.216,-1213.37,-0.0078125,-0,181.17,210340
0.120239,-0.0859375,0.976257,0.07,-0.034,-14.06,345.93,0.105789,-0.131287,0,364.113,-1005.03,-0.0078125,-0,181.192,210370
0.127502,-0.0652466,0.812073,0.083,-0.014,-14.75,345.24,0.111038,-0.13736,0,395.938,-1109.32,-0.0078125,-0,181.21,210385
0.0932007,-0.0860596,1.22662,0.027,-0.035,-15.44,344.55,0.116364,-0.143463,0,373.274,-1155.74,-0.0078125,-0,181.23,210400
0.100098,-0.0290527,0.982544,0.033,0.019,-16.81,343.18,0.12738,-0.155655,0,403.812,-1168.63,-0.0078125,-0,181.251,210430
-0.000793457,-0.012085,0.948975,-0.065,0.005,-17.51,342.48,0.132919,-0.155655,0,373.811,-1067.46,-0.0078125,-0,181.271,210445
0.0512695,-0.0483398,0.624817,0.017,-0.018,-18.2,341.79,0.138443,-0.155655,0,420.318,-1215.95,-0.0078125,-0,181.291,210460
0.171936,-0.053772,0.500488,0.142,0.014,-19.59,340.4,0.149643,-0.155655,0,405.334,-1145.93,-0.0078125,-0,181.311,210490
-0.757507,0.169739,1.99994,-0.91,-0.077,-20.26,339.73,0.15477,-0.155701,0,413.77,-648.782,-0.0078125,-0,181.33,210505
0.00244141,-0.0240479,-0.0467529,0.014,-0.022,-20.85,339.14,0.159286,-0.155807,0,427.15,-1078.52,-0.0078125,-0,181.35,210520
0.630981,-0.0582275,-0.10144,0.614,0.176,-21.48,338.51,0.164246,-0.155807,0,507.911,-1063.89,-0.0078125,-0,181.37,210535
0.186646,-0.133423,0.0145264,0.223,-0.042,-24.72,335.27,0.192108,-0.153122,0,507.434,-1009.54,-0.0078125,-0,181.443,210610
-0.241821,0.107788,1.11908,-0.344,0,-25.39,334.6,0.197891,-0.152176,0,505.433,-1134.17,-0.0078125,-0,181.447,210625
-0.241821,0.107788,1.11908,-0.344,0,-25.39,334.6,0.197891,-0.152176,0,441.852,-1189.34,-0.0078125,-0,181.451,210625
0.135681,0.12854,1.0683,-0.01,0.178,-26.06,333.93,0.20343,-0.151123,0,473.294,-1181.06,-0.0078125,-0,181.47,210640
0.186279,0.0527954,0.815125,0.081,0.135,-28.06,331.93,0.22052,-0.147217,0,438.299,-1165.03,-0.0078125,-0,181.507,210685
0.186279,0.0527954,0.815125,0.081,0.135,-28.06,331.93,0.22052,-0.147217,0,465.463,-1205.33,-0.0078125,-0,181.511,210685
0.356995,-0.146362,0.60376,0.338,0.043,-28.75,331.24,0.226578,-0.145615,0,479.547,-1076.43,-0.0078125,-0,181.53,210700
-0.0563354,0.00323486,1.32001,-0.147,-0.03,-30.75,329.24,0.24469,-0.140305,0,448.702,-1246.34,-0.0078125,-0,181.568,210745
-0.0563354,0.00323486,1.32001,-0.147,-0.03,-30.75,329.24,0.24469,-0.140305,0,431.081,-1385.62,-0.0078125,-0,181.573,210745
-0.034668,-0.11853,0.910034,-0.033,-0.123,-31.41,328.58,0.250641,-0.138565,0,431.583,-1045.37,-0.0078125,-0,181.592,210760
0.310974,-0.0494995,0.850464,0.227,0.122,-32.68,327.31,0.262436,-0.135025,0,446.588,-1182.52,-0.0078125,-0,181.611,210790
0.00823975,0.122437,1.16449,-0.141,0.1,-33.31,326.68,0.268433,-0.133026,0,458.8,-1340.66,-0.0078125,-0,181.63,210805
0.316467,-0.0222778,0.451477,0.242,0.155,-33.92,326.07,0.274506,-0.130859,0,467.061,-1151.74,-0.0078125,-0,181.65,210820
-0.076355,0.130554,1.33539,-0.227,0.055,-34.53,325.46,0.280579,-0.128555,0,524.907,-1147.91,-0.0078125,-0,181.671,210835
-0.287781,0.226318,0.925232,-0.424,0.008,-35.71,324.28,0.291748,-0.123627,0,422.967,-1212.71,-0.0078125,-0,181.691,210864
0.592407,-0.135559,0.591858,0.515,0.235,-36.31,323.68,0.297195,-0.120972,0,453.741,-1136.56,-0.0078125,-0,181.711,210880
0.0415649,0.33551,1.17206,-0.245,0.281,-36.9,323.09,0.302826,-0.11795,0,422.244,-1089.5,-0.0078125,-0,181.731,210894
-0.0800171,0.103943,0.332214,-0.149,0.028,-38.07,321.92,0.313736,-0.111404,0,467.596,-1209.63,-0.0078125,-0,181.751,210924
-0.0612183,0.0904541,1.54431,-0.205,0.01,-38.67,321.32,0.318909,-0.108093,0,410.821,-1059.38,-0.0078125,-0,181.771,210940
0.398682,0.0237427,0.884766,0.232,0.261,-39.84,320.15,0.329071,-0.101486,0,443.971,-1146.33,-0.0078125,-0,181.791,210969
0.0739746,0.0389404,0.6745,-0.014,0.067,-40.45,319.54,0.334381,-0.0979156,0,385.594,-1268.31,-0.0078125,-0,181.81,210984
0.350647,0.0874634,1.57861,0.103,0.269,-41.09,318.9,0.339737,-0.0941162,0,411.692,-1119.95,-0.0078125,-0,181.83,211000
0.315369,0.0835571,0.770569,0.125,0.258,-42.35,317.64,0.350632,-0.0858154,0,403.739,-1399.48,-0.0078125,-0,181.85,211029
0.119202,0.0742188,0.860229,-0.02,0.116,-43.01,316.98,0.356201,-0.0813141,0,403.25,-1231.6,-0.0078125,-0,181.879,211044
0.0755615,0.0678711,0.998291,-0.059,0.075,-44.33,315.66,0.367264,-0.072052,0,389.461,-1113.96,-0.0078125,-0,181.898,211074
0.178894,0.116943,1.2597,-0.041,0.174,-45.65,314.34,0.37796,-0.0626526,0,420.911,-1350.99,-0.0078125,-0,181.93,211104
0.178894,0.116943,1.2597,-0.041,0.174,-45.65,314.34,0.37796,-0.0626526,0,425.804,-1386.77,-0.0078125,-0,181.938,211104
0.0912476,0.121338,0.754944,-0.075,0.127,-46.34,313.65,0.383163,-0.0577087,0,525.127,-1361.56,-0.0078125,-0,181.95,211120
0.219727,-0.0420532,1.32928,0.09,0.09,-47.04,312.95,0.388397,-0.0526123,0,521.363,-1158.88,-0.0078125,-0,181.97,211134
0.157532,-0.0574951,0.484802,0.116,0.062,-48.38,311.61,0.398697,-0.0413208,0,476.667,-1265.9,-0.0078125,-0,181.991,211164
-0.108765,-0.0650024,0.930969,-0.08,-0.158,-49.05,310.94,0.403854,-0.035553,0,350.976,-1358.7,-0.0078125,-0,182.01,211180
-0.0141602,0.0222168,1.51044,-0.12,-0.048,-49.71,310.28,0.408875,-0.0299377,0,470.113,-1098.78,-0.0078125,-0,182.031,211194
-0.125549,0.0393677,1.0343,-0.172,-0.116,-51.75,308.24,0.423843,-0.0123444,0,426.712,-1302.34,-0.0078125,-0,182.065,211240
-0.125549,0.0393677,1.0343,-0.172,-0.116,-51.75,308.24,0.423843,-0.0123444,0,412.184,-1050.53,-0.0078125,-0,182.07,211240
0.210693,0.114014,0.670227,-0.006,0.207,-53.04,306.95,0.433609,4.57764e-05,0,411.557,-1174.74,-0.0078125,-0,182.091,211269
0.131653,0.241272,1.61261,-0.214,0.178,-53.7,306.29,0.43837,0.00666809,0,447.347,-1103.39,-0.0078125,-0,182.111,211284
0.10321,0.0193481,0.505737,0.013,0.071,-54.36,305.63,0.442993,0.0134735,0,412.337,-1079.16,-0.0078125,-0,182.131,211300
0.207886,0.0292358,0.903381,0.04,0.145,-55.67,304.32,0.451935,0.0274506,0,453.793,-1389.95,-0.0078125,-0,182.15,211329
0.193542,0.0626831,0.840393,0.006,0.154,-56.35,303.64,0.456375,0.034729,0,447.818,-1368.64,-0.0078125,-0,182.17,211344
-0.0482788,0.053772,1.36694,-0.148,-0.078,-57.03,302.96,0.460739,0.0420532,0,468.242,-1206.85,-0.0078125,-0,182.191,211360
0.055542,0.1297,1.16077,-0.146,0.055,-58.38,301.61,0.469055,0.0566864,0,457.813,-664.474,-0.0078125,-0,182.21,211389
0.2771,0.0351562,1.16644,0.049,0.193,-59.06,300.93,0.473083,0.064209,0,433.981,-1183.85,-0.0078125,-0,182.231,211404
0.180054,-0.0553589,0.745789,0.097,0.085,-59.76,300.23,0.477219,0.0719147,0,441.404,-1185.61,-0.0078125,-0,182.25,211420
0.17218,-0.0223999,0.701172,0.065,0.099,-61.15,298.84,0.485443,0.0874329,0,444.415,-1413.03,-0.0078125,-0,182.271,211449
-0.0131226,-0.0484619,1.19977,-0.025,-0.103,-61.84,298.15,0.489563,0.0952301,0,387.327,-1171.23,-0.0078125,-0,182.29,211464
0.139282,0.0193481,1.06561,-0.007,0.069,-62.54,297.45,0.493683,0.102982,0,432.629,-1219.51,-0.0078125,-0,182.31,211480
0.257263,0.0206299,0.726746,0.056,0.193,-63.93,296.06,0.501968,0.118835,0,459.538,-973.236,-0.0078125,-0,182.33,211509
0.135864,0.00817871,1.03662,-0.002,0.058,-64.63,295.36,0.50618,0.127029,0,445.861,-1396.45,-0.0078125,-0,182.35,211524
0.305725,-0.0100098,0.166321,0.125,0.263,-66,293.99,0.514343,0.143631,0,461.053,-1255.97,-0.0078125,-0,182.38,211554
0.305725,-0.0100098,0.166321,0.125,0.263,-66,293.99,0.514343,0.143631,0,384.12,-1099.32,-0.0078125,-0,182.39,211554
0.085022,0.0839233,0.826904,-0.084,0.054,-67.38,292.61,0.522446,0.160324,0,413.864,-1254.78,-0.0078125,-0,182.411,211584
0.0179443,0.160461,1.29126,-0.202,-0.01,-68.06,291.93,0.526245,0.16864,0,397.48,-813.173,-0.0078125,-0,182.43,211599
0.368042,0.0057373,0.55365,0.102,0.306,-68.72,291.27,0.529984,0.177155,0,454.494,-1084.6,-0.0078125,-0,182.45,211614
0.151978,0.0755005,1.26508,-0.074,0.078,-70.07,289.92,0.537201,0.194748,0,407.789,-1033.75,-0.0078125,-0,182.471,211644
0.105164,0.112549,0.829407,-0.106,0.077,-70.73,289.26,0.540604,0.20369,0,464.738,-1068.15,-0.0078125,-0,182.493,211659
0.00372314,0.055603,0.803162,-0.085,-0.037,-71.4,288.59,0.543869,0.212662,0,410.214,-1245.56,-0.0078125,-0,182.511,211674
-0.0354004,0.0230713,1.24512,-0.083,-0.12,-72.79,287.2,0.550293,0.230652,0,437.264,-1222.05,-0.0078125,-0,182.53,211704
0.230103,0.00701904,0.742676,0.028,0.165,-73.47,286.52,0.553452,0.23967,0,403.454,-981.162,-0.0078125,-0,182.55,211719
0.0963135,-0.000793457,1.21686,-0.021,-0.002,-74.85,285.14,0.559662,0.258087,0,426.021,-1291.07,-0.0078125,-0,182.57,211749
0.0551147,-0.0396118,1.0993,0.009,-0.042,-75.55,284.44,0.562729,0.267288,0,425.686,-1128.67,-0.0078125,-0,182.591,211764
0.136169,-0.00970459,0.991455,0.003,0.052,-76.25,283.74,0.565811,0.276489,0,418.06,-1358.14,-0.0078125,-0,182.611,211779
0.307251,-0.0859985,1.01672,0.11,0.199,-77.64,282.35,0.571915,0.295258,0,405.186,-1414.23,-0.0078125,-0,182.63,211809
0.0628052,0.0894775,1.27295,-0.122,-0.021,-78.32,281.67,0.574966,0.304855,0,382.885,-886.839,-0.0078125,-0,182.65,211824
0.152283,0.036499,0.58075,-0.029,0.107,-79.67,280.32,0.581177,0.324402,0,375.488,-1183.85,-0.0078125,-0,182.685,211854
-0.101257,0.0100098,1.02515,-0.063,-0.184,-80.34,279.65,0.584259,0.334213,0,361.317,-963.53,-0.0078125,-0,182.694,211869
0.0165405,-0.0454102,1.17786,0.005,-0.09,-81.02,278.97,0.587296,0.343842,0,390.724,-912.867,-0.0078125,-0,182.71,211884
0.0895386,0.0934448,0.746521,-0.106,0.038,-81.71,278.28,0.590271,0.353424,0,389.757,-1248.6,-0.0078125,-0,182.73,211899
0.00354004,-0.14624,0.785339,0.12,-0.082,-83.05,276.94,0.595779,0.372269,0,362.957,-1232.59,-0.0078125,-0,182.751,211929
-0.0351562,-0.00970459,1.73541,-0.046,-0.181,-83.69,276.3,0.598572,0.381424,0,387.785,-1133.21,-0.0078125,-0,182.771,211944
0.0189209,0.0449829,0.0631104,-0.044,0.018,-84.32,275.67,0.601288,0.390472,0,460.183,-1312.34,-0.0078125,-0,182.791,211959
0.172241,0.0192871,0.886963,-0.028,0.097,-84.95,275.04,0.603973,0.399597,0,393.778,-1271.7,-0.0078125,-0,182.81,211974
0.260071,0.0334473,1.26776,-0.047,0.154,-86.21,273.78,0.609192,0.417755,0,388.591,-1077.35,-0.0078125,-0,182.83,212004
0.281616,0.0835571,0.412415,-0.078,0.249,-86.85,273.14,0.611694,0.427109,0,463.156,-1246.18,-0.0078125,-0,182.852,212019
-0.597961,0.144775,0.713074,-0.178,-0.648,-88.06,271.93,0.615997,0.444443,0,494.108,-786.38,-0.0078125,-0,182.871,212049
0.919373,-0.153015,0.0140381,0.174,0.91,-88.64,271.35,0.618011,0.45285,0,481.07,-1139.34,-0.0078125,-0,182.89,212064
0.112061,0.361023,0.739441,-0.373,0.056,-89.19,270.8,0.619888,0.461914,0,413.625,-1106.93,-0.0078125,-0,182.911,212079
-0.0567017,0.198853,0.599304,-0.208,-0.108,-90.34,269.65,0.623703,0.480804,0,485.826,-1044.44,-0.0078125,-0,182.93,212109
0.166565,-0.0563965,0.912476,0.038,0.088,-90.93,269.06,0.625549,0.490326,0,442.556,-1110.19,-0.0078125,-0,182.951,212124
0.137878,-0.0299683,0.421814,0.018,0.101,-91.52,268.47,0.627441,0.499969,0,384.756,-1194.03,-0.0078125,-0,182.97,212139
0.146362,-0.145325,0.695862,0.127,0.089,-92.77,267.22,0.631226,0.519333,0,423.837,-1152.21,-0.0078125,-0,182.992,212169
0.240845,0.0129395,1.41748,-0.045,0.116,-93.39,266.6,0.633194,0.529175,0,412.193,-1284.03,-0.0078125,-0,183.011,212184
0.223999,0.0333252,0.60614,-0.057,0.166,-94.03,265.96,0.635101,0.539185,0,410.097,-1424.7,-0.0078125,-0,183.031,212199
0.278442,-0.0213623,0.826904,-0.014,0.202,-95.35,264.64,0.638489,0.559464,0,378.673,-1261.75,-0.0078125,-0,183.051,212229
0.0935669,0.218933,1.48621,-0.243,-0.063,-96.02,263.97,0.639938,0.569733,0,446.897,-1270,-0.0078125,-0,183.071,212244
0.218079,0.0958252,0.257996,-0.123,0.181,-96.68,263.31,0.641144,0.580093,0,393.105,-795.229,-0.0078125,-0,183.09,212259
-0.0635986,0.06427,0.946472,-0.062,-0.158,-97.36,262.63,0.642212,0.590469,0,428.119,-1060,-0.0078125,-0,183.111,212274
0.249451,0.101807,0.896729,-0.143,0.148,-98.67,261.32,0.64389,0.610931,0,458.117,-1163.26,-0.0078125,-0,183.131,212304
0.281555,0.109863,0.914246,-0.157,0.175,-99.32,260.67,0.644424,0.621414,0,397.464,-1253.92,-0.0078125,-0,183.15,212319
0.198975,0.0784912,0.751404,-0.114,0.111,-100.63,259.36,0.644791,0.642426,0,397.148,-1215.51,-0.0078125,-0,183.171,212349
0.133911,0.0916138,1.01471,-0.116,0.02,-101.28,258.71,0.644714,0.653,0,435.388,-1165.77,-0.0078125,-0,183.19,212364
0.137939,0.0784912,0.94635,-0.104,0.031,-101.97,258.03,0.644485,0.663635,0,451.457,-1035.84,-0.0078125,-0,183.21,212379
0.104492,0.149109,0.921387,-0.165,-0.015,-102.64,257.35,0.644058,0.674271,0,427.917,-1336.72,-0.0078125,-0,183.23,212394
0.240662,0.0545654,0.80896,-0.106,0.145,-103.98,256.01,0.6427,0.695282,0,437.378,-1217.88,-0.0078125,-0,183.25,212424
0.108337,0.09552,0.919434,-0.113,-0.004,-104.67,255.32,0.6418,0.705887,0,458.012,-1332.53,-0.0078125,-0,183.274,212439
-0.0477905,0.0664062,0.909851,-0.041,-0.149,-106.08,253.91,0.639511,0.726746,0,468.088,-1175.36,-0.0078125,-0,183.29,212469
-0.0643311,0.0928955,1.18555,-0.056,-0.196,-106.79,253.2,0.638245,0.736847,0,450.086,-1217.95,-0.0078125,-0,183.31,212484
0.098999,0.0116577,0.862,-0.029,0.008,-108.2,251.79,0.635361,0.757309,0,483.045,-1170.41,-0.0078125,-0,183.338,212514
-0.148315,0.169495,1.69836,-0.085,-0.35,-108.9,251.09,0.633789,0.767395,0,438.75,-1438.64,-0.0078125,-0,183.36,212529
0.352661,0.0802612,0.138672,-0.191,0.29,-109.59,250.4,0.632034,0.777451,0,469.693,-1248.67,-0.0078125,-0,183.378,212544
-0.0934448,-0.00201416,1.35822,0.061,-0.215,-110.3,249.69,0.630188,0.787552,0,405.499,-1148.44,-0.0078125,-0,183.392,212559
0.412598,0.0626831,0.806091,-0.192,0.282,-111.7,248.29,0.626266,0.807709,0,490.22,-1241.23,-0.0078125,-0,183.412,212589
0.0228271,0.0319214,1.08563,-0.011,-0.088,-112.4,247.59,0.624054,0.818039,0,454.587,-1221.37,-0.0078125,-0,183.432,212604
0.196228,0.0731812,0.261108,-0.137,0.126,-113.1,246.89,0.62175,0.828384,0,524.082,-1321.09,-0.0078125,-0,183.45,212619
-0.142029,0.358459,1.71741,-0.222,-0.428,-113.78,246.21,0.619202,0.838516,0,528.416,-1153.87,-0.0078125,-0,183.47,212634
0.161865,-0.0517578,0.735779,0,0.099,-115.11,244.88,0.61322,0.858704,0,456.486,-1109.32,-0.0078125,-0,183.491,212663
0.0773926,0.0228882,1.15222,-0.016,-0.045,-115.79,244.2,0.610107,0.868927,0,457.739,-1302.42,-0.0078125,-0,183.512,212679
0.129578,0.00842285,1.17651,-0.025,0.004,-116.46,243.53,0.606979,0.879135,0,428.973,-1253.68,-0.0078125,-0,183.53,212693
0.0979004,-0.00262451,1.01178,-0.006,-0.003,-117.81,242.18,0.600571,0.89949,0,438.356,-1150.95,-0.0078125,-0,183.55,212723
0.00372314,-0.0263672,0.911926,0.056,-0.064,-118.5,241.49,0.597382,0.909622,0,453.772,-1270.97,-0.0078125,-0,183.571,212739
0.0650024,0.029541,0.513306,-0.038,-0.003,-119.9,240.09,0.59111,0.929398,0,442.978,-1087.84,-0.0078125,-0,183.59,212768
0.254517,0.0241089,0.945923,-0.111,0.122,-120.59,239.4,0.58786,0.939301,0,438.904,-1265.26,-0.0078125,-0,183.611,212783
0.228821,-0.0638428,0.692505,-0.034,0.165,-121.32,238.67,0.584518,0.949402,0,381.541,-1162.66,-0.0078125,-0,183.634,212799
0.404724,-0.0579834,0.722412,-0.14,0.309,-122.73,237.26,0.578613,0.968567,0,414.602,-1131.29,-0.0078125,-0,183.65,212828
0.704834,-0.103455,0.145081,-0.295,0.628,-123.42,236.57,0.575455,0.978653,0,397.63,-1235.71,-0.0078125,-0,183.671,212843
0.256775,-0.0606689,1.87598,-0.011,0.084,-124.13,235.86,0.572098,0.989212,0,340.391,-1232.29,-0.0078125,-0,183.694,212859
0.0474854,0.0637207,1.2196,-0.024,-0.107,-125.53,234.46,0.565475,1.01041,0,427.753,-1197.75,-0.0078125,-0,183.711,212888
0.224426,0.0856934,1.05548,-0.152,0.036,-126.23,233.76,0.562057,1.02092,0,429.341,-880.902,-0.0078125,-0,183.731,212903
0.0772705,0.0429688,0.831848,-0.04,-0.037,-126.94,233.05,0.558502,1.03143,0,492.126,-1060.61,-0.0078125,-0,183.752,212919
0.0437622,0.171753,0.744995,-0.124,-0.136,-128.35,231.64,0.55069,1.0524,0,436.681,-1136.69,-0.0078125,-0,183.772,212948
0.0449219,-0.0679321,0.89856,0.07,0,-129.05,230.94,0.5466,1.06276,0,420.858,-1145.74,-0.0078125,-0,183.791,212963
0.0680542,0.106567,1.26685,-0.06,-0.121,-129.75,230.24,0.542526,1.07304,0,370.879,-1024.12,-0.0078125,-0,183.81,212979
-0.0280762,0.149536,1.15009,-0.033,-0.212,-131.12,228.87,0.533813,1.09349,0,486.133,-1226.69,-0.0078125,-0,183.837,213008
0.130554,0.0643921,0.767761,-0.093,-0.008,-131.81,228.18,0.529282,1.10353,0,444.464,-1313.72,-0.0078125,-0,183.851,213023
0.0557251,0.14917,1.23639,-0.08,-0.159,-132.49,227.5,0.524643,1.11346,0,414.362,-1041.99,-0.0078125,-0,183.871,213039
0.136414,0.113647,1.15021,-0.112,-0.071,-133.91,226.08,0.515289,1.13304,0,445.395,-1129.94,-0.0078125,-0,183.891,213068
0.147034,0.162354,0.770874,-0.174,-0.07,-134.61,225.38,0.510406,1.1427,0,436.586,-911.494,-0.0078125,-0,183.911,213083
-0.0841064,-0.0189819,1.17297,0.142,-0.136,-135.33,224.66,0.505508,1.15222,0,468.143,-1210.51,-0.0078125,-0,183.93,213099
0.191406,0.0327148,0.279785,-0.145,0.084,-136.78,223.21,0.495651,1.1709,0,435.92,-591.628,-0.0078125,-0,183.951,213128
-0.0351562,0.0594482,1.3269,0.066,-0.17,-137.52,222.47,0.490601,1.18018,0,410.433,-1130.07,-0.0078125,-0,183.973,213143
0.245789,0.0666504,1.0141,-0.165,0.036,-138.25,221.74,0.485489,1.18936,0,418.98,-1157.81,-0.0078125,-0,183.991,213159
0.0159302,0.0496826,0.80835,0.006,-0.089,-139.7,220.29,0.474945,1.20787,0,440.665,-1336.63,-0.0078125,-0,184.01,213188
0.154724,0.0496826,1.2384,-0.071,-0.034,-140.43,219.56,0.469635,1.21704,0,440.354,-1079.8,-0.0078125,-0,184.03,213203
0.071167,-0.00537109,1.07874,0.018,-0.032,-141.16,218.83,0.464279,1.22617,0,441.833,-1208.39,-0.0078125,-0,184.05,213219
0.246582,-0.0541382,0.383972,-0.136,0.162,-142.61,217.38,0.453506,1.24409,0,492.635,-1102.41,-0.0078125,-0,184.071,213248
-0.115356,0.176514,1.43866,0.084,-0.317,-143.36,216.63,0.448044,1.25296,0,456.527,-1135.33,-0.0078125,-0,184.091,213263
0.192017,0.074585,0.934204,-0.134,-0.018,-144.08,215.91,0.442551,1.26158,0,515.052,-1144.3,-0.0078125,-0,184.111,213279
0.294312,-0.0450439,0.472961,-0.182,0.167,-145.47,214.52,0.431458,1.2785,0,414.697,-1022.02,-0.0078125,-0,184.13,213308
-0.0997314,0.130737,1.15247,0.095,-0.247,-146.15,213.84,0.425827,1.2869,0,470.046,-1262.07,-0.0078125,-0,184.151,213323
0.211487,0.0490723,1.3205,-0.107,-0.023,-146.83,213.16,0.420181,1.29509,0,488.436,-534.859,-0.0078125,-0,184.17,213338
0.4375,0.376099,1.04773,-0.492,-0.158,-147.52,212.47,0.414124,1.30318,0,430.172,-1503.31,-0.0078125,-0,184.19,213353
-0.0700073,0.0403442,1.03467,0.119,-0.139,-148.82,211.17,0.401443,1.31886,0,424.529,-1129.94,-0.0078125,-0,184.212,213383
0.252625,0.000366211,1.94928,-0.067,-0.007,-150.18,209.81,0.388275,1.3344,0,485.673,-1041.4,-0.0078125,-0,184.234,213413
0.0842896,0.140625,0.389404,-0.11,-0.108,-150.91,209.08,0.381439,1.3421,0,428.513,-1258.42,-0.0078125,-0,184.254,213428
0.0744629,-0.0558472,1.10205,0.05,0.012,-151.6,208.39,0.374557,1.34975,0,420.681,-1364.26,-0.0078125,-0,184.274,213443
0.299194,-0.0739746,0.651245,-0.177,0.161,-152.29,207.7,0.367584,1.35751,0,504.045,-959.647,-0.0078125,-0,184.292,213458
0.130981,-0.0750732,1.03333,0.002,0.059,-153.74,206.25,0.353531,1.37294,0,441.248,-1199.83,-0.0078125,-0,184.311,213488
0.0968018,0.0493164,0.661743,-0.052,-0.044,-154.45,205.54,0.346481,1.38062,0,495.81,-1372.4,-0.0078125,-0,184.333,213503
0.23938,0.0593262,0.962158,-0.158,-0.014,-155.17,204.82,0.339294,1.38826,0,455.228,-1172.88,-0.0078125,-0,184.353,213518
0.0252686,-0.000610352,0.894104,0.058,-0.044,-156.66,203.33,0.324097,1.40384,0,465.235,-1177.65,-0.0078125,-0,184.37,213548
-0.0296021,-0.0740356,1.20892,0.166,-0.015,-157.41,202.58,0.316574,1.41164,0,425.315,-574.762,-0.0078125,-0,184.39,213563
0.101135,0.00823975,0.929443,-0.014,-0.024,-158.13,201.86,0.309143,1.4194,0,507.679,-982.415,-0.0078125,-0,184.412,213578
0.180664,0.212036,1.48108,-0.105,-0.221,-159.6,200.39,0.293228,1.43532,0,422.735,-1059.21,-0.0078125,-0,184.434,213608
-0.160522,0.0200195,1.2381,0.257,-0.141,-160.32,199.67,0.285172,1.44305,0,418.244,-1018.02,-0.0078125,-0,184.452,213623
0.29657,0.0490112,0.653931,-0.236,0.011,-161.02,198.97,0.27713,1.4507,0,418.279,-1222.49,-0.0078125,-0,184.47,213638
-0.0203857,-0.0445557,1.11035,0.133,-0.019,-162.46,197.53,0.260696,1.46594,0,436.491,-1198.47,-0.0078125,-0,184.49,213668
0.113098,-0.0518799,0.689819,-0.03,0.046,-163.15,196.84,0.252563,1.47357,0,394.376,-1170.21,-0.0078125,-0,184.51,213683
0.188538,0.167969,0.977844,-0.139,-0.157,-163.84,196.15,0.244324,1.48112,0,390.122,-1169.04,-0.0078125,-0,184.53,213698
0.426147,-0.0444336,0.776733,-0.328,0.112,-165.22,194.77,0.227493,1.49582,0,335.424,-1279.34,-0.0078125,-0,184.552,213728
0.0717773,0.113586,1.49524,0.038,-0.16,-165.93,194.06,0.218796,1.50313,0,439.918,-1144.16,-0.0078125,-0,184.572,213743
 0.112,-0.0908813,0.607788,-0.031,0.085,-166.63,193.36,0.210083,1.51038,0,440.538,-1159.69,-0.0078125,-0,184.59,213758
0.0839844,-0.0141602,0.657715,-0.018,0.002,-168.04,191.95,0.192917,1.52475,0,406.174,-1097.57,-0.0078125,-0,184.613,213788
-0.0482788,0.0203857,1.09424,0.143,-0.075,-168.74,191.25,0.184448,1.53185,0,445.881,-1098.48,-0.0078125,-0,184.63,213803
0.314636,0.0715332,0.874451,-0.242,-0.05,-169.44,190.55,0.175919,1.53885,0,415.766,-1342.46,-0.0078125,-0,184.651,213818
0.00598145,-0.0797119,0.903259,0.09,0.043,-170.86,189.13,0.158478,1.55264,0,400.898,-1238.93,-0.0078125,-0,184.674,213848
0.439575,0.0222778,0.528137,-0.386,0.015,-172.3,187.69,0.140762,1.56604,0,441.267,-1151.21,-0.0078125,-0,184.713,213878
0.122559,0.0891113,0.968872,-0.037,-0.108,-173.77,186.22,0.122375,1.57912,0,457.844,-1150.88,-0.0078125,-0,184.731,213908
0.160767,-0.0175781,1.15582,-0.045,-0.006,-174.5,185.49,0.113144,1.58553,0,436.091,-1279.59,-0.0078125,-0,184.75,213923
0.196289,0.151672,0.790527,-0.13,-0.161,-175.23,184.76,0.103806,1.59181,0,439.947,-1214.11,-0.0078125,-0,184.77,213938
0.0621948,0.0549927,1.00421,0.035,-0.081,-176.68,183.31,0.0847321,1.60414,0,403.869,-1115.14,-0.0078125,-0,184.791,213968
0.194641,0.205994,0.862244,-0.117,-0.221,-177.42,182.57,0.075119,1.61008,0,438.789,-902.283,-0.0078125,-0,184.81,213983
0.0523071,0.0744019,0.720703,0.019,-0.092,-178.14,181.85,0.0654449,1.61578,0,430.422,-1253.6,-0.0078125,-0,184.83,213998
0.168335,0.116394,1.08447,-0.058,-0.142,-179.58,180.41,0.0457001,1.62662,0,503.018,-1174.05,-0.0078125,-0,184.85,214028
0.0869141,0.0964355,0.835022,0,-0.116,179.71,179.71,0.0357208,1.63174,0,390.213,-1283.29,-0.0078125,-0,184.87,214043
0.0720215,0.0373535,0.73175,0.004,-0.054,179,179,0.0357208,1.63675,0,462.492,-1135.14,-0.0078125,-0,184.89,214058
0.0252075,0.0358276,1.18677,0.1,-0.06,177.57,177.57,0.0359955,1.64648,0,471.22,-1195.46,-0.0078125,-0,184.911,214088
0.279419,0.153198,0.814087,-0.183,-0.183,176.83,176.83,0.0361481,1.65114,0,455.664,-967.165,-0.0078125,-0,184.931,214103
-0.0801392,0.11554,0.922119,0.185,-0.124,176.1,176.1,0.0363007,1.65558,0,486.027,-1327.05,-0.0078125,-0,184.951,214118
-0.0861816,0.0896606,1.06342,0.204,-0.093,174.65,174.65,0.0368958,1.66406,0,473.709,-1234.11,-0.0078125,-0,184.971,214148
0.159363,0.0205078,0.896851,-0.061,-0.047,173.94,173.94,0.0373535,1.66815,0,503.943,-1175.36,-0.0078125,-0,184.991,214163
0.176636,0.0454712,1.06396,-0.058,-0.075,173.21,173.21,0.0377197,1.67215,0,487.377,-1254.15,-0.0078125,-0,185.01,214178
0.338806,0.11908,1.21265,-0.188,-0.173,171.75,171.75,0.0382843,1.67995,0,494.535,-1148.63,-0.0078125,-0,185.03,214208
0.0413818,0.00695801,0.854553,0.051,-0.017,171.02,171.02,0.0383911,1.68364,0,507.37,-1325.91,-0.0078125,-0,185.055,214223
0.0973511,0.119995,0.899963,0.022,-0.137,170.28,170.28,0.038559,1.68724,0,455.737,-1276.24,-0.0078125,-0,185.07,214238
0.0543823,0.0466309,0.980591,0.061,-0.056,168.79,168.79,0.0392609,1.69427,0,473.821,-1018.8,-0.0078125,-0,185.091,214268
0.282166,-0.0245972,0.888794,-0.182,-0.033,168.05,168.05,0.0395966,1.69771,0,454.607,-1271.7,-0.0078125,-0,185.112,214283
0.208435,0.09552,1.02985,-0.069,-0.136,167.31,167.31,0.0397491,1.70105,0,499.513,-987.849,-0.0078125,-0,185.132,214298
0.148987,0.116394,1.42554,0.039,-0.143,165.81,165.81,0.0394745,1.70734,0,425.378,-1096.73,-0.0078125,-0,185.15,214328
0.308655,0.0376587,0.364746,-0.246,-0.114,165.06,165.06,0.0391388,1.71025,0,446.568,-1070.26,-0.0078125,-0,185.17,214343
0.115417,0.366699,1.32684,0.131,-0.374,164.3,164.3,0.0387115,1.71281,0,441.872,-1228.2,-0.0078125,-0,185.191,214358
0.113525,0.119995,1.12061,0.048,-0.138,162.83,162.83,0.0378113,1.71729,0,390.785,-1143.84,-0.0078125,-0,185.21,214388
0.153931,-0.0253296,0.597717,-0.088,-0.017,162.09,162.09,0.0372925,1.71936,0,445.712,-1053.24,-0.0078125,-0,185.232,214403
0.0756226,0.0734253,0.942017,0.053,-0.083,161.34,161.34,0.0367737,1.72136,0,454.535,-967.586,-0.0078125,-0,185.252,214418
-0.0147705,0.137573,1.36639,0.207,-0.106,159.86,159.86,0.0357208,1.7249,0,455.695,-1430.62,-0.0078125,-0,185.281,214447
0.438293,-0.0256348,0.651001,-0.346,-0.122,159.12,159.12,0.0351257,1.72644,0,440.558,-1177.93,-0.0078125,-0,185.294,214462
-0.250305,0.20874,0.384216,0.349,-0.096,158.38,158.38,0.0345459,1.72781,0,382.636,-1264.06,-0.0078125,-0,185.311,214478
0.251343,-0.0274658,1.64514,-0.066,-0.045,156.84,156.84,0.0329285,1.73038,0,442.674,-1249.61,-0.0078125,-0,185.331,214507
0.0656738,0.0947266,0.424561,0.024,-0.105,156.08,156.08,0.0319214,1.73152,0,373.532,-1265.9,-0.0078125,-0,185.35,214522
0.11322,0.0836182,0.664551,0.005,-0.109,155.31,155.31,0.0309296,1.73251,0,406.818,-979.672,-0.0078125,-0,185.37,214538
0.340942,-0.0673218,0.511841,-0.278,-0.078,153.82,153.82,0.0292358,1.73428,0,350.453,-1230.62,-0.0078125,-0,185.39,214567
-0.0575562,0.159424,1.07635,0.237,-0.093,153.08,153.08,0.0283356,1.73502,0,379.14,-1209.85,-0.0078125,-0,185.411,214582
0.362671,-0.116089,0.901062,-0.277,-0.043,152.35,152.35,0.02742,1.73564,0,348.608,-1276.57,-0.0078125,-0,185.431,214598
0.203186,0.0529785,0.991699,-0.047,-0.121,150.92,150.92,0.0255432,1.73692,0,410.24,-1257.7,-0.0078125,-0,185.45,214627
0.147583,-0.0844116,0.468689,-0.119,0.012,150.21,150.21,0.0245514,1.73746,0,401.292,-1261.11,-0.0078125,-0,185.47,214642
0.200745,-0.0158691,0.962646,-0.076,-0.061,149.49,149.49,0.0234222,1.73796,0,358.77,-1100.72,-0.0078125,-0,185.49,214658
0.0103149,0.11731,1.18024,0.178,-0.071,148.09,148.09,0.0213928,1.73885,0,397.836,-1319.09,-0.0078125,-0,185.511,214687
0.317078,0.0241699,0.628052,-0.185,-0.171,147.41,147.41,0.020462,1.73909,0,382.132,-1074,-0.0078125,-0,185.531,214702
-0.120178,0.118225,1.17883,0.289,0.004,146.72,146.72,0.0196075,1.73923,0,367.627,-1374.57,-0.0078125,-0,185.55,214718
-0.0219727,0.138855,1.54486,0.253,-0.052,145.43,145.43,0.0181732,1.73964,0,381.003,-1104.97,-0.0078125,-0,185.57,214747
0.682495,-0.071106,0.627197,-0.529,-0.312,144.79,144.79,0.0173187,1.73961,0,369.024,-1229.79,-0.0078125,-0,185.59,214762
0.0996094,0.112366,0.474243,0.036,-0.132,142.85,142.85,0.014679,1.73911,0,416.19,-1036.16,-0.0078125,-0,185.629,214807
0.0996094,0.112366,0.474243,0.036,-0.132,142.85,142.85,0.014679,1.73911,0,439.512,-1304.46,-0.0078125,-0,185.633,214807
0.199951,-0.134033,0.793396,-0.158,0.014,141.49,141.49,0.0133667,1.7383,0,384.512,-1451.27,-0.0078125,-0,185.668,214838
0.199951,-0.134033,0.793396,-0.158,0.014,141.49,141.49,0.0133667,1.7383,0,377.223,-1149.03,-0.0078125,-0,185.671,214838
0.446228,0.0602417,0.32196,-0.27,-0.317,140.12,140.12,0.012085,1.73708,0,457.268,-1366.03,-0.0078125,-0,185.691,214867
-0.189148,0.255798,1.23212,0.428,-0.017,139.43,139.43,0.0115356,1.73608,0,453.546,-1288.16,-0.0078125,-0,185.71,214882
0.131775,-0.00970459,1.27472,0.018,-0.02,138.73,138.73,0.0113068,1.73509,0,432.704,-1121.2,-0.0078125,-0,185.73,214898
0.0947876,0.0214844,0.728516,0.014,-0.045,137.39,137.39,0.0107727,1.73267,0,480.977,-1411.43,-0.0078125,-0,185.754,214927
0.253418,0.0432129,1.09937,-0.049,-0.15,136.71,136.71,0.0104828,1.73126,0,477.715,-1044.71,-0.0078125,-0,185.77,214942
0.267639,0.0294189,0.560364,-0.116,-0.179,135.38,135.38,0.0102081,1.72812,0,457.844,-1310.96,-0.0078125,-0,185.795,214972
0.429749,0.0523682,1.0224,-0.17,-0.288,134.7,134.7,0.00993347,1.72618,0,478.767,-1286.92,-0.0078125,-0,185.81,214987
-0.057312,0.173279,1.10132,0.264,-0.02,134.01,134.01,0.00970459,1.72401,0,469.561,-1263.58,-0.0078125,-0,185.838,215002
0.161743,-0.0324707,1.36273,-0.01,-0.02,133.34,133.34,0.00965881,1.72183,0,451.223,-1150.15,-0.0078125,-0,185.851,215018
0.26886,0.0217896,0.889404,-0.083,-0.163,132,132,0.00985718,1.71756,0,477.943,-1065.59,-0.0078125,-0,185.871,215047
0.0404053,-0.041687,0.987,0.03,0.054,131.32,131.32,0.00994873,1.71533,0,442.782,-1105.22,-0.0078125,-0,185.89,215062
0.0237427,0.204102,1.48462,0.267,-0.066,130.65,130.65,0.0102386,1.7131,0,499.426,-579.643,-0.0078125,-0,185.911,215078
0.0296021,0.179016,1.25854,0.225,-0.062,129.33,129.33,0.0115814,1.70842,0,451.04,-1380.93,-0.0078125,-0,185.93,215107
0.069519,-0.0552979,0.856812,-0.014,0.032,128.67,128.67,0.0125122,1.70601,0,429.83,-1110.56,-0.0078125,-0,185.951,215122
0.142212,0.118042,1.104,0.096,-0.117,128,128,0.0134888,1.70355,0,513.202,-1237.01,-0.0078125,-0,185.97,215137
0.169922,0.0405273,1.1264,0.022,-0.088,126.66,126.66,0.0157013,1.69801,0,410.055,-1076.48,-0.0078125,-0,185.99,215167
0.252014,0.00341797,0.436096,-0.109,-0.176,125.98,125.98,0.0167694,1.69496,0,487.924,-1255.73,-0.0078125,-0,186.012,215182
-0.00805664,0.262512,1.42346,0.33,-0.051,125.3,125.3,0.0179749,1.69176,0,534.474,-1052.19,-0.0078125,-0,186.031,215197
0.1651,0.172974,1.11542,0.139,-0.155,123.93,123.93,0.0207367,1.68486,0,504.185,-1316.05,-0.0078125,-0,186.051,215227
0.146118,0.0769043,0.954834,0.06,-0.095,123.24,123.24,0.0222626,1.68114,0,431.453,-1220.11,-0.0078125,-0,186.077,215242
0.267151,0.141785,1.04755,0.061,-0.223,121.87,121.87,0.0254822,1.67311,0,527.232,-1256.76,-0.0078125,-0,186.094,215272
0.3797,-0.0198975,0.655884,-0.161,-0.262,121.16,121.16,0.0270386,1.66866,0,560.365,-1175.5,-0.0078125,-0,186.119,215287
0.144775,0.0175781,1.54181,0.06,-0.014,120.46,120.46,0.0285492,1.664,0,437.12,-885.308,-0.0078125,-0,186.131,215302
0.295654,0.00579834,0.656067,-0.089,-0.206,119.74,119.74,0.0300293,1.65919,0,461.138,-1257.23,-0.0078125,-0,186.15,215317
0.192505,0.0505981,0.998291,0.029,-0.111,118.32,118.32,0.033432,1.64908,0,498.504,-1130.58,-0.0078125,-0,186.17,215347
0.109619,0.0057373,1.06696,0.033,-0.011,117.62,117.62,0.0352631,1.64389,0,492.975,-1292.49,-0.0078125,-0,186.19,215362
0.101562,0.186646,1.19104,0.206,-0.077,116.92,116.92,0.0372772,1.63863,0,404.572,-1182.03,-0.0078125,-0,186.21,215377
0.0355835,0.104675,1.22864,0.164,0.026,115.53,115.53,0.0415497,1.62767,0,512.361,-1154.87,-0.0078125,-0,186.23,215407
0.175842,0.119812,1.04218,0.106,-0.12,114.85,114.85,0.0438995,1.62209,0,440.917,-1131.99,-0.0078125,-0,186.25,215422
0.268921,0.0806885,0.712524,0.012,-0.216,114.19,114.19,0.0463409,1.61626,0,495.466,-1017.66,-0.0078125,-0,186.27,215437
0.09021,-0.0267334,1.14807,0.014,0.026,112.85,112.85,0.0514832,1.60464,0,446.638,-1146.13,-0.0078125,-0,186.291,215467
0.0695801,-0.032959,0.940308,0.002,0.028,112.18,112.18,0.0541077,1.59895,0,486.962,-993.69,-0.0078125,-0,186.311,215482
0.0758057,0.026123,1.36597,0.081,0.036,111.51,111.51,0.0568085,1.59329,0,444.326,-1123.03,-0.0078125,-0,186.331,215497
0.115845,0.0967407,1.11957,0.117,-0.046,110.14,110.14,0.0622711,1.58211,0,437.57,-526.233,-0.0078125,-0,186.351,215527
-0.0490112,0.0779419,1.09192,0.153,0.113,109.44,109.44,0.0652161,1.57657,0,438.135,-1144.95,-0.0078125,-0,186.371,215542
0.390503,0.0878906,0.999817,0.013,-0.311,108.77,108.77,0.0682678,1.57089,0,456.215,-1164.01,-0.0078125,-0,186.391,215557
0.060791,0.0120239,0.647827,0.028,-0.004,107.38,107.38,0.0746918,1.55933,0,424.692,-1240.69,-0.0078125,-0,186.411,215587
0.00323486,0.0465088,1.22064,0.109,0.09,106.69,106.69,0.0780334,1.55363,0,442.576,-1161.51,-0.0078125,-0,186.431,215602
-0.0919189,0.0530396,1.10498,0.132,0.172,105.31,105.31,0.0848999,1.5424,0,365.183,-1016.78,-0.0078125,-0,186.456,215632
0.165405,-0.0253296,0.605957,-0.035,-0.098,104.62,104.62,0.0884247,1.53687,0,411.218,-1313.03,-0.0078125,-0,186.472,215647
0.258118,0.0337524,0.61731,0.003,-0.201,103.24,103.24,0.0955658,1.5255,0,376.032,-1173.23,-0.0078125,-0,186.505,215677
0.258118,0.0337524,0.61731,0.003,-0.201,103.24,103.24,0.0955658,1.5255,0,411.142,-1058.2,-0.0078125,-0,186.511,215677
0.184509,0.123169,1.47711,0.149,-0.069,101.83,101.83,0.103104,1.51352,0,394.937,-1293.41,-0.0078125,-0,186.531,215707
0.229309,0.098999,0.605835,0.08,-0.187,101.13,101.13,0.107132,1.50731,0,428.559,-1245.64,-0.0078125,-0,186.551,215722
0.336487,0.0791016,1.08936,0.064,-0.24,100.43,100.43,0.111252,1.50081,0,450.43,-927.73,-0.0078125,-0,186.571,215737
0.138794,0.142212,1.22467,0.166,-0.042,99.07,99.07,0.11972,1.4874,0,460.056,-1048.93,-0.0078125,-0,186.59,215767
0.263367,0.0535278,0.578552,0.036,-0.211,98.4,98.4,0.124146,1.48048,0,396.723,-1122.52,-0.0078125,-0,186.611,215782
0.0985718,0.131592,1.34991,0.165,0.014,97.73,97.73,0.128723,1.47343,0,443.253,-1035.79,-0.0078125,-0,186.631,215797
0.0650635,0.178406,1.11511,0.207,0.025,96.4,96.4,0.13829,1.45894,0,443.194,-1209.63,-0.0078125,-0,186.652,215827
0.118408,0.178711,1.04346,0.199,-0.03,95.04,95.04,0.148422,1.44429,0,474.654,-1203.88,-0.0078125,-0,186.682,215857
0.334595,0.0145264,0.584839,0.006,-0.273,94.36,94.36,0.153702,1.43675,0,533.575,-1382.84,-0.0078125,-0,186.703,215872
-0.0112305,0.0100098,1.4118,0.048,0.153,93.66,93.66,0.159027,1.42914,0,454.36,-1339.14,-0.0078125,-0,186.71,215887
0.271851,0.0101318,0.865234,0.018,-0.183,92.98,92.98,0.164383,1.42149,0,457.018,-1263.98,-0.0078125,-0,186.73,215902
0.081604,0.100098,0.842407,0.117,0,92.29,92.29,0.169846,1.41373,0,456.684,-1194.46,-0.0078125,-0,186.751,215917
0.0407104,-0.0604248,0.927063,-0.039,0.057,90.86,90.86,0.18103,1.39833,0,436.243,-1325.38,-0.0078125,-0,186.77,215947
0.211609,0.185913,1.07294,0.209,-0.099,90.15,90.15,0.186752,1.39066,0,440.306,-972.952,-0.0078125,-0,186.79,215962
0.295227,0.0844116,0.622742,0.1,-0.225,89.42,89.42,0.192688,1.38275,0,438.27,-1309.33,-0.0078125,-0,186.81,215977
0.0308838,0.0224609,0.684021,0.035,0.043,87.97,87.97,0.205048,1.36697,0,464.533,-1357.5,-0.0078125,-0,186.83,216007
0.0990601,0.0351562,0.996216,0.056,0.009,87.25,87.25,0.211365,1.35919,0,463.65,-1052.41,-0.0078125,-0,186.85,216022
0.188232,-0.0577393,0.729492,-0.035,-0.111,86.53,86.53,0.217697,1.35133,0,453.504,-1169.18,-0.0078125,-0,186.87,216037
0.152771,0.00177002,0.81842,0.025,-0.063,85.11,85.11,0.23056,1.33604,0,513.11,-1242.08,-0.0078125,-0,186.89,216067
-0.0710449,-0.0130615,1.01263,-0.008,0.179,84.4,84.4,0.237061,1.32855,0,482.346,-1073.88,-0.0078125,-0,186.91,216082
0.0518188,-0.0631714,0.662231,-0.05,0.013,83.69,83.69,0.243515,1.3212,0,471.676,-1199.4,-0.0078125,-0,186.93,216097
0.285034,0.071167,1.06805,0.116,-0.158,82.28,82.28,0.256287,1.30704,0,438.423,-1358.97,-0.0078125,-0,186.95,216127
0.170471,0.0595093,1.02386,0.089,-0.05,81.58,81.58,0.262833,1.29988,0,435.246,-1191.33,-0.0078125,-0,186.97,216142
0.23877,0.0109863,0.880249,0.052,-0.138,80.86,80.86,0.269485,1.2926,0,421.212,-1222.05,-0.0078125,-0,186.99,216157
-0.0314331,-0.0200195,1.17114,-0.023,0.153,79.41,79.41,0.283035,1.27803,0,450.035,-854.957,-0.0078125,-0,187.01,216187
0.122986,0.036438,0.848511,0.06,-0.022,78.68,78.68,0.289856,1.2709,0,443.902,-1102.66,-0.0078125,-0,187.03,216202
0.00512695,0.0198364,1.04236,0.019,0.111,77.97,77.97,0.296738,1.26384,0,465.279,-1115.08,-0.0078125,-0,187.05,216217
-0.0154419,0.0948486,0.898804,0.086,0.132,76.52,76.52,0.310532,1.25024,0,461.521,-898.634,-0.0078125,-0,187.071,216246
0.110107,-0.0238037,0.699768,0.001,-0.037,75.81,75.81,0.317505,1.24361,0,402.593,-1215.66,-0.0078125,-0,187.09,216261
0.101135,0.129089,0.963806,0.145,0.037,75.09,75.09,0.32457,1.23697,0,415.265,-1332.27,-0.0078125,-0,187.11,216277
0.0714111,0.0646362,1.12689,0.074,0.068,73.62,73.62,0.339111,1.22388,0,391.658,-1084.07,-0.0078125,-0,187.13,216306
0.11499,0.036438,1.0816,0.06,0.013,72.9,72.9,0.346527,1.21742,0,432.741,-1245.87,-0.0078125,-0,187.15,216321
0.0386963,0.0548096,1.18719,0.052,0.103,70.74,70.74,0.369232,1.19783,0,486.169,-1265.66,-0.0078125,-0,187.192,216366
0.323059,0.0371094,0.511963,0.139,-0.236,70.01,70.01,0.377029,1.19119,0,450.349,-1412.83,-0.0078125,-0,187.211,216381
0.151794,0.158569,1.09357,0.188,0.027,69.3,69.3,0.38504,1.18442,0,452.663,-1044,-0.0078125,-0,187.231,216397
0.00354004,0.235046,1.35413,0.201,0.22,67.88,67.88,0.401642,1.17104,0,457.97,-1180.36,-0.0078125,-0,187.25,216426
0.225769,0.09021,0.622009,0.162,-0.11,67.19,67.19,0.410294,1.16451,0,464.08,-1317.96,-0.0078125,-0,187.272,216441
0.00622559,0.189148,1.1543,0.156,0.185,66.49,66.49,0.419174,1.15802,0,435.436,-1103.33,-0.0078125,-0,187.291,216457
0.334351,0.0957031,0.537354,0.217,-0.209,65.11,65.11,0.437393,1.14526,0,396.755,-1294.5,-0.0078125,-0,187.311,216486
0.0442505,0.146606,1.0282,0.13,0.123,64.42,64.42,0.446838,1.13878,0,457.425,-1106.38,-0.0078125,-0,187.335,216501
0.0255127,0.144897,1.06946,0.117,0.146,63.03,63.03,0.466141,1.12617,0,480.642,-1163.26,-0.0078125,-0,187.355,216531
0.0973511,-0.00323486,0.693237,0.026,-0.02,62.36,62.36,0.475952,1.12003,0,433.191,-1175.23,-0.0078125,-0,187.371,216546
-0.115173,0.0365601,0.884644,-0.043,0.203,61.66,61.66,0.485764,1.114,0,443.41,-1192.18,-0.0078125,-0,187.39,216561
0.186096,0.0502319,0.846985,0.112,-0.057,60.96,60.96,0.495621,1.10808,0,410.99,-1254.55,-0.0078125,-0,187.41,216577
0.212891,0.03479,0.720825,0.117,-0.097,59.57,59.57,0.515686,1.09637,0,472.769,-1075.21,-0.0078125,-0,187.431,216606
0.0939941,0.135315,1.03027,0.132,0.086,58.84,58.84,0.52597,1.09053,0,437.57,-1234.11,-0.0078125,-0,187.45,216621
0.25708,-0.0335083,0.726257,0.082,-0.164,58.12,58.12,0.536377,1.08464,0,463.811,-1254.47,-0.0078125,-0,187.47,216637
0.128296,0.0609741,0.584167,0.101,-0.017,56.64,56.64,0.557312,1.07301,0,458.442,-1032.79,-0.0078125,-0,187.49,216666
0.156677,0.11145,0.574951,0.159,-0.012,55.93,55.93,0.567978,1.06726,0,460.734,-1284.44,-0.0078125,-0,187.51,216681
0.164612,-0.0812378,0.896545,-0.007,-0.094,55.21,55.21,0.578735,1.06142,0,438.799,-1053.3,-0.0078125,-0,187.531,216697
0.249268,-0.0487671,0.510193,0.086,-0.178,53.75,53.75,0.600418,1.04955,0,448.773,-1179.18,-0.0078125,-0,187.55,216726
0.189941,0.0830688,0.770447,0.147,-0.026,53,53,0.61145,1.04343,0,423.783,-1168.36,-0.0078125,-0,187.57,216741
-0.022522,0.0535278,0.744385,-0.005,0.121,51.55,51.55,0.633774,1.03131,0,432.769,-1226.02,-0.0078125,-0,187.602,216771
0.0997925,0.0406494,0.988953,0.047,0.043,50.1,50.1,0.656784,1.01942,0,438.251,-1216.25,-0.0078125,-0,187.626,216801
0.206909,-0.0475464,1.18201,0.039,-0.077,49.37,49.37,0.668472,1.01346,0,409.836,-1183.57,-0.0078125,-0,187.643,216817
0.206909,-0.0475464,1.18201,0.039,-0.077,49.37,49.37,0.668472,1.01346,0,453.474,-977.995,-0.0078125,-0,187.651,216817
0.145447,0.0457153,0.813904,0.089,-0.001,47.94,47.94,0.692276,1.0014,0,452.499,-1083.6,-0.0078125,-0,187.67,216846
-0.119202,0.0143433,1.20807,-0.134,0.203,47.2,47.2,0.704239,0.995514,0,443.341,-1280.57,-0.0078125,-0,187.69,216861
0.235535,0.0425415,0.742737,0.153,-0.075,46.49,46.49,0.716202,0.989716,0,462.899,-1333.16,-0.0078125,-0,187.71,216877
0.150024,0.155273,1.06836,0.157,0.095,45.06,45.06,0.740463,0.978363,0,462.899,-997.456,-0.0078125,-0,187.73,216906
0.154175,0.0575562,0.513489,0.121,-0.022,44.35,44.35,0.752853,0.972824,0,448.089,-1156.07,-0.0078125,-0,187.75,216921
0.0496216,0.0489502,1.23682,-0.001,0.102,43.64,43.64,0.76532,0.967331,0,393.376,-1017.09,-0.0078125,-0,187.77,216937
0.0860596,0.0615234,0.924988,0.051,0.061,42.22,42.22,0.790558,0.956589,0,512.282,-1226.39,-0.0078125,-0,187.79,216966
0.149048,-0.00793457,0.674072,0.066,-0.05,41.51,41.51,0.803314,0.951263,0,447.828,-1404.79,-0.0078125,-0,187.811,216981
0.132019,0.00799561,0.993958,0.044,0,40.77,40.77,0.816162,0.945892,0,390.099,-1194.53,-0.0078125,-0,187.831,216996
0.279541,-0.000671387,0.829956,0.164,-0.11,39.31,39.31,0.842484,0.935028,0,475.602,-1224.96,-0.0078125,-0,187.85,217026
0.0217896,-0.0351562,0.922424,-0.063,0.032,38.59,38.59,0.85585,0.929489,0,456.433,-1123.15,-0.0078125,-0,187.871,217041
0.148071,0.00860596,1.27258,0.04,0.016,37.86,37.86,0.869186,0.923981,0,449.398,-1083.13,-0.0078125,-0,187.891,217056
0.386475,0.116699,0.916321,0.319,-0.06,36.44,36.44,0.896378,0.912643,0,448.34,-1044.11,-0.0078125,-0,187.911,217086
0.113037,0.0499878,0.725891,0.07,0.033,35.71,35.71,0.9104,0.906891,0,385.431,-1206.05,-0.0078125,-0,187.93,217101
-0.160278,0.0703735,1.37744,-0.188,0.259,34.98,34.98,0.924332,0.901321,0,420.442,-989.413,-0.0078125,-0,187.951,217116
0.584595,-0.0866089,0.374268,0.411,-0.36,33.54,33.54,0.952545,0.890228,0,482.765,-1186.94,-0.0078125,-0,187.97,217146
0.0263062,0.160461,1.35516,0.007,0.231,32.79,32.79,0.967148,0.88446,0,407.772,-1251.72,-0.0078125,-0,187.991,217161
0.196228,0.0996094,1.48529,0.108,0.099,32.07,32.07,0.981827,0.878906,0,454.804,-1016.05,-0.0078125,-0,188.01,217176
-0.104675,0.093689,1.29956,-0.141,0.235,30.65,30.65,1.0119,0.867737,0,470.865,-1099.81,-0.0078125,-0,188.034,217206
0.101868,0.0431519,0.735107,0.053,0.044,29.93,29.93,1.02695,0.86235,0,423.855,-1266.78,-0.0078125,-0,188.051,217221
-0.000183105,-0.00457764,1.0011,-0.079,0.072,29.21,29.21,1.04196,0.857056,0,411.108,-1114.45,-0.0078125,-0,188.071,217236
0.15979,0.0264282,0.911621,0.083,0.016,27.77,27.77,1.07211,0.846588,0,438.635,-1195.96,-0.0078125,-0,188.091,217266
0.0723877,0.111328,0.653076,0.064,0.114,27.04,27.04,1.08734,0.841461,0,410.105,-891.186,-0.0078125,-0,188.111,217281
0.177002,0.119324,1.18817,0.117,0.115,26.3,26.3,1.10269,0.836487,0,469.726,-1108.83,-0.0078125,-0,188.131,217296
0.124939,0.0930176,0.808044,0.089,0.088,24.83,24.83,1.13379,0.826874,0,412.814,-1164.14,-0.0078125,-0,188.151,217326
0.0998535,0.034668,0.805237,0.041,0.047,24.1,24.1,1.14948,0.822189,0,450.775,-1025.06,-0.0078125,-0,188.171,217341
0.0386963,-0.0139771,1.28217,-0.071,0.058,23.37,23.37,1.16515,0.817596,0,403.828,-1339.41,-0.0078125,-0,188.19,217356
0.0701904,0.125732,0.626953,0.061,0.134,21.93,21.93,1.19652,0.808563,0,524.797,-1109.32,-0.0078125,-0,188.21,217386
0.0916748,0.416992,1.02448,0.154,0.423,21.19,21.19,1.21239,0.804474,0,548.862,-930.146,-0.0078125,-0,188.235,217401
-0.0508423,0.23999,1.32129,-0.068,0.321,20.57,20.57,1.22832,0.800888,0,549.617,-797.512,-0.0078125,-0,188.251,217416
0.0303345,0.309143,0.660095,0.082,0.316,19.58,19.58,1.25989,0.794876,0,583.277,-880.708,-0.0078125,-0,188.272,217446
-0.260132,0.223328,1.71472,-0.295,0.378,19.18,19.18,1.27551,0.792526,0,577.151,-795.482,-0.0078125,-0,188.29,217461
-0.292786,0.215759,0.895996,-0.267,0.337,18.86,18.86,1.29076,0.790665,0,698.056,-766.284,-0.0078125,-0,188.312,217476
-0.170898,0.179321,1.16388,-0.177,0.266,18.44,18.44,1.32024,0.788147,0,683.948,-625.352,-0.0078125,-0,188.33,217506
-0.415833,0.159485,0.846436,-0.394,0.31,18.32,18.32,1.33446,0.78746,0,671.953,-676.315,-0.0078125,-0,188.35,217521
-0.16748,0.261108,0.860779,-0.124,0.326,18.28,18.28,1.34831,0.787216,0,675.721,-469.473,-0.0078125,-0,188.37,217536
0.0782471,0.149536,1.08435,0.06,0.145,18.3,18.3,1.37604,0.787262,0,642.199,-589.814,-0.0078125,-0,188.39,217566
0.0640259,0.105164,1.06543,0.033,0.105,18.32,18.32,1.39001,0.787521,0,594.036,-784.16,-0.0078125,-0,188.41,217581
0.0946045,0.225464,1.04901,0.101,0.207,18.32,18.32,1.41803,0.788406,0,601.522,-736.947,-0.0078125,-0,188.435,217611
0.0463867,0.142334,0.885132,0.038,0.138,18.3,18.3,1.43217,0.789169,0,663.416,-510.53,-0.0078125,-0,188.452,217626
0.156799,0.0836182,1.24347,0.104,0.049,18.34,18.34,1.46046,0.791382,0,564.477,-577.701,-0.0078125,-0,188.491,217656
0.141357,0.0836792,0.832336,0.112,0.047,18.35,18.35,1.47478,0.792648,0,543.39,-411.1,-0.0078125,-0,188.496,217671
0.0114746,0.0872192,0.889099,-0.013,0.091,18.33,18.33,1.48917,0.794006,0,565.659,-550.04,-0.0078125,-0,188.511,217686
0.127258,0.0670776,0.676697,0.102,0.031,18.32,18.32,1.51801,0.797043,0,489.416,-546.762,-0.0078125,-0,188.54,217716
0.127258,0.0670776,0.676697,0.102,0.031,18.32,18.32,1.51801,0.797043,0,526.954,-530.251,-0.0078125,-0,188.551,217716
0.100647,0.0681152,0.930664,0.063,0.04,18.3,18.3,1.54683,0.800537,0,469.417,-469.649,-0.0078125,-0,188.576,217746
-0.0355835,0.110046,0.899719,-0.051,0.122,18.28,18.28,1.56123,0.802444,0,523.054,-541.609,-0.0078125,-0,188.591,217761
0.0942383,0.0986938,0.875061,0.069,0.069,18.26,18.26,1.58995,0.806732,0,525.5,-487.08,-0.0078125,-0,188.619,217791
0.0504761,0.103516,0.992371,0.022,0.087,18.26,18.26,1.60439,0.809036,0,433.764,-356.792,-0.0078125,-0,188.631,217806
0.0387573,0.0928345,1.00891,0.007,0.079,18.25,18.25,1.61884,0.811462,0,436.948,-493.73,-0.0078125,-0,188.654,217821
-0.0220337,0.119263,0.89563,-0.035,0.122,18.24,18.24,1.63329,0.814026,0,414.491,-524.123,-0.0078125,-0,188.671,217836
0.0220947,0.0638428,0.788818,-0.004,0.053,18.22,18.22,1.6622,0.819519,0,404.384,-475.353,-0.0078125,-0,188.691,217866
0.0338135,0.141418,1.05646,0.015,0.123,18.2,18.2,1.6622,0.822433,0,397.994,-351.007,-0.0078125,-0,188.711,217881
0.00213623,0.0973511,0.909119,-0.019,0.09,18.18,18.18,1.6622,0.825485,0,358.198,-425.36,-0.0078125,-0,188.732,217896
0.0891113,0.0718384,1.13177,0.041,0.037,18.17,18.17,1.66222,0.831833,0,349.663,-444.119,-0.0078125,-0,188.75,217926
-0.0651855,0.115356,0.807556,-0.073,0.127,18.16,18.16,1.66222,0.835129,0,341.845,-381.811,-0.0078125,-0,188.771,217941
0.00799561,0.0874023,0.961853,-0.021,0.075,18.16,18.16,1.66216,0.838577,0,351.013,-399.928,-0.0078125,-0,188.79,217956
-0.0144653,0.126526,0.953186,-0.031,0.119,18.15,18.15,1.66214,0.845703,0,323.201,-303.651,-0.0078125,-0,188.81,217986
0.00683594,0.143799,0.901367,-0.002,0.128,18.13,18.13,1.66211,0.849487,0,307.494,-348.949,-0.0078125,-0,188.83,218000
0.0341187,0.0947876,0.950623,0.004,0.071,18.14,18.14,1.66209,0.853409,0,324.486,-361.781,-0.0078125,-0,188.85,218016
0.0210571,0.113647,0.940552,-0.001,0.092,18.14,18.14,1.66209,0.861526,0,284.572,-283.423,-0.0078125,-0,188.871,218045
0.0158691,0.120544,0.979431,-0.006,0.099,18.12,18.12,1.66209,0.865768,0,317.128,-292.723,-0.0078125,-0,188.89,218061
0.0672607,0.102173,0.915649,0.039,0.065,18.12,18.12,1.66212,0.870117,0,266.404,-268.871,-0.0078125,-0,188.91,218076
0.0106201,0.0974731,0.973999,-0.018,0.076,18.11,18.11,1.66222,0.879105,0,261.192,-225.825,-0.0078125,-0,188.931,218105
-0.00872803,0.116394,0.944946,-0.029,0.1,18.1,18.1,1.66222,0.883774,0,231.495,-242.142,-0.0078125,-0,188.951,218120
0.0406494,0.12439,0.920044,0.021,0.091,18.1,18.1,1.66228,0.893402,0,240.573,-128.459,-0.0078125,-0,188.971,218150
0.0441284,0.0943604,0.983582,0.011,0.059,18.1,18.1,1.66235,0.898376,0,207.57,-177.552,-0.0078125,-0,188.995,218165
0.0514526,0.0783691,0.956116,0.014,0.042,18.1,18.1,1.66245,0.903412,0,192.643,-197.521,-0.0078125,-0,189.012,218180
-0.00482178,0.0721436,0.93158,-0.038,0.052,18.1,18.1,1.66254,0.913727,0,174.274,-182.269,-0.0078125,-0,189.031,218210
0.0404053,0.0959473,0.961975,0.009,0.06,18.1,18.1,1.66255,0.919006,0,176.219,-188.214,-0.0078125,-0,189.051,218225
0.0219727,0.103699,0.92511,-0.003,0.072,18.09,18.09,1.66255,0.92984,0,165.999,-175.931,-0.0078125,-0,189.084,218256
0.0548706,0.0830688,0.974976,0.018,0.04,18.09,18.09,1.66255,0.935379,0,152.098,-175.259,-0.0078125,-0,189.093,218270
0.017334,0.0568237,0.921509,-0.022,0.028,18.1,18.1,1.66254,0.940964,0,127.027,-121.695,-0.0078125,-0,189.111,218285
0.020874,0.0909424,0.984436,-0.012,0.057,18.1,18.1,1.66252,0.946594,0,114.409,-118.153,-0.0078125,-0,189.131,218300
0.0350952,0.098938,1.00323,0.002,0.058,18.09,18.09,1.66249,0.958176,0,108.731,-109.82,-0.0078125,-0,189.153,218330
0.0236816,0.0930786,0.918762,-0.004,0.058,18.08,18.08,1.66249,0.964096,0,103.167,-101.585,-0.0078125,-0,189.173,218345
0.0283203,0.0984497,0.953979,0,0.06,18.08,18.08,1.66249,0.970093,0,90.5974,-98.1003,-0.0078125,-0,189.19,218360
0.0152588,0.0863037,0.946533,-0.016,0.052,18.09,18.09,1.66249,0.982269,0,80.1523,-82.6132,-0.0078125,-0,189.211,218390
0.0383301,0.0834961,0.956421,0.004,0.041,18.08,18.08,1.66249,0.988449,0,63.4105,-73.5448,-0.0078125,-0,189.234,218405
0.0479736,0.106567,0.938904,0.021,0.06,18.08,18.08,1.66251,0.994705,0,59.0256,-65.6976,-0.0078125,-0,189.251,218420
0.0285034,0.108032,0.960388,0.001,0.066,18.08,18.08,1.66254,1.00104,0,46.4309,-58.0403,-0.0078125,-0,189.27,218436
0.0336304,0.0943604,0.965698,0.002,0.05,18.08,18.08,1.66257,1.01395,0,43.3697,-44.206,-0.0078125,-0,189.291,218465
0.046875,0.0727539,0.936707,0.009,0.026,18.09,18.09,1.66257,1.02049,0,28.3717,-25.8239,-0.0078125,-0,189.311,218480
0.0187988,0.112366,0.959045,-0.005,0.071,18.08,18.08,1.66257,1.0271,0,28.3717,-25.8239,-0.0078125,-0,189.332,218496
0.0307617,0.102844,0.96582,0.002,0.057,18.08,18.08,1.66257,1.04051,0,28.3717,-25.8239,-0.0078125,-0,189.351,218525
0.0361938,0.0560303,0.948303,-0.006,0.011,18.07,18.07,1.66257,1.04729,0,28.3717,-25.8239,-0.0078125,-0,189.371,218540
0.036377,0.0427246,0.950989,-0.01,-0.001,18.07,18.07,1.66257,1.04729,0,28.3717,-25.8239,-0.0078125,-0,189.391,218556
0.0305176,0.0262451,0.933655,-0.019,-0.014,18.08,18.08,1.66249,1.04729,0,4.23092,-25.8239,-0.0078125,-0,189.411,218585
0.0287476,0.0217896,0.927856,-0.021,-0.017,18.08,18.08,1.66231,1.04729,0,-3.77524,0,-0.0078125,-0,189.438,218616
0.0299072,0.0192261,0.965637,-0.023,-0.021,18.08,18.08,1.66216,1.04726,0,-7.15257,0,-0.0078125,-0,189.451,218630
0.0334473,0.0158081,0.933899,-0.018,-0.024,18.08,18.08,1.66199,1.04721,0,-16.284,3.14142,-0.0078125,-0,189.47,218645
0.031311,0.0112915,0.962952,-0.023,-0.028,18.08,18.08,1.66179,1.0471,0,-16.0242,5.84008,-0.0078125,-0,189.494,218660
0.0258789,0.0098877,0.952087,-0.028,-0.027,18.08,18.08,1.66129,1.0468,0,-16.0242,11.7636,-0.0078125,-0,189.512,218690
0.0292358,-0.00012207,0.941101,-0.027,-0.037,18.08,18.08,1.66098,1.04657,0,-13.4631,11.7378,-0.0078125,-0,189.534,218705
0.0325317,0.000366211,0.947205,-0.023,-0.037,18.08,18.08,1.66064,1.0463,0,-11.2977,10.5236,-0.0078125,-0,189.551,218721
0.0255127,0.00177002,0.946777,-0.029,-0.033,18.08,18.08,1.65984,1.04561,0,-11.2977,10.5236,-0.0078125,-0,189.57,218750
0.0338135,0.000732422,0.957092,-0.022,-0.036,18.08,18.08,1.65938,1.0452,0,-11.2977,10.5236,-0.0078125,-0,189.591,218765
0.0218506,0.0090332,0.946716,-0.03,-0.024,18.09,18.09,1.65889,1.04474,0,-11.2977,10.5236,-0.0078125,-0,189.615,218780
0.0290527,0.015686,0.951721,-0.021,-0.02,18.09,18.09,1.65837,1.04425,0,-11.2977,10.5236,-0.0078125,-0,189.63,218795
0.0238647,0.0209961,0.9505,-0.023,-0.013,18.09,18.09,1.65723,1.0432,0,-11.2977,10.5236,-0.0078125,-0,189.653,218825
0.0298462,0.0222168,0.9505,-0.017,-0.013,18.09,18.09,1.65662,1.04265,0,-11.2977,10.5236,-0.0078125,-0,189.67,218840
0.0275879,0.0213623,0.950928,-0.019,-0.013,18.09,18.09,1.65599,1.04265,0,-11.2977,10.5236,-0.0078125,-0,189.69,218855
0.0306396,0.0239868,0.944031,-0.015,-0.011,18.09,18.09,1.65463,1.04265,0,-11.2977,10.5236,-0.0078125,-0,189.71,218885
0.0330811,0.0218506,0.942505,-0.013,-0.014,18.09,18.09,1.65392,1.04265,0,-11.2977,10.5236,-0.0078125,-0,189.738,218915
0.0330811,0.0218506,0.942505,-0.013,-0.014,18.09,18.09,1.65392,1.04265,0,-11.2977,10.5236,-0.0078125,-0,189.75,218915
0.0264282,0.0203857,0.952271,-0.02,-0.013,18.09,18.09,1.65384,1.04265,0,-11.2977,10.5236,-0.0078125,-0,189.777,218945
0.0306396,0.0188599,0.951233,-0.016,-0.016,18.09,18.09,1.65376,1.04265,0,-11.2977,10.5236,-0.0078125,-0,189.791,218960
0.0322266,0.0167847,0.948059,-0.015,-0.018,18.09,18.09,1.65353,1.04265,0,-11.2977,10.5236,-0.0078125,-0,189.812,218990
0.0303345,0.0188599,0.949097,-0.016,-0.015,18.09,18.09,1.65338,1.04265,0,-11.2977,10.5236,-0.0078125,-0,189.831,219005
0.0267334,0.0197754,0.944702,-0.018,-0.013,18.08,18.08,1.65338,1.04265,0,-11.2977,10.5236,-0.0078125,-0,189.865,219035
0.0267944,0.0161133,0.941345,-0.019,-0.016,18.08,18.08,1.65338,1.04265,0,-11.2977,10.5236,-0.0078125,-0,189.87,219050
0.0281982,0.020752,0.954895,-0.017,-0.012,18.08,18.08,1.65338,1.04265,0,-11.2977,10.5236,-0.0078125,-0,189.898,219065
0.0291138,0.0189819,0.94696,-0.016,-0.014,18.08,18.08,1.65338,1.04265,0,-11.2977,10.5236,-0.0078125,-0,189.912,219080
0.0291138,0.0213623,0.947266,-0.015,-0.011,18.09,18.09,1.65338,1.04265,0,-11.2977,10.5236,-0.0078125,-0,189.932,219110
0.0302124,0.0195312,0.950684,-0.014,-0.013,18.09,18.09,1.65338,1.04265,0,-11.2977,10.5236,-0.0078125,-0,189.951,219125
0.0292969,0.0229492,0.946472,-0.014,-0.01,18.09,18.09,1.65338,1.04265,0,0,0,-0.0078125,-0,189.973,219140
0.0298462,0.0200806,0.953491,-0.014,-0.012,18.09,18.09,1.65338,1.04265,0,0,0,-0.0078125,-0,189.99,219155
0.0271606,0.019104,0.952026,-0.017,-0.012,18.09,18.09,1.65338,1.04265,0,0,0,-0.0078125,-0,190.01,219185
0.0303955,0.0179443,0.940735,-0.013,-0.014,18.09,18.09,1.65338,1.04265,0,0,0,-0.0078125,-0,190.031,219200
0.0262451,0.0221558,0.958374,-0.017,-0.009,18.09,18.09,1.65338,1.04265,0,0,0,-0.0078125,-0,190.051,219215
0.0304565,0.0216675,0.950378,-0.012,-0.01,18.09,18.09,1.65338,1.04265,0,0,0,-0.0078125,-0,190.074,219245
0.0291748,0.0211182,0.936829,-0.013,-0.01,18.08,18.08,1.65338,1.04265,0,0,0,-0.0078125,-0,190.09,219260
0.0272217,0.0197754,0.958557,-0.016,-0.011,18.09,18.09,1.65338,1.04265,0,0,0,-0.0078125,-0,190.11,219275
0.0292969,0.0160522,0.954407,-0.015,-0.015,18.08,18.08,1.65338,1.04265,0,0,0,-0.0078125,-0,190.13,219305
0.0280151,0.0166016,0.942322,-0.015,-0.013,18.08,18.08,1.65338,1.04265,0,0,0,-0.0078125,-0,190.15,219320
0.0285034,0.0175171,0.953796,-0.014,-0.013,18.08,18.08,1.65338,1.04265,0,0,0,-0.0078125,-0,190.17,219350
0.0304565,0.0185547,0.941895,-0.011,-0.012,18.08,18.08,1.65338,1.04265,0,0,0,-0.0078125,-0,190.19,219365
0.0274048,0.0184326,0.951538,-0.015,-0.011,18.08,18.08,1.65338,1.04265,0,0,0,-0.0078125,-0,190.213,219380
0.0294189,0.0237427,0.961975,-0.011,-0.007,18.08,18.08,1.65338,1.04265,0,0,0,-0.0078125,-0,190.23,219410
0.02948,0.0180054,0.952332,-0.012,-0.012,18.08,18.08,1.65338,1.04265,0,0,0,-0.0078125,-0,190.255,219425
0.0325317,0.019043,0.960815,-0.01,-0.012,18.08,18.08,1.65338,1.04265,0,0,0,-0.0078125,-0,190.273,219440
0.0299683,0.0162964,0.937073,-0.012,-0.013,18.08,18.08,1.65338,1.04265,0,0,0,-0.0078125,-0,190.291,219455
0.0298462,0.0211182,0.939331,-0.01,-0.008,18.09,18.09,1.65338,1.04265,0,0,0,-0.0078125,-0,190.315,219485
0.0272217,0.0186768,0.950256,-0.014,-0.01,18.09,18.09,1.65338,1.04265,0,0,0,-0.0078125,-0,190.33,219500
0.0268555,0.0198975,0.958679,-0.014,-0.009,18.09,18.09,1.65338,1.04265,0,0,0,-0.0078125,-0,190.359,219530
0.0282593,0.0214233,0.947998,-0.011,-0.007,18.09,18.09,1.65338,1.04265,0,0,0,-0.0078125,-0,190.387,219560
0.0282593,0.0214233,0.947998,-0.011,-0.007,18.09,18.09,1.65338,1.04265,0,0,0,-0.0078125,-0,190.391,219560
0.0286865,0.0211792,0.952698,-0.011,-0.008,18.09,18.09,1.65338,1.04265,0,0,0,-0.0078125,-0,190.429,219605
0.0255737,0.0214844,0.952026,-0.013,-0.006,18.09,18.09,1.65338,1.04265,0,0,0,-0.0078125,-0,190.47,219635
0.027771,0.0194092,0.947937,-0.011,-0.008,18.08,18.08,1.65338,1.04265,0,0,0,-0.0078125,-0,190.491,219665
0.0253906,0.0211792,0.94165,-0.013,-0.006,18.08,18.08,1.65338,1.04265,0,0,0,-0.0078125,-0,190.511,219680
0.0303955,0.0202026,0.949463,-0.008,-0.008,18.08,18.08,1.65338,1.04265,0,0,0,-0.0078125,-0,190.53,219695
0.0286865,0.0204468,0.951416,-0.01,-0.007,18.08,18.08,1.65338,1.04265,0,0,0,-0.0078125,-0,190.551,219725
0.0297852,0.0175171,0.949585,-0.01,-0.011,18.08,18.08,1.65338,1.04265,0,0,0,-0.0078125,-0,190.57,219740
0.0325317,0.019104,0.948303,-0.006,-0.01,18.08,18.08,1.65338,1.04265,0,0,0,-0.0078125,-0,190.594,219770
0.0292358,0.0184937,0.948242,-0.009,-0.009,18.08,18.08,1.65338,1.04265,0,0,0,-0.0078125,-0,190.61,219785
0.0291138,0.0187988,0.937317,-0.009,-0.008,18.08,18.08,1.65338,1.04265,0,0,0,-0.0078125,-0,190.631,219799
0.0290527,0.0228882,0.960022,-0.008,-0.005,18.08,18.08,1.65338,1.04265,0,0,0,-0.0078125,-0,190.652,219829
0.0250854,0.0227661,0.951965,-0.012,-0.003,18.08,18.08,1.65338,1.04265,0,0,0,-0.0078125,-0,190.671,219844
0.0291748,0.0246582,0.950256,-0.007,-0.003,18.08,18.08,1.65338,1.04265,0,0,0,-0.0078125,-0,190.691,219859
0.0296021,0.0202637,0.94043,-0.008,-0.007,18.08,18.08,1.65338,1.04265,0,0,0,-0.0078125,-0,190.71,219875
0.0279541,0.019104,0.94458,-0.01,-0.007,18.08,18.08,1.65338,1.04265,0,0,0,-0.0078125,-0,190.731,219904
0.0274048,0.0194092,0.954651,-0.01,-0.007,18.08,18.08,1.65338,1.04265,0,0,0,-0.0078125,-0,190.751,219919
0.0288086,0.0170898,0.940796,-0.009,-0.009,18.08,18.08,1.65338,1.04265,0,0,0,-0.0078125,-0,190.771,219935
0.0320435,0.0216675,0.941589,-0.004,-0.006,18.08,18.08,1.65338,1.04265,0,0,0,-0.0078125,-0,190.792,219964
0.0278931,0.0210571,0.9552,-0.009,-0.005,18.08,18.08,1.65338,1.04265,0,0,0,-0.0078125,-0,190.813,219979
0.0307007,0.0198975,0.950378,-0.006,-0.007,18.08,18.08,1.65338,1.04265,0,0,0,-0.0078125,-0,190.83,220009
0.0300293,0.0200806,0.950439,-0.007,-0.007,18.08,18.08,1.65338,1.04265,0,0,0,-0.0078125,-0,190.851,220024
0.0310059,0.0195312,0.947327,-0.006,-0.007,18.08,18.08,1.65338,1.04265,0,0,0,-0.0078125,-0,190.872,220039
0.0269165,0.0216675,0.953979,-0.009,-0.004,18.08,18.08,1.65338,1.04265,0,0,0,-0.0078125,-0,190.891,220055
0.0291748,0.0203247,0.953918,-0.007,-0.006,18.09,18.09,1.65338,1.04265,0,0,0,-0.0078125,-0,190.912,220084
0.0261841,0.0216064,0.957031,-0.01,-0.004,18.09,18.09,1.65338,1.04265,0,0,0,-0.0078125,-0,190.95,220115
0.0267944,0.0216675,0.94751,-0.008,-0.004,18.09,18.09,1.65338,1.04265,0,0,0,-0.0078125,-0,190.953,220129
0.0255127,0.0211182,0.953857,-0.01,-0.004,18.08,18.08,1.65338,1.04265,0,0,0,-0.0078125,-0,190.972,220144
0.03125,0.0203247,0.946594,-0.004,-0.006,18.08,18.08,1.65338,1.04265,0,0,0,-0.0078125,-0,190.99,220159
0.0300293,0.0202637,0.954346,-0.006,-0.006,18.08,18.08,1.65338,1.04265,0,0,0,-0.0078125,-0,191.01,220175
0.0278931,0.0168457,0.952515,-0.009,-0.008,18.08,18.08,1.65338,1.04265,0,0,0,-0.0078125,-0,191.03,220204
0.0279541,0.0183105,0.94397,-0.008,-0.007,18.08,18.08,1.65338,1.04265,0,0,0,-0.0078125,-0,191.05,220219
0.0281982,0.0200806,0.950989,-0.007,-0.005,18.08,18.08,1.65338,1.04265,0,0,0,-0.0078125,-0,191.07,220235
0.0310669,0.0218506,0.95343,-0.004,-0.004,18.08,18.08,1.65338,1.04265,0,0,0,-0.0078125,-0,191.107,220279
0.0310669,0.0218506,0.95343,-0.004,-0.004,18.08,18.08,1.65338,1.04265,0,0,0,-0.0078125,-0,191.112,220279
0.0281372,0.0200806,0.949402,-0.007,-0.005,18.08,18.08,1.65338,1.04265,0,0,0,-0.0078125,-0,191.131,220295
0.0287476,0.0187378,0.945862,-0.006,-0.006,18.08,18.08,1.65338,1.04265,0,0,0,-0.0078125,-0,191.15,220324
0.0304565,0.0184937,0.954468,-0.005,-0.007,18.08,18.08,1.65338,1.04265,0,0,0,-0.0078125,-0,191.17,220339
0.0293579,0.0162964,0.94519,-0.006,-0.008,18.08,18.08,1.65338,1.04265,0,0,0,-0.0078125,-0,191.191,220369
0.0293579,0.0152588,0.944336,-0.006,-0.009,18.08,18.08,1.65338,1.04265,0,0,0,-0.0078125,-0,191.21,220384
0.0271606,0.0206909,0.946777,-0.007,-0.003,18.08,18.08,1.65338,1.04265,0,0,0,-0.0078125,-0,191.23,220399
0.0281982,0.0181885,0.942078,-0.006,-0.006,18.08,18.08,1.65338,1.04265,0,0,0,-0.0078125,-0,191.251,220415
0.0286865,0.0187988,0.950623,-0.006,-0.006,18.08,18.08,1.65338,1.04265,0,0,0,-0.0078125,-0,191.274,220444
0.0301514,0.0224609,0.955017,-0.004,-0.003,18.08,18.08,1.65338,1.04265,0,0,0,-0.0078125,-0,191.291,220459
0.0307007,0.0183105,0.952698,-0.004,-0.007,18.08,18.08,1.65338,1.04265,0,0,0,-0.0078125,-0,191.311,220489
0.0310669,0.0180664,0.947144,-0.004,-0.007,18.08,18.08,1.65338,1.04265,0,0,0,-0.0078125,-0,191.334,220504
0.0280762,0.0180054,0.937195,-0.006,-0.006,18.08,18.08,1.65338,1.04265,0,0,0,-0.0078125,-0,191.358,220534
0.0293579,0.0199585,0.950806,-0.005,-0.004,18.08,18.08,1.65338,1.04265,0,0,0,-0.0078125,-0,191.39,220564
0.0293579,0.0199585,0.950806,-0.005,-0.004,18.08,18.08,1.65338,1.04265,0,0,0,-0.0078125,-0,191.397,220564
0.0268555,0.0200195,0.955933,-0.007,-0.003,18.08,18.08,1.65338,1.04265,0,0,0,-0.0078125,-0,191.416,220594
0.0300293,0.0198975,0.949585,-0.004,-0.004,18.08,18.08,1.65338,1.04265,0,0,0,-0.0078125,-0,191.434,220609
0.0292969,0.0238037,0.956482,-0.003,-0.001,18.08,18.08,1.65338,1.04265,0,0,0,-0.0078125,-0,191.45,220624
0.0307617,0.0188599,0.941223,-0.003,-0.005,18.08,18.08,1.65338,1.04265,0,0,0,-0.0078125,-0,191.47,220639
0.0308228,0.0178833,0.937378,-0.003,-0.006,18.08,18.08,1.65338,1.04265,0,0,0,-0.0078125,-0,191.491,220669
0.0276489,0.0204468,0.959534,-0.006,-0.003,18.08,18.08,1.65338,1.04265,0,0,0,-0.0078125,-0,191.515,220684
0.0322876,0.0170288,0.940979,-0.002,-0.007,18.08,18.08,1.65338,1.04265,0,0,0,-0.0078125,-0,191.531,220699
0.0255737,0.022522,0.953003,-0.007,0,18.08,18.08,1.65338,1.04265,0,0,0,-0.0078125,-0,191.551,220714
0.0305176,0.0231934,0.951599,-0.002,-0.001,18.08,18.08,1.65338,1.04265,0,0,0,-0.0078125,-0,191.571,220744
0.0301514,0.024353,0.958679,-0.002,0,18.08,18.08,1.65338,1.04265,0,0,0,-0.0078125,-0,191.59,220759
0.0272827,0.0189209,0.949829,-0.006,-0.004,18.08,18.08,1.65338,1.04265,0,0,0,-0.0078125,-0,191.611,220789
0.0269775,0.0203247,0.951111,-0.006,-0.002,18.08,18.08,1.65338,1.04265,0,0,0,-0.0078125,-0,191.63,220804
0.0319214,0.0169678,0.945984,-0.002,-0.007,18.08,18.08,1.65338,1.04265,0,0,0,-0.0078125,-0,191.65,220819
0.0262451,0.0164795,0.944397,-0.007,-0.006,18.08,18.08,1.65338,1.04265,0,0,0,-0.0078125,-0,191.674,220849
0.0272827,0.0205078,0.950806,-0.005,-0.002,18.08,18.08,1.65338,1.04265,0,0,0,-0.0078125,-0,191.691,220864
0.0266724,0.0228271,0.948486,-0.005,0,18.08,18.08,1.65338,1.04265,0,0,0,-0.0078125,-0,191.71,220879
0.0283203,0.0215454,0.9552,-0.004,-0.002,18.08,18.08,1.65338,1.04265,0,0,0,-0.0078125,-0,191.73,220894
0.0286865,0.0206909,0.951172,-0.004,-0.002,18.07,18.07,1.65338,1.04265,0,0,0,-0.0078125,-0,191.75,220924
0.0300293,0.0186768,0.950012,-0.003,-0.005,18.07,18.07,1.65338,1.04265,0,0,0,-0.0078125,-0,191.772,220939
0.0287476,0.0216064,0.946533,-0.003,-0.001,18.07,18.07,1.65338,1.04265,0,0,0,-0.0078125,-0,191.79,220954
0.0299683,0.0161743,0.946045,-0.003,-0.007,18.07,18.07,1.65338,1.04265,0,0,0,-0.0078125,-0,191.815,220984
0.0272827,0.0209961,0.947876,-0.004,-0.001,18.07,18.07,1.65338,1.04265,0,0,0,-0.0078125,-0,191.832,220999
0.0271606,0.0197144,0.947144,-0.005,-0.003,18.07,18.07,1.65338,1.04265,0,0,0,-0.0078125,-0,191.851,221014
0.0282593,0.0236206,0.952454,-0.003,0,18.07,18.07,1.65338,1.04265,0,0,0,-0.0078125,-0,191.871,221044
0.0307617,0.0205688,0.947571,-0.001,-0.003,18.07,18.07,1.65338,1.04265,0,0,0,-0.0078125,-0,191.891,221059
0.0296631,0.0186157,0.948425,-0.003,-0.004,18.07,18.07,1.65338,1.04265,0,0,0,-0.0078125,-0,191.914,221089
0.0289917,0.0201416,0.953064,-0.003,-0.003,18.07,18.07,1.65338,1.04265,0,0,0,-0.0078125,-0,191.93,221104
0.0265503,0.0189209,0.940369,-0.005,-0.003,18.07,18.07,1.65338,1.04265,0,0,0,-0.0078125,-0,191.951,221119
0.0281372,0.0166016,0.946777,-0.005,-0.006,18.07,18.07,1.65338,1.04265,0,0,0,-0.0078125,-0,191.97,221149
0.0247803,0.0217896,0.949585,-0.006,0,18.07,18.07,1.65338,1.04265,0,0,0,-0.0078125,-0,191.993,221164
0.0275879,0.0213013,0.949707,-0.004,-0.001,18.07,18.07,1.65338,1.04265,0,0,0,-0.0078125,-0,192.01,221179
0.0290527,0.0184937,0.952209,-0.003,-0.004,18.07,18.07,1.65338,1.04265,0,0,0,-0.0078125,-0,192.03,221209
0.0283203,0.0194092,0.955627,-0.004,-0.003,18.07,18.07,1.65338,1.04265,0,0,0,-0.0078125,-0,192.051,221224
0.0301514,0.0179443,0.947937,-0.002,-0.005,18.07,18.07,1.65338,1.04265,0,0,0,-0.0078125,-0,192.07,221239
0.0271606,0.019043,0.94458,-0.004,-0.002,18.07,18.07,1.65338,1.04265,0,0,0,-0.0078125,-0,192.094,221269
0.0285034,0.0202026,0.955566,-0.003,-0.002,18.07,18.07,1.65338,1.04265,0,0,0,-0.0078125,-0,192.111,221284
0.0270386,0.0175781,0.941711,-0.005,-0.004,18.07,18.07,1.65338,1.04265,0,0,0,-0.0078125,-0,192.131,221299
0.0300903,0.0177612,0.944763,-0.002,-0.005,18.07,18.07,1.65338,1.04265,0,0,0,-0.0078125,-0,192.156,221329
0.0325928,0.0240479,0.951355,0.001,0,18.07,18.07,1.65338,1.04265,0,0,0,-0.0078125,-0,192.171,221344
0.031189,0.0192261,0.943787,0,-0.003,18.07,18.07,1.65338,1.04265,0,0,0,-0.0078125,-0,192.191,221359
0.0283813,0.0194702,0.949646,-0.003,-0.002,18.07,18.07,1.65338,1.04265,0,0,0,-0.0078125,-0,192.21,221389
0.0290527,0.0189819,0.952881,-0.003,-0.003,18.07,18.07,1.65338,1.04265,0,0,0,-0.0078125,-0,192.231,221404
0.029541,0.0167236,0.943542,-0.002,-0.005,18.07,18.07,1.65338,1.04265,0,0,0,-0.0078125,-0,192.252,221419
0.0289917,0.0187378,0.945312,-0.002,-0.003,18.07,18.07,1.65338,1.04265,0,0,0,-0.0078125,-0,192.282,221449
0.0266724,0.0205688,0.943298,-0.004,-0.001,18.07,18.07,1.65338,1.04265,0,0,0,-0.0078125,-0,192.29,221464
0.0310669,0.020813,0.943787,0,-0.002,18.07,18.07,1.65338,1.04265,0,0,0,-0.0078125,-0,192.311,221479
0.0331421,0.0193481,0.951172,0.001,-0.004,18.07,18.07,1.65338,1.04265,0,0,0,-0.0078125,-0,192.331,221509
0.026062,0.0187988,0.955811,-0.005,-0.002,18.07,18.07,1.65338,1.04265,0,0,0,-0.0078125,-0,192.351,221524
0.0331421,0.0169067,0.940613,0.001,-0.006,18.07,18.07,1.65338,1.04265,0,0,0,-0.0078125,-0,192.371,221539
0.0307007,0.0172119,0.944214,-0.001,-0.005,18.07,18.07,1.65338,1.04265,0,0,0,-0.0078125,-0,192.39,221569
0.0292358,0.0220337,0.956482,-0.001,0,18.07,18.07,1.65338,1.04265,0,0,0,-0.0078125,-0,192.411,221584
0.0244751,0.0175171,0.941284,-0.007,-0.003,18.06,18.06,1.65338,1.04265,0,0,0,-0.0078125,-0,192.431,221599
0.0268555,0.0183105,0.949097,-0.004,-0.003,18.06,18.06,1.65338,1.04265,0,0,0,-0.0078125,-0,192.451,221628
0.0299683,0.0197754,0.953613,-0.001,-0.002,18.06,18.06,1.65338,1.04265,0,0,0,-0.0078125,-0,192.474,221643
0.0324707,0.0219116,0.948792,0.001,-0.001,18.06,18.06,1.65338,1.04265,0,0,0,-0.0078125,-0,192.491,221658
0.0292969,0.0174561,0.954956,-0.002,-0.004,18.06,18.06,1.65338,1.04265,0,0,0,-0.0078125,-0,192.511,221688
0.0332031,0.0142212,0.941528,0,-0.008,18.06,18.06,1.65338,1.04265,0,0,0,-0.0078125,-0,192.531,221703
0.0270386,0.0172119,0.941589,-0.004,-0.004,18.06,18.06,1.65338,1.04265,0,0,0,-0.0078125,-0,192.554,221734
0.0264282,0.0180054,0.959412,-0.005,-0.003,18.06,18.06,1.65338,1.04265,0,0,0,-0.0078125,-0,192.571,221748
0.0255737,0.020874,0.94104,-0.004,0,18.06,18.06,1.65338,1.04265,0,0,0,-0.0078125,-0,192.59,221763
0.0293579,0.0230713,0.957825,0,0,18.06,18.06,1.65338,1.04265,0,0,0,-0.0078125,-0,192.611,221778
0.0264893,0.0209961,0.957581,-0.004,0,18.06,18.06,1.65338,1.04265,0,0,0,-0.0078125,-0,192.631,221808
0.0293579,0.0168457,0.953247,-0.002,-0.005,18.06,18.06,1.65338,1.04265,0,0,0,-0.0078125,-0,192.653,221823
0.0275269,0.0168457,0.944946,-0.004,-0.004,18.06,18.06,1.65338,1.04265,0,0,0,-0.0078125,-0,192.67,221838
0.0327759,0.0165405,0.95343,0,-0.006,18.06,18.06,1.65338,1.04265,0,0,0,-0.0078125,-0,192.696,221868
0.0284424,0.0204468,0.94751,-0.002,-0.001,18.06,18.06,1.65338,1.04265,0,0,0,-0.0078125,-0,192.712,221883
0.0265503,0.0200195,0.941711,-0.003,0,18.06,18.06,1.65338,1.04265,0,0,0,-0.0078125,-0,192.732,221898
0.0261841,0.0244751,0.94873,-0.002,0.003,18.06,18.06,1.65338,1.04265,0,0,0,-0.0078125,-0,192.75,221928
0.027832,0.0245972,0.957458,-0.001,0.002,18.06,18.06,1.65338,1.04265,0,0,0,-0.0078125,-0,192.771,221943
0.0283813,0.0211792,0.948059,-0.001,0,18.06,18.06,1.65338,1.04265,0,0,0,-0.0078125,-0,192.792,221958
0.0296021,0.0195923,0.945129,-0.001,-0.002,18.06,18.06,1.65338,1.04265,0,0,0,-0.0078125,-0,192.814,221988
0.0254517,0.0187988,0.94928,-0.005,-0.001,18.06,18.06,1.65338,1.04265,0,0,0,-0.0078125,-0,192.835,222003
0.0285645,0.0159302,0.947876,-0.003,-0.005,18.06,18.06,1.65338,1.04265,0,0,0,-0.0078125,-0,192.851,222018
0.0275269,0.0180664,0.951843,-0.003,-0.002,18.06,18.06,1.65338,1.04265,0,0,0,-0.0078125,-0,192.87,222048
0.0289307,0.0201416,0.950073,-0.001,-0.001,18.06,18.06,1.65338,1.04265,0,0,0,-0.0078125,-0,192.89,222063
0.0262451,0.0249634,0.949829,-0.002,0.003,18.06,18.06,1.65338,1.04265,0,0,0,-0.0078125,-0,192.91,222078
0.0289307,0.0230103,0.956299,0,0.001,18.06,18.06,1.65338,1.04265,0,0,0,-0.0078125,-0,192.931,222108
0.027832,0.0205078,0.951294,-0.002,0,18.06,18.06,1.65338,1.04265,0,0,0,-0.0078125,-0,192.95,222123
0.0296021,0.0164185,0.946899,-0.001,-0.005,18.06,18.06,1.65338,1.04265,0,0,0,-0.0078125,-0,192.971,222138
0.0293579,0.0184326,0.946228,-0.001,-0.003,18.06,18.06,1.65338,1.04265,0,0,0,-0.0078125,-0,192.99,222168
0.0272827,0.0159912,0.955261,-0.004,-0.004,18.06,18.06,1.65338,1.04265,0,0,0,-0.0078125,-0,193.01,222183
0.0261841,0.0210571,0.942078,-0.003,0,18.06,18.06,1.65338,1.04265,0,0,0,-0.0078125,-0,193.03,222198
0.026123,0.0234985,0.946289,-0.002,0.002,18.06,18.06,1.65338,1.04265,0,0,0,-0.0078125,-0,193.05,222214
0.0290527,0.0186768,0.947754,-0.001,-0.002,18.06,18.06,1.65338,1.04265,0,0,0,-0.0078125,-0,193.071,222243
0.0288696,0.0214233,0.952087,-0.001,0,18.06,18.06,1.65338,1.04265,0,0,0,-0.0078125,-0,193.09,222258
0.0285034,0.0180054,0.957458,-0.002,-0.003,18.06,18.06,1.65338,1.04265,0,0,0,-0.0078125,-0,193.111,222288
0.0302124,0.0188599,0.952271,0,-0.002,18.06,18.06,1.65338,1.04265,0,0,0,-0.0078125,-0,193.131,222303
0.0300293,0.0164795,0.938965,0,-0.004,18.06,18.06,1.65338,1.04265,0,0,0,-0.0078125,-0,193.151,222318
0.0307007,0.0168457,0.94342,0,-0.004,18.06,18.06,1.65338,1.04265,0,0,0,-0.0078125,-0,193.171,222348
0.026001,0.0223999,0.949829,-0.003,0.001,18.06,18.06,1.65338,1.04265,0,0,0,-0.0078125,-0,193.19,222363
0.0263062,0.020752,0.947571,-0.003,0,18.06,18.06,1.65338,1.04265,0,0,0,-0.0078125,-0,193.213,222378
0.0308228,0.0210571,0.957458,0,0,18.06,18.06,1.65338,1.04265,0,0,0,-0.0078125,-0,193.232,222408
0.03302,0.0210571,0.949829,0.003,-0.001,18.06,18.06,1.65338,1.04265,0,0,0,-0.0078125,-0,193.251,222423
0.0289917,0.020813,0.943542,0,0,18.06,18.06,1.65338,1.04265,0,0,0,-0.0078125,-0,193.271,222438
0.0306396,0.0147095,0.946899,-0.001,-0.006,18.06,18.06,1.65338,1.04265,0,0,0,-0.0078125,-0,193.291,222468
0.0252075,0.0172729,0.945557,-0.005,-0.002,18.06,18.06,1.65338,1.04265,0,0,0,-0.0078125,-0,193.31,222483
0.0285645,0.0194092,0.950562,-0.001,-0.001,18.07,18.07,1.65338,1.04265,0,0,0,-0.0078125,-0,193.33,222498
0.0298462,0.0188599,0.951904,0,-0.002,18.06,18.06,1.65338,1.04265,0,0,0,-0.0078125,-0,193.351,222528
0.0282593,0.0197144,0.954529,-0.001,-0.001,18.06,18.06,1.65338,1.04265,0,0,0,-0.0078125,-0,193.371,222543
0.0275269,0.0213623,0.956177,-0.002,0,18.06,18.06,1.65338,1.04265,0,0,0,-0.0078125,-0,193.412,222588
0.0290527,0.0176392,0.947021,-0.001,-0.003,18.06,18.06,1.65338,1.04265,0,0,0,-0.0078125,-0,193.433,222603
0.0301514,0.0170288,0.950073,0,-0.004,18.06,18.06,1.65338,1.04265,0,0,0,-0.0078125,-0,193.45,222618
0.0263062,0.0199585,0.949707,-0.003,0,18.06,18.06,1.65338,1.04265,0,0,0,-0.0078125,-0,193.47,222648
0.0292969,0.0182495,0.954712,-0.001,-0.002,18.06,18.06,1.65338,1.04265,0,0,0,-0.0078125,-0,193.494,222663
0.0271606,0.0224609,0.954285,-0.001,0.001,18.06,18.06,1.65338,1.04265,0,0,0,-0.0078125,-0,193.525,222693
0.0274658,0.019104,0.953308,-0.002,-0.001,18.06,18.06,1.65338,1.04265,0,0,0,-0.0078125,-0,193.532,222708
0.0255737,0.0194702,0.955811,-0.004,0,18.06,18.06,1.65338,1.04265,0,0,0,-0.0078125,-0,193.552,222723
0.0288696,0.0145264,0.939941,-0.002,-0.005,18.06,18.06,1.65338,1.04265,0,0,0,-0.0078125,-0,193.571,222738
0.0306396,0.0195923,0.941345,0.001,-0.001,18.06,18.06,1.65338,1.04265,0,0,0,-0.0078125,-0,193.595,222768
0.0276489,0.0200806,0.955261,-0.002,0,18.06,18.06,1.65338,1.04265,0,0,0,-0.0078125,-0,193.611,222783
0.0253296,0.0182495,0.943054,-0.004,-0.001,18.06,18.06,1.65338,1.04265,0,0,0,-0.0078125,-0,193.631,222798
0.0304565,0.0203857,0.946777,0.001,0,18.06,18.06,1.65338,1.04265,0,0,0,-0.0078125,-0,193.651,222828
0.0286255,0.0206909,0.949524,0,0,18.06,18.06,1.65338,1.04265,0,0,0,-0.0078125,-0,193.671,222843
0.0307007,0.0222778,0.952515,0.001,0,18.06,18.06,1.65338,1.04265,0,0,0,-0.0078125,-0,193.69,222858
0.0302734,0.019165,0.953247,0,-0.001,18.06,18.06,1.65338,1.04265,0,0,0,-0.0078125,-0,193.717,222888
0.0291748,0.0210571,0.945557,0,0,18.06,18.06,1.65338,1.04265,0,0,0,-0.0078125,-0,193.731,222903
0.0292358,0.0192871,0.949463,0,-0.001,18.06,18.06,1.65338,1.04265,0,0,0,-0.0078125,-0,193.751,222918
0.0272827,0.0171509,0.949951,-0.003,-0.002,18.06,18.06,1.65338,1.04265,0,0,0,-0.0078125,-0,193.771,222948
0.0290527,0.0175171,0.94574,0,-0.002,18.06,18.06,1.65338,1.04265,0,0,0,-0.0078125,-0,193.792,222963
0.0285645,0.0209961,0.948303,0,0,18.06,18.06,1.65338,1.04265,0,0,0,-0.0078125,-0,193.818,222993
0.0297241,0.0231323,0.955322,0.001,0.002,18.06,18.06,1.65338,1.04265,0,0,0,-0.0078125,-0,193.832,223008
0.0300293,0.0209351,0.946045,0,0,18.06,18.06,1.65338,1.04265,0,0,0,-0.0078125,-0,193.85,223023
0.0280762,0.0174561,0.945679,-0.001,-0.002,18.06,18.06,1.65338,1.04265,0,0,0,-0.0078125,-0,193.871,223038
0.0279541,0.0199585,0.954041,-0.001,0,18.06,18.06,1.65338,1.04265,0,0,0,-0.0078125,-0,193.89,223068
0.026001,0.0183105,0.94635,-0.003,-0.001,18.06,18.06,1.65338,1.04265,0,0,0,-0.0078125,-0,193.91,223083
0.0331421,0.0211792,0.946594,0.004,0,18.06,18.06,1.65338,1.04265,0,0,0,-0.0078125,-0,193.93,223098
0.027832,0.0234985,0.95697,0,0.002,18.06,18.06,1.65338,1.04265,0,0,0,-0.0078125,-0,193.951,223128
0.0266724,0.0213013,0.94458,-0.001,0.001,18.06,18.06,1.65338,1.04265,0,0,0,-0.0078125,-0,193.971,223143
0.0292969,0.0188599,0.957153,0,-0.001,18.06,18.06,1.65338,1.04265,0,0,0,-0.0078125,-0,193.991,223158
0.0286255,0.0193481,0.957703,-0.001,-0.001,18.06,18.06,1.65338,1.04265,0,0,0,-0.0078125,-0,194.011,223188
0.0293579,0.0192261,0.945618,0,-0.001,18.06,18.06,1.65338,1.04265,0,0,0,-0.0078125,-0,194.033,223203
0.0245361,0.0199585,0.957031,-0.004,0,18.06,18.06,1.65338,1.04265,0,0,0,-0.0078125,-0,194.075,223248
0.0317383,0.0195923,0.942749,0.002,-0.001,18.06,18.06,1.65338,1.04265,0,0,0,-0.0078125,-0,194.091,223263
0.0283813,0.0237427,0.955811,0,0.003,18.06,18.06,1.65338,1.04265,0,0,0,-0.0078125,-0,194.114,223278
0.0323486,0.0163574,0.951111,0.001,-0.005,18.06,18.06,1.65338,1.04265,0,0,0,-0.0078125,-0,194.131,223308
0.0316162,0.0166626,0.949585,0.001,-0.004,18.06,18.06,1.65338,1.04265,0,0,0,-0.0078125,-0,194.15,223323
0.0308228,0.017334,0.943604,0,-0.003,18.06,18.06,1.65338,1.04265,0,0,0,-0.0078125,-0,194.17,223338
0.027832,0.0171509,0.942322,-0.001,-0.002,18.06,18.06,1.65338,1.04265,0,0,0,-0.0078125,-0,194.191,223368
0.0290527,0.0202026,0.951355,0,0,18.06,18.06,1.65338,1.04265,0,0,0,-0.0078125,-0,194.217,223383
0.0292358,0.0230103,0.939758,0.001,0.002,18.06,18.06,1.65338,1.04265,0,0,0,-0.0078125,-0,194.231,223398
0.0265503,0.0230103,0.947815,-0.001,0.003,18.06,18.06,1.65338,1.04265,0,0,0,-0.0078125,-0,194.25,223427
0.0325928,0.0223999,0.954956,0.003,0,18.06,18.06,1.65338,1.04265,0,0,0,-0.0078125,-0,194.271,223442
0.0291138,0.0215454,0.943542,0,0.001,18.06,18.06,1.65338,1.04265,0,0,0,-0.0078125,-0,194.291,223457
0.0263062,0.0169067,0.951416,-0.003,-0.002,18.05,18.05,1.65338,1.04265,0,0,0,-0.0078125,-0,194.311,223487
0.0288696,0.0175171,0.949585,-0.001,-0.002,18.05,18.05,1.65338,1.04265,0,0,0,-0.0078125,-0,194.331,223502
0.0305786,0.0180664,0.950623,0,-0.002,18.05,18.05,1.65338,1.04265,0,0,0,-0.0078125,-0,194.351,223517
0.0300903,0.0197144,0.958496,0,-0.001,18.05,18.05,1.65338,1.04265,0,0,0,-0.0078125,-0,194.37,223547
0.0275879,0.020813,0.949219,-0.001,0,18.05,18.05,1.65338,1.04265,0,0,0,-0.0078125,-0,194.39,223562
0.0281982,0.0211182,0.949524,0,0,18.05,18.05,1.65338,1.04265,0,0,0,-0.0078125,-0,194.41,223577
0.031311,0.0182495,0.945801,0.001,-0.002,18.05,18.05,1.65338,1.04265,0,0,0,-0.0078125,-0,194.431,223607
0.0303955,0.0209961,0.958191,0.001,0,18.05,18.05,1.65338,1.04265,0,0,0,-0.0078125,-0,194.45,223622
0.0298462,0.0172729,0.935913,0,-0.003,18.05,18.05,1.65338,1.04265,0,0,0,-0.0078125,-0,194.471,223637
0.0297241,0.0179443,0.939453,0,-0.002,18.05,18.05,1.65338,1.04265,0,0,0,-0.0078125,-0,194.491,223667
0.0272827,0.0165405,0.951416,-0.002,-0.003,18.05,18.05,1.65338,1.04265,0,0,0,-0.0078125,-0,194.511,223682
0.0280762,0.0196533,0.947205,0,0,18.05,18.05,1.65338,1.04265,0,0,0,-0.0078125,-0,194.53,223697
0.02948,0.022644,0.952148,0.001,0.001,18.05,18.05,1.65338,1.04265,0,0,0,-0.0078125,-0,194.55,223727
0.0289307,0.0181274,0.948059,0,-0.002,18.05,18.05,1.65338,1.04265,0,0,0,-0.0078125,-0,194.57,223742
0.0303345,0.0247192,0.950195,0.002,0.003,18.05,18.05,1.65338,1.04265,0,0,0,-0.0078125,-0,194.59,223757
0.0307007,0.0185547,0.946838,0.001,-0.002,18.05,18.05,1.65338,1.04265,0,0,0,-0.0078125,-0,194.61,223787
0.03302,0.0162354,0.947449,0.002,-0.005,18.05,18.05,1.65338,1.04265,0,0,0,-0.0078125,-0,194.631,223802
0.0264893,0.0143433,0.94342,-0.003,-0.004,18.04,18.04,1.65338,1.04265,0,0,0,-0.0078125,-0,194.651,223817
0.0250244,0.0186768,0.943604,-0.003,0,18.04,18.04,1.65338,1.04265,0,0,0,-0.0078125,-0,194.67,223847
0.027771,0.0205078,0.950623,-0.001,0,18.04,18.04,1.65338,1.04265,0,0,0,-0.0078125,-0,194.73,223907
0.027771,0.0205078,0.950623,-0.001,0,18.04,18.04,1.65338,1.04265,0,0,0,-0.0078125,-0,194.732,223907
0.0332642,0.0166016,0.93988,0.003,-0.004,18.04,18.04,1.65338,1.04265,0,0,0,-0.0078125,-0,194.767,223937
0.0332642,0.0166016,0.93988,0.003,-0.004,18.04,18.04,1.65338,1.04265,0,0,0,-0.0078125,-0,194.771,223937
0.0305176,0.0148315,0.939453,0,-0.005,18.04,18.04,1.65338,1.04265,0,0,0,-0.0078125,-0,194.793,223967
0.0282593,0.0204468,0.947571,0,0,18.04,18.04,1.65338,1.04265,0,0,0,-0.0078125,-0,194.81,223982
0.0285034,0.0185547,0.953491,0,-0.001,18.04,18.04,1.65338,1.04265,0,0,0,-0.0078125,-0,194.831,223997
0.0286865,0.0222778,0.955139,0,0.001,18.04,18.04,1.65338,1.04265,0,0,0,-0.0078125,-0,194.85,224027
0.0310059,0.0229492,0.94873,0.002,0.001,18.04,18.04,1.65338,1.04265,0,0,0,-0.0078125,-0,194.87,224042
0.027832,0.0193481,0.947937,-0.001,0,18.04,18.04,1.65338,1.04265,0,0,0,-0.0078125,-0,194.89,224057
0.0262451,0.0171509,0.944824,-0.003,-0.001,18.04,18.04,1.65338,1.04265,0,0,0,-0.0078125,-0,194.91,224087
0.02771,0.0185547,0.94751,-0.001,-0.001,18.04,18.04,1.65338,1.04265,0,0,0,-0.0078125,-0,194.935,224102
0.0302734,0.0211792,0.944946,0.001,0,18.04,18.04,1.65338,1.04265,0,0,0,-0.0078125,-0,194.951,224117
0.029541,0.0175171,0.942566,0,-0.002,18.04,18.04,1.65338,1.04265,0,0,0,-0.0078125,-0,194.971,224147
0.0297241,0.0198975,0.947876,0,0,18.04,18.04,1.65338,1.04265,0,0,0,-0.0078125,-0,194.991,224162
0.0288086,0.0217896,0.949768,0,0.001,18.04,18.04,1.65338,1.04265,0,0,0,-0.0078125,-0,195.011,224177
0.0270996,0.020874,0.949341,-0.001,0.001,18.04,18.04,1.65338,1.04265,0,0,0,-0.0078125,-0,195.031,224207
0.029541,0.0194702,0.948425,0,0,18.04,18.04,1.65338,1.04265,0,0,0,-0.0078125,-0,195.05,224222
0.0266724,0.0197144,0.942078,-0.001,0,18.04,18.04,1.65338,1.04265,0,0,0,-0.0078125,-0,195.071,224237
0.0278931,0.0155029,0.94873,-0.002,-0.004,18.04,18.04,1.65338,1.04265,0,0,0,-0.0078125,-0,195.091,224267
0.0283813,0.017395,0.947754,0,-0.002,18.04,18.04,1.65338,1.04265,0,0,0,-0.0078125,-0,195.11,224282
0.0308228,0.0183716,0.948547,0.001,-0.002,18.04,18.04,1.65338,1.04265,0,0,0,-0.0078125,-0,195.13,224297
0.0282593,0.0192261,0.961853,-0.001,0,18.04,18.04,1.65338,1.04265,0,0,0,-0.0078125,-0,195.15,224327
0.0297241,0.0184326,0.945862,0,-0.001,18.04,18.04,1.65338,1.04265,0,0,0,-0.0078125,-0,195.201,224372
0.0282593,0.0203247,0.947266,0,0,18.04,18.04,1.65338,1.04265,0,0,0,-0.0078125,-0,195.211,224387
0.0275879,0.0194702,0.947388,-0.001,0,18.03,18.03,1.65338,1.04265,0,0,0,-0.0078125,-0,195.231,224402
0.0290527,0.0175171,0.944641,0,-0.002,18.03,18.03,1.65338,1.04265,0,0,0,-0.0078125,-0,195.25,224417
0.0292358,0.0202026,0.954529,0,0,18.03,18.03,1.65338,1.04265,0,0,0,-0.0078125,-0,195.27,224447
0.0292969,0.0219727,0.953064,0.001,0.001,18.03,18.03,1.65338,1.04265,0,0,0,-0.0078125,-0,195.291,224462
0.0308228,0.020752,0.956848,0.002,0,18.03,18.03,1.65338,1.04265,0,0,0,-0.0078125,-0,195.311,224477
0.0299072,0.0209351,0.950562,0.001,0,18.03,18.03,1.65338,1.04265,0,0,0,-0.0078125,-0,195.331,224507
0.0284424,0.0231323,0.952271,0,0.002,18.03,18.03,1.65338,1.04265,0,0,0,-0.0078125,-0,195.351,224522
0.0274048,0.0205688,0.951477,-0.001,0,18.03,18.03,1.65338,1.04265,0,0,0,-0.0078125,-0,195.37,224537
0.027832,0.0139771,0.946045,-0.002,-0.005,18.03,18.03,1.65338,1.04265,0,0,0,-0.0078125,-0,195.39,224567
0.0288086,0.0160522,0.94873,0,-0.003,18.03,18.03,1.65338,1.04265,0,0,0,-0.0078125,-0,195.411,224582
0.0281372,0.0201416,0.947449,0,0,18.03,18.03,1.65338,1.04265,0,0,0,-0.0078125,-0,195.433,224597
0.031189,0.0237427,0.95459,0.003,0.002,18.03,18.03,1.65338,1.04265,0,0,0,-0.0078125,-0,195.45,224627
0.0299072,0.0199585,0.947083,0.001,0,18.03,18.03,1.65338,1.04265,0,0,0,-0.0078125,-0,195.47,224642
0.0250244,0.0228882,0.955627,-0.002,0.003,18.03,18.03,1.65338,1.04265,0,0,0,-0.0078125,-0,195.49,224657
0.0263062,0.0206909,0.953796,-0.002,0.001,18.03,18.03,1.65338,1.04265,0,0,0,-0.0078125,-0,195.51,224687
0.0289917,0.0178833,0.941956,0,-0.002,18.03,18.03,1.65338,1.04265,0,0,0,-0.0078125,-0,195.531,224702
0.0305176,0.0185547,0.945007,0.001,-0.001,18.03,18.03,1.65338,1.04265,0,0,0,-0.0078125,-0,195.551,224717
0.02771,0.0200806,0.945496,0,0,18.03,18.03,1.65338,1.04265,0,0,0,-0.0078125,-0,195.571,224747
0.0234985,0.0228882,0.948914,-0.004,0.004,18.03,18.03,1.65338,1.04265,0,0,0,-0.0078125,-0,195.592,224762
0.0313721,0.0180664,0.953186,0.001,-0.002,18.03,18.03,1.65338,1.04265,0,0,0,-0.0078125,-0,195.611,224777
0.0267334,0.0206909,0.956177,-0.001,0.001,18.02,18.02,1.65338,1.04265,0,0,0,-0.0078125,-0,195.631,224807
0.0333252,0.0159302,0.944824,0.003,-0.005,18.02,18.02,1.65338,1.04265,0,0,0,-0.0078125,-0,195.651,224822
0.0284424,0.0202026,0.94812,0,0,18.02,18.02,1.65338,1.04265,0,0,0,-0.0078125,-0,195.671,224837
0.0288696,0.0168457,0.944214,0,-0.003,18.02,18.02,1.65338,1.04265,0,0,0,-0.0078125,-0,195.69,224867
0.0280151,0.0216064,0.942993,0,0.001,18.02,18.02,1.65338,1.04265,0,0,0,-0.0078125,-0,195.71,224882
0.0268555,0.0201416,0.950195,-0.001,0,18.02,18.02,1.65338,1.04265,0,0,0,-0.0078125,-0,195.732,224897
0.0293579,0.020813,0.952026,0,0,18.02,18.02,1.65338,1.04265,0,0,0,-0.0078125,-0,195.75,224927
0.0275879,0.0230713,0.952881,0,0.003,18.02,18.02,1.65338,1.04265,0,0,0,-0.0078125,-0,195.77,224942
0.0298462,0.0223389,0.951233,0.001,0.001,18.02,18.02,1.65338,1.04265,0,0,0,-0.0078125,-0,195.791,224957
0.0299072,0.0148315,0.938538,0,-0.005,18.02,18.02,1.65338,1.04265,0,0,0,-0.0078125,-0,195.812,224987
0.0269165,0.0201416,0.945312,-0.001,0,18.02,18.02,1.65338,1.04265,0,0,0,-0.0078125,-0,195.831,225002
0.02771,0.0210571,0.958435,0,0.001,18.02,18.02,1.65338,1.04265,0,0,0,-0.0078125,-0,195.856,225032
0.0315552,0.0164795,0.946838,0.001,-0.004,18.02,18.02,1.65338,1.04265,0,0,0,-0.0078125,-0,195.871,225047
0.027832,0.0214233,0.956726,0,0.001,18.02,18.02,1.65338,1.04265,0,0,0,-0.0078125,-0,195.89,225062
0.0289917,0.0229492,0.941406,0.001,0.002,18.02,18.02,1.65338,1.04265,0,0,0,-0.0078125,-0,195.912,225077
0.0317993,0.0184326,0.938843,0.002,-0.002,18.02,18.02,1.65338,1.04265,0,0,0,-0.0078125,-0,195.93,225107
0.0302124,0.0181274,0.947021,0.001,-0.002,18.02,18.02,1.65338,1.04265,0,0,0,-0.0078125,-0,195.951,225122
0.0286255,0.0189819,0.93988,0,0,18.02,18.02,1.65338,1.04265,0,0,0,-0.0078125,-0,195.97,225137
0.0289307,0.0167847,0.947083,0,-0.003,18.02,18.02,1.65338,1.04265,0,0,0,-0.0078125,-0,195.991,225167
0.0256348,0.0198975,0.945129,-0.002,0,18.02,18.02,1.65338,1.04265,0,0,0,-0.0078125,-0,196.011,225182
0.029541,0.0219116,0.950562,0.001,0.001,18.02,18.02,1.65338,1.04265,0,0,0,-0.0078125,-0,196.057,225226
0.0321045,0.0154419,0.945862,0.002,-0.005,18.02,18.02,1.65338,1.04265,0,0,0,-0.0078125,-0,196.098,225272
0.0308838,0.0175781,0.953369,0.001,-0.002,18.02,18.02,1.65338,1.04265,0,0,0,-0.0078125,-0,196.111,225286
0.0286255,0.0166626,0.946106,0,-0.003,18.02,18.02,1.65338,1.04265,0,0,0,-0.0078125,-0,196.131,225301
0.0289307,0.0161743,0.942444,0,-0.003,18.03,18.03,1.65338,1.04265,0,0,0,-0.0078125,-0,196.15,225316
0.0261841,0.0206909,0.944031,-0.001,0.001,18.03,18.03,1.65338,1.04265,0,0,0,-0.0078125,-0,196.17,225346
0.0300293,0.0201416,0.954224,0.001,0,18.03,18.03,1.65338,1.04265,0,0,0,-0.0078125,-0,196.19,225361
0.0262451,0.0248413,0.956543,0,0.005,18.03,18.03,1.65338,1.04265,0,0,0,-0.0078125,-0,196.21,225376
0.0270996,0.020752,0.946899,0,0.001,18.03,18.03,1.65338,1.04265,0,0,0,-0.0078125,-0,196.23,225406
0.0324707,0.0182495,0.944458,0.003,-0.002,18.03,18.03,1.65338,1.04265,0,0,0,-0.0078125,-0,196.25,225421
0.0334473,0.0188599,0.941406,0.004,-0.002,18.03,18.03,1.65338,1.04265,0,0,0,-0.0078125,-0,196.27,225436
0.0314331,0.0154419,0.946167,0.001,-0.005,18.03,18.03,1.65338,1.04265,0,0,0,-0.0078125,-0,196.29,225466
0.0270386,0.0180054,0.945374,-0.001,-0.001,18.03,18.03,1.65338,1.04265,0,0,0,-0.0078125,-0,196.31,225481
0.0276489,0.0181274,0.958008,-0.001,-0.001,18.03,18.03,1.65338,1.04265,0,0,0,-0.0078125,-0,196.33,225496
0.0259399,0.0244751,0.959473,-0.001,0.005,18.03,18.03,1.65338,1.04265,0,0,0,-0.0078125,-0,196.351,225526
0.0290527,0.0192871,0.939575,0,0,18.03,18.03,1.65338,1.04265,0,0,0,-0.0078125,-0,196.37,225541
0.0293579,0.0219116,0.952637,0.001,0.001,18.03,18.03,1.65338,1.04265,0,0,0,-0.0078125,-0,196.391,225556
0.0285034,0.0168457,0.950562,-0.001,-0.002,18.03,18.03,1.65338,1.04265,0,0,0,-0.0078125,-0,196.41,225586
0.0268555,0.017395,0.945374,-0.002,-0.001,18.03,18.03,1.65338,1.04265,0,0,0,-0.0078125,-0,196.432,225601
0.0317383,0.0169067,0.946838,0.002,-0.003,18.03,18.03,1.65338,1.04265,0,0,0,-0.0078125,-0,196.45,225616
0.0269775,0.020752,0.948669,-0.001,0.001,18.03,18.03,1.65338,1.04265,0,0,0,-0.0078125,-0,196.47,225646
0.0310669,0.0238647,0.955139,0.003,0.002,18.03,18.03,1.65338,1.04265,0,0,0,-0.0078125,-0,196.491,225661
0.0284424,0.0216064,0.958008,0,0.001,18.03,18.03,1.65338,1.04265,0,0,0,-0.0078125,-0,196.517,225692
0.0296021,0.0231934,0.951294,0.002,0.002,18.03,18.03,1.65338,1.04265,0,0,0,-0.0078125,-0,196.555,225721
0.0291138,0.0163574,0.943298,0,-0.003,18.03,18.03,1.65338,1.04265,0,0,0,-0.0078125,-0,196.579,225752
0.0284424,0.0142212,0.947083,-0.001,-0.005,18.02,18.02,1.65338,1.04265,0,0,0,-0.0078125,-0,196.591,225766
0.0268555,0.0195312,0.955811,-0.001,0,18.02,18.02,1.65338,1.04265,0,0,0,-0.0078125,-0,196.611,225781
0.0274048,0.022583,0.949646,0,0.002,18.02,18.02,1.65338,1.04265,0,0,0,-0.0078125,-0,196.645,225812
0.0287476,0.0235596,0.956482,0.001,0.003,18.02,18.02,1.65338,1.04265,0,0,0,-0.0078125,-0,196.652,225826
0.0257568,0.0197144,0.949158,-0.002,0,18.02,18.02,1.65338,1.04265,0,0,0,-0.0078125,-0,196.671,225841
0.0280151,0.0161133,0.948914,-0.001,-0.003,18.02,18.02,1.65338,1.04265,0,0,0,-0.0078125,-0,196.693,225872
0.0316772,0.0189209,0.945923,0.002,-0.001,18.03,18.03,1.65338,1.04265,0,0,0,-0.0078125,-0,196.713,225886
0.0325928,0.0148315,0.941956,0.002,-0.005,18.02,18.02,1.65338,1.04265,0,0,0,-0.0078125,-0,196.73,225901
0.0287476,0.0171509,0.950256,0,-0.002,18.03,18.03,1.65338,1.04265,0,0,0,-0.0078125,-0,196.752,225931
0.0286865,0.0170288,0.951355,0,-0.002,18.02,18.02,1.65338,1.04265,0,0,0,-0.0078125,-0,196.773,225946
0.0281982,0.0164185,0.941101,-0.001,-0.003,18.03,18.03,1.65338,1.04265,0,0,0,-0.0078125,-0,196.793,225961
0.026123,0.0216675,0.954041,-0.001,0.002,18.03,18.03,1.65338,1.04265,0,0,0,-0.0078125,-0,196.811,225976
0.0265503,0.0235596,0.960999,-0.001,0.004,18.03,18.03,1.65338,1.04265,0,0,0,-0.0078125,-0,196.831,226006
0.0321655,0.0209961,0.941284,0.004,0,18.03,18.03,1.65338,1.04265,0,0,0,-0.0078125,-0,196.851,226021
0.0263062,0.0192261,0.951416,-0.002,0,18.03,18.03,1.65338,1.04265,0,0,0,-0.0078125,-0,196.871,226036
0.0305176,0.0183105,0.957886,0.001,-0.002,18.03,18.03,1.65338,1.04265,0,0,0,-0.0078125,-0,196.89,226066
0.0257568,0.0183716,0.946411,-0.003,0,18.03,18.03,1.65338,1.04265,0,0,0,-0.0078125,-0,196.91,226081
0.0307007,0.0212402,0.939575,0.002,0,18.03,18.03,1.65338,1.04265,0,0,0,-0.0078125,-0,196.938,226111
0.0287476,0.0239868,0.964844,0,0.003,18.03,18.03,1.65338,1.04265,0,0,0,-0.0078125,-0,196.952,226126
0.0309448,0.0189819,0.945251,0.002,-0.001,18.03,18.03,1.65338,1.04265,0,0,0,-0.0078125,-0,196.975,226141
0.029541,0.020874,0.961548,0,0,18.03,18.03,1.65338,1.04265,0,0,0,-0.0078125,-0,196.992,226156
0.0291748,0.0169067,0.955078,0,-0.002,18.03,18.03,1.65338,1.04265,0,0,0,-0.0078125,-0,197.023,226186
0.0264893,0.0204468,0.947144,-0.001,0.001,18.03,18.03,1.65338,1.04265,0,0,0,-0.0078125,-0,197.031,226201
0.0292969,0.0183105,0.950256,0,-0.001,18.03,18.03,1.65338,1.04265,0,0,0,-0.0078125,-0,197.05,226216
0.0274048,0.0181274,0.941284,-0.001,-0.001,18.03,18.03,1.65338,1.04265,0,0,0,-0.0078125,-0,197.07,226246
0.0291748,0.0214233,0.958374,0,0.001,18.03,18.03,1.65338,1.04265,0,0,0,-0.0078125,-0,197.091,226261
0.0289917,0.0180664,0.950012,0,-0.001,18.03,18.03,1.65338,1.04265,0,0,0,-0.0078125,-0,197.11,226276
0.0284424,0.0183716,0.944763,0,-0.001,18.03,18.03,1.65338,1.04265,0,0,0,-0.0078125,-0,197.13,226306
0.0280762,0.0205078,0.955322,0,0,18.03,18.03,1.65338,1.04265,0,0,0,-0.0078125,-0,197.151,226321
0.0283813,0.0164185,0.950806,-0.001,-0.003,18.03,18.03,1.65338,1.04265,0,0,0,-0.0078125,-0,197.183,226351
0.027832,0.0182495,0.944824,0,-0.001,18.03,18.03,1.65338,1.04265,0,0,0,-0.0078125,-0,197.195,226366
0.0307617,0.0180664,0.954041,0.001,-0.002,18.03,18.03,1.65338,1.04265,0,0,0,-0.0078125,-0,197.21,226381
0.0276489,0.0230713,0.954102,0,0.003,18.03,18.03,1.65338,1.04265,0,0,0,-0.0078125,-0,197.231,226411
0.0301514,0.0180664,0.950989,0,-0.002,18.03,18.03,1.65338,1.04265,0,0,0,-0.0078125,-0,197.251,226426
0.0267334,0.0213623,0.946106,-0.001,0.002,18.03,18.03,1.65338,1.04265,0,0,0,-0.0078125,-0,197.27,226441
0.0292358,0.0205688,0.951172,0,0,18.03,18.03,1.65338,1.04265,0,0,0,-0.0078125,-0,197.29,226456
0.0250244,0.017334,0.950256,-0.004,-0.001,18.03,18.03,1.65338,1.04265,0,0,0,-0.0078125,-0,197.311,226486
0.0307617,0.0178223,0.941833,0.001,-0.002,18.03,18.03,1.65338,1.04265,0,0,0,-0.0078125,-0,197.33,226501
0.0269775,0.0189819,0.955139,-0.001,0,18.03,18.03,1.65338,1.04265,0,0,0,-0.0078125,-0,197.351,226516
0.0307007,0.0192261,0.958984,0.001,-0.001,18.03,18.03,1.65338,1.04265,0,0,0,-0.0078125,-0,197.37,226546
0.0274658,0.0209961,0.942139,0,0.001,18.03,18.03,1.65338,1.04265,0,0,0,-0.0078125,-0,197.391,226561
0.0283813,0.0253906,0.966675,0.001,0.005,18.03,18.03,1.65338,1.04265,0,0,0,-0.0078125,-0,197.41,226576
0.0266113,0.0214844,0.958069,-0.001,0.001,18.03,18.03,1.65338,1.04265,0,0,0,-0.0078125,-0,197.431,226606
0.02948,0.0172729,0.938049,0,-0.002,18.03,18.03,1.65338,1.04265,0,0,0,-0.0078125,-0,197.455,226621
0.0299683,0.0176392,0.938354,0.001,-0.002,18.03,18.03,1.65338,1.04265,0,0,0,-0.0078125,-0,197.475,226651
0.0281982,0.0177612,0.95697,-0.001,-0.001,18.03,18.03,1.65338,1.04265,0,0,0,-0.0078125,-0,197.495,226666
0.0285645,0.019165,0.929871,0,0,18.03,18.03,1.65338,1.04265,0,0,0,-0.0078125,-0,197.511,226681
0.0245361,0.0223999,0.962646,-0.003,0.003,18.03,18.03,1.65338,1.04265,0,0,0,-0.0078125,-0,197.531,226696
0.0300293,0.0219727,0.960022,0.001,0.001,18.03,18.03,1.65338,1.04265,0,0,0,-0.0078125,-0,197.551,226726
0.027771,0.0166626,0.94635,-0.001,-0.002,18.03,18.03,1.65338,1.04265,0,0,0,-0.0078125,-0,197.571,226741
0.029541,0.0179443,0.946594,0,-0.002,18.03,18.03,1.65338,1.04265,0,0,0,-0.0078125,-0,197.593,226771
0.0301514,0.0180054,0.940857,0.001,-0.002,18.03,18.03,1.65338,1.04265,0,0,0,-0.0078125,-0,197.61,226786
0.0254517,0.017395,0.947327,-0.003,-0.001,18.03,18.03,1.65338,1.04265,0,0,0,-0.0078125,-0,197.63,226801
0.0287476,0.0202637,0.942139,0,0,18.03,18.03,1.65338,1.04265,0,0,0,-0.0078125,-0,197.651,226816
0.0269165,0.0215454,0.943726,0,0.002,18.03,18.03,1.65338,1.04265,0,0,0,-0.0078125,-0,197.671,226846
0.0263062,0.0220337,0.957886,-0.001,0.002,18.02,18.02,1.65338,1.04265,0,0,0,-0.0078125,-0,197.69,226861
0.0274048,0.0203857,0.945435,0,0,18.03,18.03,1.65338,1.04265,0,0,0,-0.0078125,-0,197.71,226876
0.0291748,0.0178833,0.94751,0,-0.002,18.02,18.02,1.65338,1.04265,0,0,0,-0.0078125,-0,197.73,226906
0.0299072,0.0174561,0.947937,0,-0.002,18.02,18.02,1.65338,1.04265,0,0,0,-0.0078125,-0,197.751,226921
0.026062,0.0197144,0.940552,-0.001,0,18.02,18.02,1.65338,1.04265,0,0,0,-0.0078125,-0,197.77,226936
0.0296631,0.0201416,0.946533,0.001,0,18.02,18.02,1.65338,1.04265,0,0,0,-0.0078125,-0,197.807,226981
0.0297241,0.0219727,0.955811,0.001,0.001,18.02,18.02,1.65338,1.04265,0,0,0,-0.0078125,-0,197.86,227026
0.0267944,0.0217896,0.947144,0,0.002,18.02,18.02,1.65338,1.04265,0,0,0,-0.0078125,-0,197.87,227040
0.0291138,0.0200806,0.95105,0,0,18.02,18.02,1.65338,1.04265,0,0,0,-0.0078125,-0,197.89,227055
0.0306396,0.0158081,0.944275,0,-0.004,18.02,18.02,1.65338,1.04265,0,0,0,-0.0078125,-0,197.91,227085
0.0321655,0.0201416,0.943054,0.003,0,18.02,18.02,1.65338,1.04265,0,0,0,-0.0078125,-0,197.93,227100
0.0244751,0.0194092,0.944641,-0.003,0,18.02,18.02,1.65338,1.04265,0,0,0,-0.0078125,-0,197.95,227115
0.0278931,0.020813,0.95105,0,0.001,18.02,18.02,1.65338,1.04265,0,0,0,-0.0078125,-0,197.97,227145
0.027771,0.0223389,0.952515,0,0.002,18.02,18.02,1.65338,1.04265,0,0,0,-0.0078125,-0,198.005,227175
0.0271606,0.0213013,0.955688,-0.001,0.001,18.02,18.02,1.65338,1.04265,0,0,0,-0.0078125,-0,198.011,227191
0.0282593,0.0199585,0.950134,0,0,18.02,18.02,1.65338,1.04265,0,0,0,-0.0078125,-0,198.031,227205
0.0292969,0.0183716,0.940796,0,-0.001,18.02,18.02,1.65338,1.04265,0,0,0,-0.0078125,-0,198.058,227235
0.0292969,0.0183716,0.940796,0,-0.001,18.02,18.02,1.65338,1.04265,0,0,0,-0.0078125,-0,198.071,227235
0.029541,0.0178833,0.945679,0,-0.002,18.02,18.02,1.65338,1.04265,0,0,0,-0.0078125,-0,198.092,227265
0.0285034,0.0197144,0.945435,0,0,18.02,18.02,1.65338,1.04265,0,0,-202.98,-0.0078125,-0,198.11,227280
0.0894775,0.0131226,0.888367,0.058,-0.024,18.02,18.02,1.65343,1.04263,0,0,-660.415,-0.0078125,-0,198.131,227295
0.0127563,-0.265564,0.642639,-0.093,-0.258,17.91,17.91,1.65378,1.04114,0,52.821,-467.617,-0.0078125,-0,198.151,227325
