raw_accel_x,raw_accel_y,raw_accel_z,raw_gyro_x,raw_gyro_y,raw_gyro_z,world_accel_x,world_accel_y,yaw,x,y,z,left_encoder_rate,right_encoder_rate,left_motor,right_motor,temp,fpga time,navx time
-0.00592041,-0.0130615,1.0127,0,0,-0.0610352,0.001,0,73.6,0.104462,0.00143433,0,0,0,0,0,41.45,265.574,3256145
-0.00592041,-0.0130615,1.0127,0,0,-0.0610352,0.001,0,73.6,0.104462,0.00143433,0,0,0,0,0,41.45,265.58,3256145
-0.00427246,-0.0150757,1.00818,0,0.0610352,0.0610352,0.002,0,0,0,0,0,0,0,0,0,41.45,265.598,3256175
-0.0057373,-0.0114746,1.01276,-0.12207,-0.183105,0.0610352,0,0.002,0,0,0,0,0,0,0,0,41.45,265.618,3256191
-0.00750732,-0.0139771,1.01459,0,0,0,-0.001,0,0,0,0,0,0,0,0,0,41.45,265.638,3256205
-0.00524902,-0.0177612,1.00946,-0.183105,-0.12207,-0.0610352,0.001,-0.003,0,0,0,0,0,0,0,0,41.45,265.658,3256235
-0.00598145,-0.015564,1.01562,-0.0610352,-0.12207,0.0610352,0,-0.001,0,0,0,0,0,0,0,0,41.45,265.68,3256251
-0.00653076,-0.0167847,1.01923,-0.0610352,-0.12207,-0.0610352,0,-0.002,0,0,0,0,0,0,0,0,41.45,265.697,3256265
-0.00469971,-0.0145264,1.01379,0.0610352,0.0610352,-0.0610352,0.001,0,0,0,0,0,0,0,0,0,41.45,265.718,3256295
-0.00549316,-0.0129395,1.00891,0.12207,0,-0.0610352,0,0.001,0,0,0,0,0,0,0,0,41.45,265.738,3256311
-0.00378418,-0.0164795,1.01404,0.12207,0.0610352,0,0.002,-0.002,0,0,0,0,0,0,0,0,41.45,265.758,3256325
-0.00531006,-0.015564,1.01691,0.12207,0,-0.0610352,0.001,-0.001,0,0,0,0,0,0,0,0,41.45,265.778,3256340
-0.00506592,-0.0140991,1.01459,0.0610352,0,0,0.001,0,0,0,0,0,0,0,0,0,41.45,265.798,3256371
-0.00537109,-0.0136719,1.01392,0,-0.0610352,-0.12207,0,0,0,0,0,0,0,0,0,0,41.45,265.819,3256386
-0.0045166,-0.0131836,1.01282,-0.0610352,-0.12207,-0.12207,0.001,0.001,0,0,0,0,0,0,0,0,41.45,265.839,3256416
-0.00598145,-0.0158081,1.01074,-0.12207,0,0,0,-0.001,0,0,0,0,0,0,0,0,41.45,265.858,3256431
-0.00720215,-0.015686,1.01544,-0.0610352,-0.12207,-0.0610352,0,-0.001,0,0,0,0,0,0,0,0,41.45,265.879,3256446
-0.00628662,-0.0146484,1.0119,0.0610352,0.0610352,0.12207,0,0,0,0,0,0,0,0,0,0,41.45,265.899,3256476
-0.00848389,-0.0159912,1.01593,0.0610352,0.0610352,-0.12207,-0.002,-0.001,0,0,0,0,0,0,0,0,41.45,265.918,3256491
-0.00439453,-0.0115967,1.0116,-0.0610352,-0.0610352,-0.183105,0.001,0.002,0,0,0,0,0,0,0,0,41.43,265.941,3256506
-0.0090332,-0.0133667,1.02234,0,0,-0.0610352,-0.002,0.001,0,0,0,0,0,0,0,0,41.43,265.973,3256536
-0.00585938,-0.0151978,1.01245,-0.12207,-0.183105,0,0,0,0,0,0,0,0,0,0,0,41.43,265.981,3256551
-0.00695801,-0.013855,1.01385,-0.0610352,-0.305176,-0.0610352,0,0,0,0,0,0,0,0,0,0,41.43,266,3256566
-0.00604248,-0.0136719,1.01471,0,0,-0.0610352,0,0,0,0,0,0,0,0,0,0,41.43,266.021,3256596
-0.00787354,-0.0159912,1.01257,0,0.0610352,-0.0610352,-0.001,-0.001,0,0,0,0,0,0,0,0,41.43,266.042,3256611
-0.0067749,-0.0130615,1.01447,0.0610352,-0.0610352,-0.0610352,0,0.001,0,0,0,0,0,0,0,0,41.43,266.059,3256626
-0.00537109,-0.0149536,1.01025,-0.12207,-0.0610352,0,0,0,0,0,0,0,0,0,0,0,41.43,266.08,3256656
-0.00299072,-0.0130615,1.01459,-0.0610352,-0.12207,-0.0610352,0.003,0.001,0,0,0,0,0,0,0,0,41.43,266.098,3256671
-0.00769043,-0.0183105,1.01862,0,-0.0610352,0,-0.001,-0.003,0,0,0,0,0,0,0,0,41.43,266.117,3256686
-0.0067749,-0.0119629,1.008,-0.0610352,-0.12207,-0.0610352,0,0.002,0,0,0,0,0,0,0,0,41.43,266.138,3256716
-0.00756836,-0.0139771,1.01434,-0.0610352,-0.0610352,-0.0610352,-0.001,0,0,0,0,0,0,0,0,0,41.43,266.158,3256731
-0.00561523,-0.0150757,1.0177,0.0610352,0.0610352,-0.12207,0,0,0,0,0,0,0,0,0,0,41.43,266.18,3256746
-0.00769043,-0.0130005,1.01385,-0.0610352,-0.12207,-0.183105,-0.001,0.001,0,0,0,0,0,0,0,0,41.43,266.197,3256761
-0.00488281,-0.013855,1.01031,0,0.0610352,-0.0610352,0.001,0,0,0,0,0,0,0,0,0,41.43,266.22,3256791
-0.00866699,-0.0130005,1.01245,-0.0610352,0,0,-0.002,0.001,0,0,0,0,0,0,0,0,41.43,266.239,3256806
-0.00775146,-0.0134277,1.00958,0.0610352,0,-0.0610352,-0.001,0,0,0,0,0,0,0,0,0,41.43,266.258,3256821
-0.0065918,-0.0136719,1.0105,0.0610352,0,-0.12207,0,0,0,0,0,0,0,0,0,0,41.43,266.278,3256851
-0.0055542,-0.0148926,1.01105,-0.0610352,-0.12207,0,0,0,0,0,0,0,0,0,0,0,41.43,266.298,3256866
-0.00671387,-0.0134277,1.0152,0,0,0,0,0,0,0,0,0,0,0,0,0,41.43,266.318,3256881
-0.00610352,-0.0181885,1.01245,0.12207,0.0610352,0.0610352,0,-0.003,0,0,0,0,0,0,0,0,41.43,266.342,3256911
-0.00482178,-0.0137939,1.01086,0,-0.0610352,0,0.001,0,0,0,0,0,0,0,0,0,41.43,266.358,3256926
-0.00689697,-0.0142212,1.01495,-0.12207,-0.183105,0,0,0,0,0,0,0,0,0,0,0,41.43,266.381,3256956
-0.00708008,-0.0150757,1.01154,0,-0.183105,0,0,0,0,0,0,0,0,0,0,0,41.43,266.398,3256971
-0.00622559,-0.0159912,1.01526,0,0,0.0610352,0,-0.001,0,0,0,0,0,0,0,0,41.45,266.443,3257016
-0.00701904,-0.015625,1.01337,0.12207,-0.0610352,0.0610352,0,-0.001,0,0,0,0,0,0,0,0,41.45,266.458,3257031
-0.0022583,-0.0125122,1.01306,0.12207,-0.0610352,-0.0610352,0.003,0.001,0,0,0,0,0,0,0,0,41.45,266.478,3257046
-0.00512695,-0.0159302,1.01447,-0.0610352,-0.183105,0,0.001,-0.001,0,0,0,0,0,0,0,0,41.45,266.499,3257076
-0.00921631,-0.0118408,1.01801,0.0610352,0.0610352,0.0610352,-0.002,0.002,0,0,0,0,0,0,0,0,41.45,266.518,3257091
-0.00787354,-0.0125122,1.013,-0.0610352,-0.0610352,-0.0610352,-0.001,0.001,0,0,0,0,0,0,0,0,41.45,266.538,3257106
-0.00817871,-0.0126953,1.01221,-0.0610352,-0.12207,-0.0610352,-0.001,0.001,0,0,0,0,0,0,0,0,41.45,266.558,3257136
-0.00817871,-0.0169067,1.0163,0,0,0.0610352,-0.001,-0.002,-0.01,0,0,0,0,0,0,0,41.45,266.587,3257151
-0.00476074,-0.012207,1.013,-0.12207,-0.244141,-0.0610352,0.001,0.001,-0.01,0,0,0,0,0,0,0,41.45,266.598,3257166
-0.00653076,-0.0136108,1.01349,-0.0610352,-0.0610352,0,0,0,-0.01,0,0,0,0,0,0,0,41.45,266.618,3257181
-0.00628662,-0.0161743,1.0141,-0.183105,-0.183105,0,0,-0.002,-0.01,0,0,0,0,0,0,0,41.45,266.639,3257211
-0.00708008,-0.0150757,1.01593,-0.12207,-0.244141,-0.0610352,0,0,-0.01,0,0,0,0,0,0,0,41.45,266.659,3257226
-0.00701904,-0.0178833,1.01062,0.12207,0,0.0610352,0,-0.003,-0.01,0,0,0,0,0,0,0,41.45,266.681,3257256
-0.00622559,-0.0145874,1.00879,0,-0.0610352,-0.0610352,0,0,-0.01,0,0,0,0,0,0,0,41.45,266.698,3257272
-0.00500488,-0.0151978,1.01428,0.0610352,0.0610352,0,0.001,-0.001,-0.01,0,0,0,0,0,0,0,41.45,266.718,3257286
-0.00408936,-0.0150146,1.01111,-0.0610352,-0.183105,-0.0610352,0.002,0,-0.01,0,0,0,0,0,0,0,41.45,266.738,3257316
-0.0067749,-0.0144653,1.0116,0,0.0610352,-0.0610352,0,0,-0.01,0,0,0,0,0,0,0,41.45,266.758,3257332
-0.00878906,-0.0141602,1.01483,-0.0610352,-0.12207,0,-0.002,0,-0.01,0,0,0,0,0,0,0,41.45,266.778,3257346
-0.00830078,-0.0177002,1.01428,-0.12207,-0.0610352,-0.0610352,-0.002,-0.003,-0.01,0,0,0,0,0,0,0,41.45,266.798,3257376
-0.00585938,-0.0152588,1.01617,0,0.0610352,-0.0610352,0,-0.001,-0.01,0,0,0,0,0,0,0,41.45,266.818,3257392
-0.00549316,-0.0166016,1.01385,0.12207,0.0610352,-0.0610352,0,-0.002,-0.01,0,0,0,0,0,0,0,41.45,266.839,3257406
-0.00482178,-0.015625,1.01312,0,-0.0610352,0.0610352,0.001,-0.001,-0.01,0,0,0,0,0,0,0,41.45,266.86,3257436
-0.00714111,-0.0139771,1.01123,0.0610352,-0.12207,0.0610352,0,0,-0.01,0,0,0,0,0,0,0,41.45,266.878,3257452
-0.00720215,-0.0142212,1.01648,0.12207,0,0,0,0,-0.01,0,0,0,0,0,0,0,41.45,266.898,3257466
-0.00775146,-0.012146,1.01373,0.0610352,-0.0610352,-0.0610352,-0.001,0.001,-0.01,0,0,0,0,0,0,0,41.45,266.918,3257481
-0.00872803,-0.0147705,1.01532,0.0610352,-0.12207,-0.183105,-0.002,0,-0.01,0,0,0,0,0,0,0,41.45,266.939,3257512
-0.00531006,-0.0154419,1.01855,0,0,-0.0610352,0,-0.001,-0.01,0,0,0,0,0,0,0,41.49,266.958,3257526
-0.0055542,-0.0131226,1.00897,0,0,-0.0610352,0,0,-0.01,0,0,0,0,0,0,0,41.49,266.978,3257556
-0.00408936,-0.0171509,1.01288,0,0,-0.183105,0.002,-0.003,-0.01,0,0,0,0,0,0,0,41.49,267,3257572
-0.00842285,-0.0144043,1.01416,0.0610352,0.12207,-0.12207,-0.002,0,-0.01,0,0,0,0,0,0,0,41.49,267.018,3257586
-0.00598145,-0.0169678,1.01361,-0.0610352,-0.12207,0,0,-0.002,-0.01,0,0,0,0,0,0,0,41.49,267.039,3257601
-0.00897217,-0.0161743,1.01178,0,-0.0610352,-0.0610352,-0.002,-0.002,-0.01,0,0,0,0,0,0,0,41.49,267.058,3257632
-0.00585938,-0.0157471,1.01331,0.0610352,0.12207,-0.0610352,0,-0.001,-0.01,0,0,0,0,0,0,0,41.49,267.078,3257646
-0.00457764,-0.0133057,1.0174,0,0,0,0.001,0,-0.01,0,0,0,0,0,0,0,41.49,267.099,3257661
-0.00366211,-0.013916,1.01208,-0.0610352,-0.183105,0.0610352,0.002,0,-0.01,0,0,0,0,0,0,0,41.49,267.118,3257692
-0.00946045,-0.0142212,1.0163,0.0610352,-0.0610352,0,-0.003,0,-0.01,0,0,0,0,0,0,0,41.49,267.141,3257706
-0.00482178,-0.0151978,1.0163,-0.0610352,-0.183105,0,0.001,-0.001,-0.01,0,0,0,0,0,0,0,41.49,267.16,3257737
-0.00494385,-0.0115967,1.01379,0.0610352,-0.0610352,0,0.001,0.002,-0.01,0,0,0,0,0,0,0,41.49,267.179,3257752
-0.00512695,-0.0139771,1.01257,0,0,-0.12207,0.001,0,-0.01,0,0,0,0,0,0,0,41.49,267.201,3257767
-0.00689697,-0.0149536,1.01648,-0.12207,-0.0610352,-0.0610352,0,0,-0.01,0,0,0,0,0,0,0,41.49,267.219,3257782
-0.00219727,-0.0112305,1.01544,0,-0.12207,-0.0610352,0.004,0.002,-0.01,0,0,0,0,0,0,0,41.49,267.238,3257812
-0.00732422,-0.0172119,1.0163,0.0610352,-0.0610352,0.0610352,0,-0.003,-0.01,0,0,0,0,0,0,0,41.49,267.259,3257827
-0.00665283,-0.0140381,1.01489,0.0610352,0,-0.0610352,0,0,-0.01,0,0,0,0,0,0,0,41.49,267.278,3257842
-0.00592041,-0.0144653,1.0174,-0.0610352,-0.244141,-0.0610352,0,0,-0.01,0,0,0,0,0,0,0,41.49,267.298,3257872
-0.00708008,-0.0155029,1.01453,-0.12207,-0.12207,-0.0610352,0,-0.001,-0.01,0,0,0,0,0,0,0,41.49,267.319,3257887
-0.00469971,-0.0131226,1.00903,-0.0610352,-0.0610352,-0.0610352,0.001,0,-0.01,0,0,0,0,0,0,0,41.49,267.338,3257902
-0.00762939,-0.0132446,1.01294,0.0610352,-0.12207,-0.0610352,-0.001,0,-0.01,0,0,0,0,0,0,0,41.49,267.359,3257932
-0.00646973,-0.0155029,1.00623,-0.0610352,-0.0610352,-0.0610352,0,-0.001,-0.01,0,0,0,0,0,0,0,41.49,267.378,3257947
-0.00592041,-0.0162964,1.01208,0,0,0,0,-0.002,-0.01,0,0,0,0,0,0,0,41.49,267.398,3257962
-0.00897217,-0.015564,1.00562,-0.0610352,-0.183105,-0.0610352,-0.002,-0.001,-0.01,0,0,0,0,0,0,0,41.49,267.423,3257992
-0.00476074,-0.0114136,1.0144,0,0,0,0.001,0.002,-0.01,0,0,0,0,0,0,0,41.49,267.438,3258007
-0.00518799,-0.0128784,1.0152,0.0610352,0.183105,0,0.001,0.001,-0.01,0,0,0,0,0,0,0,41.49,267.458,3258022
-0.00531006,-0.0143433,1.01208,-0.0610352,-0.12207,0.0610352,0,0,-0.01,0,0,0,0,0,0,0,41.48,267.479,3258052
-0.00549316,-0.012146,1.01495,0.0610352,0,-0.12207,0,0.001,-0.02,0,0,0,0,0,0,0,41.48,267.499,3258067
-0.00653076,-0.0123291,1.01758,0,-0.0610352,-0.0610352,0,0.001,-0.01,0,0,0,0,0,0,0,41.48,267.518,3258082
-0.00469971,-0.0123901,1.0116,0.0610352,-0.0610352,-0.0610352,0.001,0.001,-0.02,0,0,0,0,0,0,0,41.48,267.538,3258112
-0.00689697,-0.0131226,1.0163,0,-0.0610352,0,0,0,-0.02,0,0,0,0,0,0,0,41.48,267.558,3258127
-0.00762939,-0.0152588,1.01587,-0.0610352,-0.183105,0.0610352,-0.001,-0.001,-0.02,0,0,0,0,0,0,0,41.48,267.578,3258142
-0.00524902,-0.0168457,1.01263,-0.0610352,0,-0.0610352,0,-0.002,-0.02,0,0,0,0,0,0,0,41.48,267.599,3258172
-0.00640869,-0.0140991,1.01782,-0.0610352,-0.183105,-0.0610352,0,0,-0.02,0,0,0,0,0,0,0,41.48,267.619,3258187
-0.00640869,-0.0142212,1.01044,0,-0.0610352,-0.0610352,0,0,-0.02,0,0,0,0,0,0,0,41.48,267.639,3258202
-0.00402832,-0.0172119,1.01068,0.0610352,-0.183105,0.12207,0.002,-0.003,-0.02,0,0,0,0,0,0,0,41.48,267.658,3258232
-0.00793457,-0.0133057,1.01862,0.0610352,0.0610352,-0.0610352,-0.001,0,-0.02,0,0,0,0,0,0,0,41.48,267.679,3258247
-0.00378418,-0.0128784,1.00623,0.12207,0.0610352,-0.0610352,0.002,0.001,-0.02,0,0,0,0,0,0,0,41.48,267.698,3258262
-0.00689697,-0.0150757,1.01508,0,0,0,0,0,-0.02,0,0,0,0,0,0,0,41.48,267.718,3258292
-0.00445557,-0.0109253,1.0083,0.0610352,0,-0.12207,0.001,0.003,-0.02,0,0,0,0,0,0,0,41.48,267.738,3258307
-0.00366211,-0.0159912,1.01984,-0.12207,-0.0610352,0,0.002,-0.001,-0.02,0,0,0,0,0,0,0,41.48,267.758,3258322
-0.00457764,-0.0154419,1.01349,0,-0.0610352,-0.0610352,0.001,-0.001,-0.02,0,0,0,0,0,0,0,41.48,267.778,3258352
-0.0067749,-0.0145874,1.0047,0,0,-0.183105,0,0,-0.02,0,0,0,0,0,0,0,41.48,267.798,3258367
-0.00598145,-0.0166016,1.0141,0,-0.0610352,0.0610352,0,-0.002,-0.02,0,0,0,0,0,0,0,41.48,267.819,3258397
-0.00744629,-0.0153198,1.01031,0.0610352,-0.12207,-0.12207,-0.001,-0.001,-0.02,0,0,0,0,0,0,0,41.48,267.838,3258412
-0.00994873,-0.0119629,1.01691,0.12207,0,-0.12207,-0.003,0.002,-0.02,0,0,0,0,0,0,0,41.48,267.866,3258442
-0.00921631,-0.0123291,1.01575,0,0,0,-0.002,0.001,-0.02,0,0,0,0,0,0,0,41.48,267.878,3258457
-0.00769043,-0.0145264,1.01331,-0.0610352,-0.12207,0,-0.001,0,-0.02,0,0,0,0,0,0,0,41.48,267.898,3258472
-0.00512695,-0.0132446,1.01129,0,-0.12207,0,0.001,0,-0.02,0,0,0,0,0,0,0,41.48,267.918,3258487
-0.00738525,-0.0166626,1.01331,0,-0.0610352,0.0610352,-0.001,-0.002,-0.02,0,0,0,0,0,0,0,41.48,267.938,3258502
-0.00561523,-0.0161743,1.01208,0,0,-0.0610352,0,-0.002,-0.02,0,0,0,0,0,0,0,41.48,267.96,3258532
-0.0088501,-0.0134888,1.01636,0.0610352,-0.12207,0.12207,-0.002,0,-0.03,0,0,0,0,0,0,0,41.47,267.978,3258547
-0.00787354,-0.0172729,1.0155,0,0,-0.12207,-0.001,-0.003,-0.03,0,0,0,0,0,0,0,41.47,267.998,3258562
-0.00622559,-0.0166626,1.01001,0.0610352,0,0,0,-0.002,-0.03,0,0,0,0,0,0,0,41.47,268.02,3258593
-0.00860596,-0.0125732,1.01459,-0.12207,0,-0.0610352,-0.002,0.001,-0.03,0,0,0,0,0,0,0,41.47,268.039,3258607
-0.00775146,-0.0142822,1.01447,-0.0610352,-0.0610352,0.12207,-0.001,0,-0.03,0,0,0,0,0,0,0,41.47,268.058,3258622
-0.00567627,-0.015564,1.01843,-0.0610352,-0.183105,0,0,-0.001,-0.03,0,0,0,0,0,0,0,41.47,268.078,3258653
-0.00616455,-0.0166016,1.01837,-0.0610352,0,-0.0610352,0,-0.002,-0.03,0,0,0,0,0,0,0,41.47,268.098,3258667
-0.00500488,-0.0146484,1.01312,-0.0610352,-0.0610352,-0.0610352,0.001,0,-0.03,0,0,0,0,0,0,0,41.47,268.119,3258682
-0.00891113,-0.015625,1.01538,0,-0.12207,-0.0610352,-0.002,-0.001,-0.03,0,0,0,0,0,0,0,41.47,268.139,3258713
-0.00823975,-0.013916,1.00476,0,-0.183105,-0.12207,-0.001,0,-0.03,0,0,0,0,0,0,0,41.47,268.16,3258727
-0.00701904,-0.0144653,1.01556,0.12207,0.12207,-0.0610352,0,0,-0.03,0,0,0,0,0,0,0,41.47,268.178,3258742
-0.00653076,-0.0137329,1.01685,-0.0610352,-0.0610352,0,0,0,-0.03,0,0,0,0,0,0,0,41.47,268.198,3258773
-0.00494385,-0.0115967,1.01685,0.0610352,0.0610352,0,0.001,0.002,-0.03,0,0,0,0,0,0,0,41.47,268.218,3258787
-0.00628662,-0.0167847,1.013,-0.0610352,-0.0610352,-0.12207,0,-0.002,-0.03,0,0,0,0,0,0,0,41.47,268.243,3258817
-0.00701904,-0.0166016,1.01361,-0.12207,-0.183105,-0.0610352,0,-0.002,-0.03,0,0,0,0,0,0,0,41.47,268.258,3258833
-0.00762939,-0.013916,1.00879,-0.0610352,-0.183105,0.0610352,-0.001,0,-0.03,0,0,0,0,0,0,0,41.47,268.278,3258847
-0.00537109,-0.0133057,1.00519,0,0.0610352,-0.0610352,0,0,-0.03,0,0,0,0,0,0,0,41.47,268.299,3258862
-0.0067749,-0.0152588,1.01147,-0.0610352,-0.183105,-0.0610352,0,-0.001,-0.04,0,0,0,0,0,0,0,41.47,268.319,3258893
-0.00726318,-0.0147705,1.0174,-0.0610352,-0.12207,-0.0610352,0,0,-0.04,0,0,0,0,0,0,0,41.47,268.342,3258907
-0.00476074,-0.0150146,1.01581,0,-0.0610352,0,0.001,0,-0.04,0,0,0,0,0,0,0,41.47,268.359,3258922
-0.00488281,-0.0159302,1.0108,-0.0610352,-0.0610352,-0.0610352,0.001,-0.001,-0.04,0,0,0,0,0,0,0,41.47,268.409,3258982
-0.00488281,-0.0159302,1.0108,-0.0610352,-0.0610352,-0.0610352,0.001,-0.001,-0.04,0,0,0,0,0,0,0,41.47,268.42,3258982
-0.00860596,-0.012085,1.01794,0.183105,0,-0.12207,-0.002,0.002,-0.04,0,0,0,0,0,0,0,41.47,268.439,3259013
-0.00671387,-0.0117188,1.01093,-0.0610352,0,-0.0610352,0,0.002,-0.04,0,0,0,0,0,0,0,41.47,268.458,3259027
-0.00469971,-0.0152588,1.01611,-0.0610352,-0.12207,-0.12207,0.001,0,-0.04,0,0,0,0,0,0,0,41.46,268.483,3259057
-0.00744629,-0.0172119,1.01221,-0.0610352,-0.0610352,-0.0610352,-0.001,-0.002,-0.04,0,0,0,0,0,0,0,41.46,268.498,3259073
-0.00726318,-0.0134277,1.01227,-0.0610352,-0.12207,0,0,0,-0.04,0,0,0,0,0,0,0,41.46,268.517,3259087
-0.0067749,-0.0161743,1.00934,0,-0.12207,-0.0610352,0,-0.001,-0.04,0,0,0,0,0,0,0,41.46,268.538,3259103
-0.00634766,-0.0150757,1.00568,0.0610352,0.12207,0,0,0,-0.04,0,0,0,0,0,0,0,41.46,268.558,3259133
-0.00567627,-0.0153809,1.01471,0,0,-0.0610352,0,-0.001,-0.04,0,0,0,0,0,0,0,41.46,268.578,3259148
-0.00720215,-0.015625,1.00952,0,-0.0610352,-0.12207,0,-0.001,-0.04,0,0,0,0,0,0,0,41.46,268.601,3259178
-0.0057373,-0.0118408,1.01392,0,0,0,0,0.002,-0.04,0,0,0,0,0,0,0,41.46,268.619,3259193
-0.00646973,-0.0153198,1.01251,0,0,-0.12207,0,-0.001,-0.04,0,0,0,0,0,0,0,41.46,268.639,3259208
-0.00762939,-0.0150757,1.01697,0,-0.0610352,-0.0610352,-0.001,0,-0.04,0,0,0,0,0,0,0,41.46,268.658,3259223
-0.00604248,-0.0144653,1.0105,-0.12207,-0.12207,0,0,0,-0.04,0,0,0,0,0,0,0,41.46,268.678,3259253
-0.00750732,-0.0133057,1.0127,0,-0.0610352,0,-0.001,0,-0.04,0,0,0,0,0,0,0,41.46,268.699,3259268
-0.00665283,-0.0162354,1.01477,0.0610352,0,-0.0610352,0,-0.002,-0.04,0,0,0,0,0,0,0,41.46,268.719,3259283
-0.00805664,-0.0142822,1.0116,-0.0610352,-0.0610352,0.0610352,-0.001,0,-0.04,0,0,0,0,0,0,0,41.46,268.743,3259313
-0.00720215,-0.0147705,1.01233,0,0,0,0,0,-0.04,0,0,0,0,0,0,0,41.46,268.764,3259343
-0.00531006,-0.0120239,1.0116,0,-0.12207,0,0.001,0.002,-0.04,0,0,0,0,0,0,0,41.46,268.791,3259358
-0.00469971,-0.0132446,1.01666,-0.0610352,-0.0610352,-0.0610352,0.001,0.001,-0.04,0,0,0,0,0,0,0,41.46,268.8,3259373
-0.00769043,-0.0158691,1.01813,-0.0610352,-0.0610352,0,-0.001,-0.001,-0.04,0,0,0,0,0,0,0,41.46,268.817,3259388
-0.00323486,-0.0133057,1.01172,-0.12207,-0.12207,0.0610352,0.003,0,-0.04,0,0,0,0,0,0,0,41.46,268.839,3259403
-0.00799561,-0.0126343,1.01477,0.12207,0.12207,-0.0610352,-0.001,0.001,-0.05,0,0,0,0,0,0,0,41.46,268.858,3259433
-0.00469971,-0.0124512,1.01581,-0.12207,-0.244141,0,0.001,0.001,-0.05,0,0,0,0,0,0,0,41.46,268.878,3259448
-0.00494385,-0.0126343,1.01428,-0.0610352,-0.0610352,0.0610352,0.001,0.001,-0.05,0,0,0,0,0,0,0,41.46,268.898,3259463
-0.00592041,-0.0139771,1.01172,0.12207,0.0610352,0,0,0,-0.05,0,0,0,0,0,0,0,41.46,268.918,3259493
-0.00970459,-0.0175171,1.01337,0,0,0,-0.003,-0.003,-0.05,0,0,0,0,0,0,0,41.46,268.941,3259508
-0.00720215,-0.0132446,1.01575,0,-0.12207,0,0,0,-0.05,0,0,0,0,0,0,0,41.46,268.958,3259523
0.000976562,-0.0440674,1.00153,-3.479,-0.610352,-0.366211,0.007,-0.027,-0.04,0,-0.000259399,0,0,0,0,0,41.46,268.978,3259553
-0.0153198,0.00854492,0.998901,-2.13623,-0.12207,0.0610352,-0.008,0.025,-0.04,0,-0.000442505,0,0,0,0,0,41.46,268.998,3259568
-0.00927734,-0.0361938,0.994873,1.52588,-0.0610352,0.183105,-0.002,-0.019,-0.04,0,-0.000610352,0,0,0,0,0,41.46,269.018,3259583
-0.012207,-0.00811768,1.02972,2.62451,-0.0610352,0.610352,-0.005,0.008,-0.06,0,-0.00106812,0,0,0,0,0,41.46,269.039,3259613
-0.00457764,-0.0509033,1.05298,2.19727,0.183105,0,0.002,-0.034,-0.06,0,-0.00131226,0,0,0,0,0,41.46,269.06,3259628
-0.0120239,-0.197327,1.00116,-3.11279,0.244141,-0.183105,-0.005,-0.18,-0.06,0,-0.00170898,0,0,0,0,0,41.46,269.078,3259643
-0.026123,0.0281372,0.995789,-2.80762,0.305176,0.305176,-0.019,0.047,-0.07,6.10352e-05,-0.00247192,0,0,0,0,0,41.46,269.098,3259673
0.0055542,-0.0780029,0.996033,0.854492,0.732422,0.793457,0.012,-0.058,-0.08,0.000106812,-0.00280762,0,0,0,0,0,41.46,269.118,3259688
-0.0246582,-0.0790405,1.03632,1.83105,0.915527,-0.244141,-0.017,-0.058,-0.08,0.000106812,-0.00323486,0,0,0,0,0,41.46,269.139,3259703
-0.00799561,-0.052063,0.979126,1.40381,0.12207,-0.976562,-0.001,-0.033,-0.06,0.000106812,-0.00413513,0,0,0,0,0,41.46,269.158,3259733
-0.0206909,-0.0294189,1.03271,0.915527,-0.0610352,-0.732422,-0.013,-0.009,-0.05,0.000106812,-0.00462341,0,0,0,0,0,41.46,269.178,3259748
-0.013855,-0.0136719,1.02313,-0.610352,-0.610352,-0.488281,-0.006,0.006,-0.04,0.000106812,-0.00511169,0,0,0,0,0,41.46,269.198,3259763
0.00378418,-0.0441284,1.02106,-4.08936,-0.488281,0,0.011,-0.02,-0.03,1.52588e-05,-0.00636292,0,0,0,0,0,41.46,269.218,3259793
0.00579834,-0.0161743,0.981995,-2.44141,-0.854492,1.09863,0.012,0.006,-0.04,0,-0.00704956,0,0,0,0,0,41.46,269.241,3259808
-0.00512695,-0.00817871,0.957458,0.610352,-0.793457,0.671387,0.001,0.014,-0.05,0,-0.00704956,0,0,0,0,0,41.46,269.258,3259823
-0.0162354,-0.0499268,1.03387,2.92969,0.12207,-1.2207,-0.009,-0.026,-0.04,0,-0.00708008,0,0,0,0,0,41.46,269.278,3259853
0.00616455,-0.0345459,1.02582,0.854492,-0.0610352,-2.50244,0.013,-0.011,-0.01,0,-0.00712585,0,0,0,0,0,41.46,269.298,3259868
-0.0270996,-0.0641479,1.01624,-0.976562,1.15967,-2.01416,-0.019,-0.04,0.02,0,-0.00721741,0,0,0,0,0,41.46,269.319,3259883
-0.00744629,0.00305176,0.998169,-0.183105,0.610352,-0.610352,0,0.026,0.04,0,-0.00735474,0,0,0,0,0,41.46,269.339,3259913
-0.00878906,-0.0192871,1.04083,0.793457,0.12207,-0.244141,-0.001,0.005,0.04,0,-0.00737,0,0,0,0,0,41.46,269.358,3259928
-0.00195312,0.000305176,1.06268,1.58691,0.366211,0.244141,0.005,0.024,0.04,0,-0.00737,0,0,0,0,0,41.46,269.378,3259943
0.00531006,-0.0855713,1.039,0.183105,-0.610352,2.31934,0.013,-0.062,0.01,-6.10352e-05,-0.00741577,0,0,0,0,0,41.46,269.398,3259974
-0.00183105,0.0108643,1.02844,-1.64795,-0.488281,2.19727,0.005,0.034,-0.02,-9.15527e-05,-0.00747681,0,0,0,0,0,41.46,269.419,3259988
-0.00872803,0.0181885,1.05237,-1.64795,-0.854492,1.09863,0,0.042,-0.04,-9.15527e-05,-0.00749207,0,0,0,0,0,41.46,269.439,3260003
-0.00891113,-0.00958252,0.989563,-4.02832,-0.854492,-1.52588,-0.001,0.016,-0.03,-9.15527e-05,-0.00767517,0,0,0,0,0,41.46,269.458,3260034
-0.0139771,-0.0924683,1.00543,-2.44141,-0.732422,-0.488281,-0.007,-0.065,-0.02,-9.15527e-05,-0.00782776,0,0,0,0,0,41.46,269.478,3260048
-0.00860596,-0.0314331,0.997192,0.915527,-0.183105,-0.671387,-0.002,-0.004,-0.01,-9.15527e-05,-0.00802612,0,0,0,0,0,41.46,269.498,3260063
0.0346069,-0.0941772,1.02374,3.17383,-0.549316,-1.52588,0.04,-0.067,0.02,-6.10352e-05,-0.00852966,0,0,0,0,0,41.48,269.518,3260094
-0.0267944,-0.0776367,1.03613,2.13623,0.610352,-0.0610352,-0.02,-0.05,0.02,0,-0.00888062,0,0,0,0,0,41.48,269.539,3260108
0.015625,0.00305176,0.987915,-1.0376,-0.427246,-0.488281,0.021,0.028,0.03,6.10352e-05,-0.00968933,0,0,0,0,0,41.48,269.56,3260138
-0.0193481,-0.000427246,0.977356,-1.28174,0,0.244141,-0.013,0.024,0.03,0.000106812,-0.0100403,0,0,0,0,0,41.48,269.588,3260154
-0.0379639,0.0211182,0.990479,0.0610352,0.12207,-0.0610352,-0.031,0.046,0.03,0.000137329,-0.0103455,0,0,0,0,0,41.48,269.599,3260168
0.00256348,0.0088501,1.01727,0.610352,0,-0.366211,0.009,0.034,0.03,0.000137329,-0.0106049,0,0,0,0,0,41.48,269.619,3260183
-0.0360107,0.0122681,1.01233,0.976562,-0.183105,1.0376,-0.029,0.037,0.02,9.15527e-05,-0.0110779,0,0,0,0,0,41.48,269.639,3260214
-0.00939941,0.00268555,1.04999,0.488281,-0.183105,0.488281,-0.002,0.028,0.01,4.57764e-05,-0.0112762,0,0,0,0,0,41.48,269.658,3260228
0.0328979,-0.019165,0.998413,-0.427246,-1.28174,-0.12207,0.039,0.005,0,1.52588e-05,-0.0114441,0,0,0,0,0,41.48,269.679,3260243
0.0264893,-0.00421143,0.983032,-1.46484,-0.427246,0.183105,0.032,0.019,0,0,-0.0116119,0,0,0,0,0,41.48,269.698,3260274
0.003479,-0.0126343,1.02832,-1.09863,-0.0610352,0.183105,0.009,0.012,0,0,-0.0116119,0,0,0,0,0,41.48,269.719,3260288
0.022583,0.00787354,1.0376,-1.2207,-0.610352,0.427246,0.028,0.033,0,4.57764e-05,-0.0115814,0,0,0,0,0,41.48,269.738,3260303
0.0153198,-0.0256958,1.00879,-0.915527,-0.244141,-0.366211,0.02,0,0,0.000137329,-0.0115204,0,0,0,0,0,41.48,269.761,3260334
0.00842285,-0.020813,1.02063,-0.732422,0.305176,-0.793457,0.014,0.004,0.01,0.000213623,-0.0115204,0,0,0,0,0,41.48,269.785,3260348
0.00805664,0.0432129,0.940674,0.366211,-0.488281,-1.0376,0.013,0.066,0.02,0.000305176,-0.0114746,0,0,0,0,0,41.48,269.798,3260363
0.0227661,0.0313721,1.0484,-1.15967,-0.0610352,-1.15967,0.028,0.057,0.06,0.000427246,-0.0111389,0,0,0,0,0,41.48,269.818,3260394
-0.00476074,0.0629272,0.966797,-1.58691,-0.488281,-1.40381,0,0.087,0.07,0.00050354,-0.0108337,0,0,0,0,0,41.48,269.839,3260408
-0.0266113,-0.0133057,1.01318,-0.671387,-0.427246,-0.671387,-0.02,0.012,0.08,0.000579834,-0.0104675,0,0,0,0,0,41.48,269.859,3260423
0.0249634,-0.0206909,1.00024,1.0376,-0.183105,-0.549316,0.03,0.004,0.11,0.00062561,-0.00965881,0,0,0,0,0,41.48,269.878,3260454
-0.0128784,-0.0354614,1.0188,1.64795,0.0610352,-0.488281,-0.007,-0.009,0.11,0.000671387,-0.00923157,0,0,0,0,0,41.48,269.898,3260469
-0.00256348,-0.0615845,1.02191,1.09863,-0.305176,0.244141,0.002,-0.036,0.11,0.000717163,-0.0088501,0,0,0,0,0,41.48,269.919,3260484
-0.00372314,-0.0718384,0.987854,-1.09863,-0.305176,6.28662,0.001,-0.047,0.03,0.000717163,-0.00820923,0,0,0,0,0,41.48,269.939,3260514
0.00744629,0.00860596,1.01917,-1.52588,-0.488281,8.97217,0.012,0.034,-0.08,0.000717163,-0.00793457,0,0,0,0,0,41.48,269.957,3260529
-0.0675049,-0.152649,1.05548,-1.70898,0.0610352,11.5967,-0.061,-0.126,-0.38,0.000671387,-0.00732422,0,0,0,0,0,41.48,269.981,3260559
0.013916,-0.00140381,1.00873,-0.854492,-1.40381,14.5264,0.018,0.024,-0.58,0.000595093,-0.0071106,0,0,0,0,0,41.48,269.998,3260574
-0.0179443,0.0169067,0.984802,-0.305176,-1.28174,14.4043,-0.013,0.042,-0.8,0.000518799,-0.00686646,0,0,0,0,0,41.48,270.018,3260589
-0.00598145,0.0322876,0.981201,1.15967,-1.40381,15.1978,-0.002,0.057,-1.03,0.000518799,-0.00654602,0,0,0,0,0,41.48,270.038,3260604
-0.0181885,-0.0912476,1.09521,-0.12207,-0.244141,18.4326,-0.011,-0.064,-1.55,0.000564575,-0.00588989,0,0,0,0,0,41.48,270.059,3260634
-0.00463867,0.0213623,0.960693,-0.732422,-1.58691,15.8691,-0.001,0.045,-1.8,0.000564575,-0.00559998,0,0,0,0,0,41.48,270.078,3260649
-0.00970459,-0.0148926,0.981934,-1.15967,-1.09863,17.2729,-0.006,0.01,-2.06,0.000564575,-0.00526428,0,0,0,0,0,41.48,270.098,3260664
-0.00683594,-0.130981,1.02435,-0.915527,-0.732422,16.2964,0.001,-0.105,-2.57,0.000610352,-0.0045166,0,0,0,0,0,41.48,270.118,3260694
0.0401001,0.0109863,0.984436,-0.610352,-0.732422,15.0146,0.041,0.038,-2.8,0.000671387,-0.00418091,0,0,0,0,0,41.48,270.139,3260709
-0.00994873,0.0197144,1.03381,-0.0610352,-0.305176,12.3291,-0.008,0.045,-3,0.000747681,-0.00379944,0,0,0,0,0,41.48,270.158,3260724
0.0189209,-0.0435181,0.971924,-0.244141,0.427246,12.3901,0.023,-0.016,-3.38,0.000915527,-0.00340271,0,0,0,0,0,41.48,270.178,3260754
-0.0181885,-0.0824585,1.08099,-0.366211,1.0376,10.9863,-0.01,-0.055,-3.73,0.00112915,-0.00337219,0,0,0,0,0,41.48,270.206,3260784
-0.0181885,-0.0824585,1.08099,-0.366211,1.0376,10.9863,-0.01,-0.055,-3.73,0.00112915,-0.00337219,0,0,0,0,0,41.48,270.219,3260784
0.0244141,-0.00164795,0.99823,-0.671387,-0.854492,11.2915,0.026,0.026,-4.09,0.00114441,-0.00344849,0,0,0,0,0,41.48,270.24,3260814
-0.0251465,-0.00762939,1.0611,0.12207,0.366211,11.5356,-0.022,0.018,-4.25,0.00115967,-0.00346375,0,0,0,0,0,41.48,270.259,3260829
-0.0134277,0.0158081,0.985046,-1.34277,-0.671387,14.7095,-0.012,0.04,-4.46,0.00115967,-0.00343323,0,0,0,0,0,41.48,270.279,3260844
0.0321655,0.0650635,1.03973,-1.40381,-0.793457,12.8784,0.028,0.095,-4.87,0.00123596,-0.00328064,0,0,0,0,0,41.48,270.299,3260874
-0.0408325,0.038208,1.00317,-1.34277,0.183105,14.7095,-0.042,0.061,-5.08,0.001297,-0.00306702,0,0,0,0,0,41.48,270.318,3260889
0.0551758,0.0150757,0.978027,-1.2207,0.12207,14.1602,0.055,0.046,-5.3,0.00137329,-0.0027771,0,0,0,0,0,41.48,270.339,3260904
-0.0283813,-0.0994873,1.07837,-1.77002,0.305176,15.3198,-0.016,-0.072,-5.74,0.00146484,-0.0022583,0,0,0,0,0,41.48,270.359,3260934
-0.0181274,-0.0262451,0.959045,-1.83105,-0.732422,13.855,-0.013,0,-5.96,0.00146484,-0.00209045,0,0,0,0,0,41.48,270.382,3260949
0.00378418,-0.0206299,0.980835,-1.46484,-1.09863,12.8784,0.007,0.008,-6.15,0.00146484,-0.00190735,0,0,0,0,0,41.48,270.401,3260964
0.0120239,-0.0579224,1.03973,-1.2207,0.12207,13.5498,0.02,-0.025,-6.53,0.00143433,-0.00161743,0,0,0,0,0,41.48,270.424,3260994
0.0133057,-0.0652466,0.950745,-1.0376,-0.427246,12.085,0.021,-0.035,-6.72,0.00144958,-0.00154114,0,0,0,0,0,41.48,270.439,3261009
-0.00262451,0.0532837,1.00342,0.366211,-0.671387,12.146,-0.008,0.082,-6.9,0.00146484,-0.00141907,0,0,0,0,0,41.48,270.461,3261024
0.00939941,-0.106506,1.02258,-1.58691,0.366211,13.3667,0.023,-0.073,-7.29,0.00149536,-0.00112915,0,0,0,0,0,41.48,270.482,3261054
0.0147705,-0.00628662,0.991821,-2.01416,-1.0376,14.7095,0.015,0.025,-7.5,0.0015564,-0.00105286,0,0,0,0,0,41.48,270.499,3261069
0.00628662,0.0800781,0.973083,-0.732422,-1.40381,14.3433,-0.004,0.109,-7.72,0.00160217,-0.000869751,0,0,0,0,0,41.48,270.521,3261084
0.024353,0.0297852,0.950623,-1.70898,-0.732422,15.0146,0.02,0.062,-8.18,0.00167847,-0.000305176,0,0,0,0,0,41.48,270.539,3261114
0.0350952,0.0941162,0.991638,-0.854492,-0.976562,15.0757,0.02,0.129,-8.4,0.0017395,0.00012207,0,0,0,0,0,41.48,270.558,3261129
-0.0419922,0.00427246,1.0835,-1.77002,0.671387,15.564,-0.041,0.031,-8.64,0.00180054,0.000656128,0,0,0,0,0,41.48,270.579,3261144
0.00195312,-0.0565186,1.04773,-1.70898,0.976562,13.3057,0.01,-0.022,-9.07,0.0019989,0.00169373,0,0,0,0,0,41.48,270.599,3261174
-0.0227661,-0.0228271,1.06,-1.40381,0.732422,13.1836,-0.018,0.007,-9.27,0.00210571,0.00216675,0,0,0,0,0,41.48,270.619,3261189
0.0388794,0.00262451,0.949402,-2.0752,0.305176,12.146,0.037,0.04,-9.46,0.00224304,0.00268555,0,0,0,0,0,41.48,270.639,3261204
-0.00305176,0.00994873,1.06366,0.488281,0.915527,12.3901,-0.004,0.044,-9.82,0.00254822,0.00393677,0,0,0,0,0,41.48,270.659,3261234
-0.0866699,-0.112488,1.04559,-1.2207,1.64795,12.085,-0.065,-0.091,-10,0.00263977,0.00456238,0,0,0,0,0,41.48,270.678,3261249
0.00994873,0.0458374,0.934509,-0.732422,-0.366211,13.1226,0.002,0.078,-10.19,0.00270081,0.00518799,0,0,0,0,0,41.48,270.697,3261264
-0.0654907,-0.0899658,1.06012,-1.64795,0,15.564,-0.046,-0.064,-10.63,0.00280762,0.00648499,0,0,0,0,0,41.48,270.718,3261295
0.0332642,0.0119019,0.92688,-2.68555,-2.31934,16.9067,0.031,0.05,-10.88,0.00282288,0.00709534,0,0,0,0,0,41.48,270.74,3261309
0.0172729,0.0545654,1.01093,-1.89209,-2.01416,14.9536,0.006,0.092,-11.12,0.00288391,0.0078125,0,0,0,0,0,41.48,270.758,3261324
0.0296631,-0.0551147,1.00226,-1.77002,-1.15967,16.7236,0.04,-0.012,-11.6,0.00296021,0.0092926,0,0,0,0,0,41.48,270.778,3261355
0.0235596,-0.0411377,1.02307,-1.70898,-1.09863,15.564,0.03,0.001,-11.83,0.00305176,0.0092926,0,0,0,0,0,41.48,270.8,3261369
-0.0152588,-0.0570679,1.04285,-2.19727,-0.732422,15.5029,-0.004,-0.021,-12.06,0.00317383,0.00927734,0,0,0,0,0,41.48,270.818,3261384
0.00714111,-0.0343628,0.964661,-1.34277,0.488281,13.3667,0.012,0.004,-12.49,0.0032959,0.00918579,0,0,0,0,0,41.48,270.846,3261415
-0.0477295,-0.200562,1.07709,-1.89209,-0.183105,14.1602,-0.004,-0.164,-12.9,0.00337219,0.00909424,0,0,0,0,0,41.48,270.873,3261444
-0.0322266,-0.022644,0.996765,-3.78418,-0.854492,13.7329,-0.028,0.011,-13.12,0.00340271,0.00889587,0,0,0,0,0,41.48,270.898,3261459
-0.0324097,-0.0925293,1.04547,1.0376,-0.366211,15.686,-0.012,-0.054,-13.54,0.00340271,0.0088501,0,0,0,0,0,41.48,270.918,3261489
0.0120239,-0.0869141,1.02332,0,-1.0376,14.6484,0.029,-0.039,-13.77,0.00341797,0.00874329,0,0,0,0,0,41.48,270.938,3261504
-0.0412598,-0.0935669,1.02216,-0.366211,-0.549316,14.9536,-0.02,-0.058,-14.18,0.00346375,0.00857544,0,0,0,0,0,41.48,270.958,3261535
0.0944214,-0.0432739,1.01227,-0.549316,-0.183105,14.1602,0.098,0.023,-14.41,0.00354004,0.00848389,0,0,0,0,0,41.48,270.978,3261549
-0.0140991,-0.0731201,1.06854,0.12207,-0.305176,13.1836,0,-0.03,-14.61,0.00367737,0.00836182,0,0,0,0,0,41.48,270.998,3261564
0.0477295,0.0164185,0.958618,-0.671387,-0.244141,15.686,0.037,0.067,-15.05,0.00389099,0.00823975,0,0,0,0,0,41.48,271.018,3261595
-0.0294189,-0.0355835,1.13232,0.305176,0.976562,15.3198,-0.024,0.004,-15.28,0.0039978,0.008255,0,0,0,0,0,41.47,271.038,3261609
-0.0229492,-0.0230103,0.94812,-1.34277,-1.15967,15.8081,-0.02,0.01,-15.76,0.00401306,0.00820923,0,0,0,0,0,41.47,271.069,3261639
0.0437622,-0.0419312,1.07141,-0.976562,-0.549316,16.3574,0.048,0.016,-16.01,0.00402832,0.00817871,0,0,0,0,0,41.47,271.077,3261655
-0.0357056,-0.15033,1.05066,-1.40381,-0.732422,15.564,0.002,-0.111,-16.25,0.00405884,0.00808716,0,0,0,0,0,41.47,271.098,3261669
-0.046936,-0.0908813,0.988831,-0.671387,-1.2207,15.625,-0.024,-0.059,-16.48,0.0040741,0.00788879,0,0,0,0,0,41.47,271.118,3261684
0.0144653,-0.0392456,1.00848,0.366211,-1.70898,13.5498,0.018,0.007,-16.9,0.00419617,0.00749207,0,0,0,0,0,41.47,271.138,3261715
-0.0107422,-0.116272,1.01837,0.12207,-1.34277,13.4888,0.017,-0.072,-17.1,0.00419617,0.00726318,0,0,0,0,0,41.47,271.158,3261729
0.0275269,0.0790405,0.998352,0.793457,-2.01416,12.8174,-0.003,0.124,-17.3,0.00419617,0.00708008,0,0,0,0,0,41.47,271.178,3261744
0.0100708,-0.0547485,1.1189,1.15967,0.671387,13.7329,0.018,-0.003,-17.67,0.00411987,0.00674438,0,0,0,0,0,41.47,271.198,3261775
0.038208,-0.0940552,1.03528,-0.0610352,-1.70898,12.6343,0.057,-0.036,-17.87,0.00411987,0.00653076,0,0,0,0,0,41.47,271.218,3261789
-0.0814819,-0.0716553,0.944885,0.488281,-0.976562,13.0005,-0.062,-0.055,-18.05,0.00411987,0.0062561,0,0,0,0,0,41.47,271.238,3261805
0.034668,-0.0924683,1.04907,0.732422,-1.64795,13.7329,0.053,-0.035,-18.47,0.00416565,0.00556946,0,0,0,0,0,41.47,271.258,3261835
-0.0663452,0.0022583,1.0246,0.610352,-0.732422,14.0991,-0.072,0.02,-18.68,0.00419617,0.00520325,0,0,0,0,0,41.47,271.278,3261850
0.029541,0.0436401,0.952881,-0.732422,-2.86865,15.2588,0.005,0.088,-18.91,0.00419617,0.00491333,0,0,0,0,0,41.47,271.298,3261865
-0.00769043,-0.0178833,1.04413,-1.15967,-0.549316,14.7095,-0.01,0.02,-19.35,0.00419617,0.0045929,0,0,0,0,0,41.47,271.318,3261895
-0.043457,-0.0499268,0.968994,-1.40381,-1.95312,14.5874,-0.033,-0.024,-19.57,0.00416565,0.00445557,0,0,0,0,0,41.47,271.34,3261910
0.0551758,0.0429688,1.00397,1.09863,-0.610352,13.5498,0.027,0.097,-19.79,0.00413513,0.00437927,0,0,0,0,0,41.47,271.358,3261925
-0.00793457,-0.0792236,0.972717,0.12207,-1.58691,13.2446,0.009,-0.04,-20.2,0.00413513,0.0043335,0,0,0,0,0,41.47,271.378,3261955
0.0357666,-0.0241089,1.08594,0.488281,0.12207,13.4888,0.03,0.03,-20.41,0.00416565,0.00430298,0,0,0,0,0,41.47,271.398,3261970
-0.019165,-0.0383911,1.00085,0,-0.305176,13.0615,-0.014,-0.005,-20.6,0.00419617,0.00428772,0,0,0,0,0,41.47,271.418,3261985
-0.00439453,-0.0675659,1.08954,0.976562,0.793457,12.8784,0.008,-0.023,-20.99,0.00424194,0.0042572,0,0,0,0,0,41.47,271.438,3262015
-0.0297241,0.00183105,0.96582,1.15967,-0.915527,12.3291,-0.038,0.026,-21.18,0.00421143,0.00424194,0,0,0,0,0,41.47,271.458,3262030
-0.000732422,-0.0366821,0.980469,2.44141,-0.732422,12.5122,0.002,0.001,-21.37,0.00416565,0.00422668,0,0,0,0,0,41.47,271.478,3262045
-0.0443726,-0.0844116,0.985535,-0.549316,-2.38037,14.7095,-0.019,-0.059,-21.8,0.00413513,0.00419617,0,0,0,0,0,41.47,271.501,3262075
0.00836182,-0.0153809,1.02362,0.732422,-1.64795,15.8081,0.002,0.025,-22.02,0.00411987,0.00411987,0,0,0,0,0,41.47,271.518,3262090
-0.0195923,-0.100403,1.047,-0.366211,-1.46484,16.2964,0.008,-0.063,-22.28,0.00411987,0.00404358,0,0,0,0,0,41.47,271.539,3262105
0.0472412,-0.0291748,1.047,-2.0752,-1.46484,16.9678,0.042,0.028,-22.75,0.00415039,0.00390625,0,0,0,0,0,41.47,271.558,3262135
0.00140381,0.0183716,0.977844,0.793457,-1.46484,15.625,-0.017,0.051,-23,0.00419617,0.00392151,0,0,0,0,0,41.47,271.578,3262150
0.0167847,0.0239258,1.01361,2.19727,-0.854492,14.5264,-0.006,0.063,-23.22,0.00422668,0.00402832,0,0,0,0,0,41.47,271.598,3262165
0.0160522,-0.026001,0.971436,-0.610352,-0.244141,13.977,0.013,0.015,-23.67,0.00422668,0.00431824,0,0,0,0,0,41.47,271.622,3262195
-0.0125732,-0.0812988,1.03271,-1.28174,0.0610352,14.4653,0.009,-0.044,-24.12,0.00422668,0.00466919,0,0,0,0,0,41.47,271.657,3262225
-0.0296021,-0.052124,0.941772,-1.0376,0,13.7329,-0.017,-0.027,-24.32,0.00422668,0.004776,0,0,0,0,0,41.47,271.668,3262240
0.0109863,-0.000183105,1.05762,0.305176,0.610352,15.8081,-0.002,0.041,-24.56,0.00422668,0.00489807,0,0,0,0,0,41.47,271.678,3262255
0.00354004,-0.0898438,1.03741,0.427246,-1.15967,14.0381,0.028,-0.044,-24.78,0.00424194,0.0050354,0,0,0,0,0,41.47,271.699,3262270
-0.1073,-0.0796509,0.98761,0.854492,-0.12207,13.4277,-0.075,-0.084,-24.98,0.00422668,0.00506592,0,0,0,0,0,41.47,271.718,3262285
0.0137939,-0.0908813,0.991516,-0.427246,-1.0376,11.7798,0.039,-0.043,-25.4,0.00421143,0.00514221,0,0,0,0,0,41.47,271.739,3262315
0.0529785,0.222778,0.955566,4.82178,-2.44141,12.5732,-0.06,0.255,-25.58,0.00422668,0.00534058,0,0,0,0,0,41.47,271.759,3262330
-0.0178223,-0.138855,0.981384,-3.2959,-0.976562,13.4277,0.032,-0.1,-25.79,0.00421143,0.00563049,0,0,0,0,0,41.47,271.777,3262345
-0.0911865,0.0244751,1.09528,0.854492,-0.12207,13.5498,-0.106,0.017,-26.19,0.00415039,0.0065918,0,0,0,0,0,41.47,271.798,3262375
0.0219727,-0.114807,0.986816,0.915527,-0.244141,15.1367,0.058,-0.06,-26.43,0.00405884,0.00712585,0,0,0,0,0,41.47,271.817,3262390
0.0150757,-0.0922241,1.02222,-1.34277,0.732422,16.1133,0.041,-0.042,-26.66,0.00402832,0.00758362,0,0,0,0,0,41.47,271.838,3262405
0.041748,-0.0592651,0.961365,0.549316,-1.83105,15.7471,0.051,-0.002,-27.14,0.00387573,0.00804138,0,0,0,0,0,41.47,271.859,3262435
-0.0253906,-0.0160522,1.07196,1.89209,-0.12207,15.8691,-0.028,0.008,-27.38,0.0038147,0.00804138,0,0,0,0,0,41.47,271.878,3262450
0.0332031,-0.0932617,1.07764,-0.915527,-0.12207,16.3574,0.058,-0.033,-27.63,0.00376892,0.00802612,0,0,0,0,0,41.47,271.898,3262465
-0.0301514,-0.0283813,0.977783,0.244141,-0.854492,16.8457,-0.026,-0.008,-27.87,0.00375366,0.00798035,0,0,0,0,0,41.47,271.918,3262480
0.0125122,-0.132019,1.03766,-1.77002,-1.0376,17.334,0.059,-0.077,-28.38,0.00369263,0.00782776,0,0,0,0,0,41.47,271.938,3262510
0.019104,-0.0380859,1.03577,0,0.183105,16.7847,0.02,0.008,-28.64,0.00372314,0.00769043,0,0,0,0,0,41.47,271.958,3262525
-0.0280762,-0.109253,1.01099,0.549316,-0.610352,16.0522,0.014,-0.078,-29.11,0.00378418,0.00732422,0,0,0,0,0,41.47,271.98,3262555
0.0552368,-0.00500488,0.948303,0.671387,-0.793457,15.4419,0.037,0.051,-29.35,0.0038147,0.00709534,0,0,0,0,0,41.47,271.999,3262570
0.012207,-0.0828247,1.03961,0.793457,0.366211,14.7705,0.036,-0.034,-29.57,0.00390625,0.00688171,0,0,0,0,0,41.47,272.018,3262585
0.00897217,0.0466919,0.957947,0.732422,-1.28174,14.9536,-0.029,0.073,-30.01,0.00415039,0.00636292,0,0,0,0,0,41.47,272.039,3262615
-0.0336304,-0.0797729,0.978333,0,0.244141,16.1133,-0.002,-0.056,-30.24,0.0042572,0.00613403,0,0,0,0,0,41.48,272.058,3262630
0.0143433,0.0717773,1.05487,0.244141,-0.183105,16.2964,-0.038,0.1,-30.49,0.00431824,0.00593567,0,0,0,0,0,41.48,272.078,3262645
-0.0778198,-0.101135,0.979431,0.549316,-0.244141,17.2119,-0.028,-0.097,-30.98,0.00424194,0.00567627,0,0,0,0,0,41.48,272.098,3262676
0.067749,0.116577,1.04626,0.610352,-1.58691,17.334,-0.017,0.165,-31.26,0.00413513,0.00556946,0,0,0,0,0,41.48,272.12,3262690
-0.0405884,-0.209473,1.08063,1.28174,-1.40381,15.5029,0.059,-0.169,-31.49,0.00405884,0.00546265,0,0,0,0,0,41.48,272.139,3262705
0.109192,0.0564575,0.905212,-0.183105,-3.2959,16.2354,0.048,0.131,-31.99,0.00408936,0.00485229,0,0,0,0,0,41.48,272.159,3262736
-0.022644,0.101196,1.01813,0.183105,-2.01416,15.3198,-0.088,0.101,-32.21,0.00411987,0.00471497,0,0,0,0,0,41.48,272.178,3262750
0.00518799,-0.0401001,1.06104,-0.976562,-1.70898,14.3433,0.009,-0.002,-32.44,0.0040741,0.00463867,0,0,0,0,0,41.48,272.198,3262765
0.0279541,0.0221558,1.06158,0.366211,1.0376,14.7705,-0.005,0.062,-32.9,0.00408936,0.00466919,0,0,0,0,0,41.48,272.219,3262796
0.0117798,-0.055481,0.995178,-0.976562,-1.70898,14.4043,0.024,-0.013,-33.11,0.00411987,0.00473022,0,0,0,0,0,41.48,272.24,3262810
-0.0233154,-0.0742798,0.928284,-1.15967,-0.305176,13.4277,0.006,-0.05,-33.32,0.00416565,0.00476074,0,0,0,0,0,41.48,272.258,3262825
0.034729,0.129333,1.00726,0,-1.77002,10.7422,-0.059,0.153,-33.69,0.00413513,0.00511169,0,0,0,0,0,41.48,272.279,3262856
-0.0830078,-0.196106,1.11383,0.549316,1.58691,11.5356,0.022,-0.179,-33.86,0.00404358,0.00535583,0,0,0,0,0,41.48,272.299,3262870
-0.00286865,0.0299072,0.980408,0.488281,-0.305176,12.9395,-0.034,0.049,-34.06,0.00396729,0.00552368,0,0,0,0,0,41.48,272.32,3262885
-0.0324097,-0.0963135,1.07074,0.549316,0.244141,15.3198,0.01,-0.068,-34.47,0.00384521,0.00596619,0,0,0,0,0,41.48,272.346,3262916
-0.0239868,-0.116211,1.04822,-1.58691,-0.976562,15.8081,0.029,-0.081,-34.72,0.00387573,0.006073,0,0,0,0,0,41.48,272.359,3262930
0.0148315,-0.00335693,0.958069,-0.610352,-0.976562,15.3809,-0.001,0.031,-34.94,0.00392151,0.00614929,0,0,0,0,0,41.48,272.378,3262945
0.0385132,0.027771,1.00494,-0.305176,-3.05176,14.1602,-0.001,0.071,-35.4,0.00396729,0.00643921,0,0,0,0,0,41.48,272.399,3262976
0.0385132,0.027771,1.00494,-0.305176,-3.05176,14.1602,-0.001,0.071,-35.4,0.00396729,0.00643921,0,0,0,0,0,41.48,272.418,3262976
0.0385132,0.027771,1.00494,-0.305176,-3.05176,14.1602,-0.001,0.071,-35.4,0.00396729,0.00643921,0,0,0,0,0,41.48,272.439,3262976
0.0385132,0.027771,1.00494,-0.305176,-3.05176,14.1602,-0.001,0.071,-35.4,0.00396729,0.00643921,0,0,0,0,0,41.48,272.458,3262976
-0.0250244,-0.0177612,1.02063,-1.40381,-0.549316,14.1602,-0.027,-0.002,-36.25,0.0040741,0.00718689,0,0,0,0,0,41.48,272.478,3263050
0.0231323,-0.0371704,1.05103,0.610352,1.09863,14.5874,0.021,0.011,-36.69,0.00411987,0.00718689,0,0,0,0,0,41.48,272.498,3263068
-0.0134888,0.0162964,1.01184,-0.366211,-0.732422,15.2588,-0.038,0.03,-36.92,0.00413513,0.00721741,0,0,0,0,0,41.48,272.518,3263081
0.0119629,0.0764771,1.05176,1.58691,2.01416,14.4653,-0.055,0.095,-37.35,0.00416565,0.00732422,0,0,0,0,0,41.48,272.541,3263110
0.0436401,-0.0759888,1.00226,-1.70898,-1.64795,15.1978,0.063,-0.007,-37.59,0.00419617,0.00744629,0,0,0,0,0,41.48,272.558,3263125
-0.0831909,-0.127563,0.973083,-0.854492,0.12207,14.9536,-0.005,-0.126,-37.81,0.00424194,0.00749207,0,0,0,0,0,41.46,272.578,3263140
-0.00592041,-0.0691528,1.05359,-0.610352,-1.15967,14.8315,0.019,-0.03,-38.29,0.00419617,0.00737,0,0,0,0,0,41.46,272.598,3263171
0.00152588,-0.0476074,1.03558,-1.70898,-0.671387,15.8691,0.011,-0.009,-38.52,0.00418091,0.00727844,0,0,0,0,0,41.46,272.619,3263186
0.00701904,0.0701904,1.00281,0.305176,-0.976562,14.4043,-0.057,0.085,-38.99,0.00413513,0.00714111,0,0,0,0,0,41.46,272.639,3263216
0.0229492,-0.0577393,1.00903,-0.488281,-1.64795,15.4419,0.034,-0.003,-39.22,0.0040741,0.00714111,0,0,0,0,0,41.46,272.658,3263231
-0.015686,-0.0629272,1.0481,0.183105,-0.915527,14.0991,0.007,-0.031,-39.44,0.00404358,0.00712585,0,0,0,0,0,41.46,272.678,3263246
0.0430298,-0.0333252,1.02429,-0.549316,0.0610352,15.0757,0.034,0.028,-39.66,0.00402832,0.0071106,0,0,0,0,0,41.46,272.698,3263261
-0.0198364,0.0297241,0.982544,0.244141,-0.183105,13.977,-0.054,0.035,-40.1,0.00401306,0.00706482,0,0,0,0,0,41.46,272.718,3263291
0.0289307,-0.00817871,1.00165,-1.28174,-0.610352,14.7705,0.007,0.038,-40.32,0.00395203,0.00709534,0,0,0,0,0,41.46,272.738,3263306
-0.0483398,-0.123352,1.05035,1.2207,0.549316,15.5029,0.023,-0.098,-40.76,0.00389099,0.00714111,0,0,0,0,0,41.46,272.76,3263336
-0.0153198,0.105347,0.958557,0.183105,-2.62451,16.4795,-0.099,0.093,-41.01,0.00382996,0.0071106,0,0,0,0,0,41.46,272.778,3263351
-0.00238037,-0.0401611,1.02069,0.0610352,-1.40381,16.7847,0.003,-0.005,-41.26,0.00370789,0.00714111,0,0,0,0,0,41.46,272.799,3263366
-0.00689697,-0.0799561,0.947327,-0.610352,-1.15967,16.4795,0.028,-0.04,-41.75,0.00358582,0.00682068,0,0,0,0,0,41.46,272.819,3263396
0.10968,0.126465,1.04163,0.0610352,-3.11279,15.3809,-0.024,0.193,-41.99,0.0035553,0.00669861,0,0,0,0,0,41.46,272.838,3263411
-0.0640259,-0.0604248,0.997375,0.183105,-1.09863,14.5874,-0.028,-0.063,-42.21,0.00349426,0.00665283,0,0,0,0,0,41.46,272.859,3263426
0.0230103,-0.0928345,1.05756,-0.366211,-0.732422,8.42285,0.056,-0.027,-42.38,0.00344849,0.00654602,0,0,0,0,0,41.46,272.878,3263441
0.0273438,0.0125732,0.981995,0.427246,-0.12207,3.84521,-0.009,0.05,-42.51,0.00338745,0.00643921,0,0,0,0,0,41.46,272.898,3263471
-0.00469971,-0.115906,1.07385,0.671387,0.732422,1.40381,0.052,-0.063,-42.55,0.00338745,0.00642395,0,0,0,0,0,41.46,272.919,3263486
0.0202026,0.0654297,0.899475,0.244141,0.244141,-0.427246,-0.048,0.083,-42.53,0.00344849,0.00619507,0,0,0,0,0,41.46,272.94,3263516
-0.064209,-0.0568848,1.01697,0.244141,0.488281,-1.15967,-0.03,-0.06,-42.51,0.00341797,0.00611877,0,0,0,0,0,41.46,272.958,3263531
0.010437,-0.02948,1.01514,-1.52588,-0.488281,-0.183105,0.006,0.01,-42.51,0.00335693,0.0059967,0,0,0,0,0,41.46,272.978,3263546
-0.0268555,0.0626831,1.08099,2.38037,-1.09863,1.34277,-0.084,0.054,-42.52,0.00314331,0.00584412,0,0,0,0,0,41.46,272.999,3263576
-0.0562744,-0.161499,1.01825,0.976562,0.0610352,0.549316,0.047,-0.132,-42.54,0.00297546,0.00575256,0,0,0,0,0,41.46,273.018,3263591
0.000976562,-0.136414,0.936646,1.46484,-0.183105,0.671387,0.074,-0.078,-42.55,0.00288391,0.00550842,0,0,0,0,0,41.46,273.038,3263606
-0.0285645,-0.174194,0.942078,1.58691,-0.488281,-0.793457,0.078,-0.126,-42.56,0.00257874,0.00494385,0,0,0,0,0,41.5,273.088,3263651
-0.00152588,0.00720215,1.1358,2.01416,0.244141,-0.305176,-0.028,0.029,-42.55,0.00250244,0.00468445,0,0,0,0,0,41.5,273.098,3263666
0.0462646,-0.0304565,0.999084,-0.610352,-0.976562,-0.976562,0.035,0.03,-42.54,0.00242615,0.00445557,0,0,0,0,0,41.5,273.119,3263681
-0.0012207,0.0421143,1.12701,1.34277,0.549316,-0.427246,-0.05,0.054,-42.53,0.0022583,0.00415039,0,0,0,0,0,41.5,273.139,3263711
-0.0115356,-0.104858,1.00214,-0.610352,0.549316,0,0.043,-0.063,-42.54,0.00213623,0.00402832,0,0,0,0,0,41.5,273.158,3263726
0.000976562,0.0151978,0.929688,-0.183105,-0.366211,-0.244141,-0.027,0.031,-42.53,0.00204468,0.00387573,0,0,0,0,0,41.5,273.177,3263741
0.0658569,-0.0546265,1.00171,-1.52588,-0.0610352,-1.95312,0.066,0.025,-42.52,0.00170898,0.00369263,0,0,0,0,0,41.5,273.198,3263771
-0.0471191,-0.10968,0.985413,1.58691,0.854492,-1.34277,0.02,-0.091,-42.49,0.00160217,0.00358582,0,0,0,0,0,41.5,273.218,3263786
-0.0341187,-0.0111084,1.00409,1.83105,0.793457,0.427246,-0.036,-0.009,-42.48,0.0014801,0.00340271,0,0,0,0,0,41.5,273.238,3263801
-0.0354004,-0.102966,1.03833,2.31934,0.366211,-0.244141,0.025,-0.078,-42.48,0.00115967,0.00335693,0,0,0,0,0,41.5,273.258,3263831
-0.0263062,-0.0202637,1.05615,0.732422,-0.12207,2.62451,-0.024,-0.01,-42.51,0.000991821,0.00325012,0,0,0,0,0,41.5,273.278,3263846
0.053894,0.0706787,1.08087,1.46484,-0.915527,1.83105,-0.026,0.111,-42.54,0.000732422,0.00276184,0,0,0,0,0,41.5,273.298,3263876
-0.0339355,-0.000305176,0.969971,-0.793457,-0.854492,1.58691,-0.041,-0.002,-42.57,0.000564575,0.00259399,0,0,0,0,0,41.5,273.318,3263891
0.0318604,0.00512695,0.963867,0.976562,-1.2207,0.610352,0.003,0.045,-42.59,0.00038147,0.00244141,0,0,0,0,0,41.5,273.338,3263906
-0.0322876,-0.0736084,1.01593,0.427246,-0.0610352,0.976562,0.009,-0.055,-42.62,-3.05176e-05,0.00218201,0,0,0,0,0,41.5,273.361,3263936
0.0136108,-0.00952148,0.964294,1.52588,-0.854492,0.244141,0,0.021,-42.63,-0.000259399,0.00201416,0,0,0,0,0,41.5,273.378,3263951
0.0169678,0.0751343,1.14276,-0.305176,-0.12207,0.366211,-0.057,0.089,-42.64,-0.000518799,0.00190735,0,0,0,0,0,41.5,273.398,3263966
-0.0346069,-0.1297,0.974792,-1.34277,-0.305176,-0.671387,0.046,-0.099,-42.64,-0.000778198,0.0018158,0,0,0,0,0,41.5,273.418,3263981
0.0224609,0.00109863,1.08655,0.610352,-0.244141,-0.976562,-0.002,0.037,-42.61,-0.00117493,0.0015564,0,0,0,0,0,41.5,273.438,3264011
-0.0337524,-0.10968,0.950256,1.28174,-0.244141,-0.0610352,0.034,-0.085,-42.61,-0.00132751,0.00141907,0,0,0,0,0,41.5,273.458,3264026
-0.0317383,0.0557861,1.03918,1.2207,-0.610352,0.976562,-0.077,0.038,-42.61,-0.0015564,0.000915527,0,0,0,0,0,41.5,273.479,3264057
0.0193481,-0.041626,0.938904,-0.0610352,-1.34277,-0.12207,0.027,0,-42.61,-0.00172424,0.000686646,0,0,0,0,0,41.5,273.498,3264071
-0.0233154,-0.110901,0.996643,-0.366211,0.732422,0.610352,0.042,-0.078,-42.61,-0.00183105,0.000396729,0,0,0,0,0,41.5,273.518,3264086
0.0318604,0.159607,0.998108,-0.0610352,-1.89209,0.610352,-0.1,0.157,-42.62,-0.00198364,0.000167847,0,0,0,0,0,41.5,273.538,3264101
-0.00250244,-0.043396,1.07733,2.0752,1.58691,-0.427246,0.01,-0.013,-42.61,-0.00231934,-0.000183105,0,0,0,0,0,41.5,273.559,3264131
-0.0126953,0.0220337,1.0072,0.793457,0.12207,-0.610352,-0.039,0.026,-42.61,-0.00248718,-0.00038147,0,0,0,0,0,41.5,273.578,3264146
0.0149536,-0.10437,0.949341,0.976562,-0.244141,-0.976562,0.067,-0.049,-42.59,-0.00263977,-0.000595093,0,0,0,0,0,41.46,273.598,3264161
-0.0128174,-0.0164185,0.96344,-1.89209,0.12207,0.366211,-0.012,-0.002,-42.6,-0.00273132,-0.000854492,0,0,0,0,0,41.46,273.618,3264191
-0.000610352,0.0549316,0.880615,-0.0610352,-0.488281,0.793457,-0.05,0.056,-42.61,-0.0027771,-0.000808716,0,0,0,0,0,41.46,273.64,3264206
-0.0067749,0.0487671,0.989624,-1.34277,0.12207,0.366211,-0.052,0.05,-42.63,-0.00306702,-0.00062561,0,0,0,0,0,41.46,273.659,3264237
-0.010376,-0.0571899,0.933167,0.732422,-0.793457,0.366211,0.017,-0.031,-42.63,-0.00326538,-0.00050354,0,0,0,0,0,41.46,273.679,3264251
0.0131226,0.0760498,1.07367,0.305176,-0.366211,0.305176,-0.057,0.084,-42.64,-0.00349426,-0.000350952,0,0,0,0,0,41.46,273.698,3264266
-0.0229492,-0.0528564,0.974304,1.58691,0,-0.915527,0.005,-0.036,-42.63,-0.00398254,-7.62939e-05,0,0,0,0,0,41.46,273.721,3264297
0.0314331,0.0491943,1.07617,0.183105,-1.58691,-0.732422,-0.025,0.077,-42.63,-0.00422668,4.57764e-05,0,0,0,0,0,41.46,273.738,3264311
-0.0128784,-0.0146484,0.923096,0.671387,-0.305176,-1.34277,-0.012,-0.002,-42.61,-0.00450134,0.000228882,0,0,0,0,0,41.46,273.758,3264326
0.0303345,0.0358887,1.05048,-0.183105,-0.12207,-1.2207,-0.016,0.065,-42.58,-0.00498962,0.000671387,0,0,0,0,0,41.46,273.778,3264357
-0.0352783,-0.0337524,0.988098,1.95312,0,-0.732422,-0.016,-0.031,-42.56,-0.00523376,0.000946045,0,0,0,0,0,41.46,273.798,3264371
-0.0250244,-0.0563354,1.04895,1.77002,1.77002,-0.0610352,0.005,-0.04,-42.56,-0.00523376,0.00117493,0,0,0,0,0,41.46,273.818,3264386
0.0134888,-0.0098877,1.02325,0.915527,0.12207,0.793457,0.003,0.019,-42.57,-0.00523376,0.00138855,0,0,0,0,0,41.46,273.838,3264401
-0.0392456,-0.0725708,1.0506,-0.488281,0.12207,1.15967,0.007,-0.061,-42.61,-0.00531006,0.00134277,0,0,0,0,0,41.46,273.858,3264431
-0.000915527,-0.115112,1.07562,0.12207,-0.12207,1.83105,0.064,-0.066,-42.63,-0.00531006,0.0012207,0,0,0,0,0,41.46,273.879,3264446
-0.0296021,-0.0635986,1.01819,-0.366211,-0.610352,0.854492,0.009,-0.049,-42.68,-0.0052948,0.000854492,0,0,0,0,0,41.46,273.901,3264477
0.0261841,0.0176392,0.969421,1.09863,-1.28174,1.34277,-0.004,0.046,-42.69,-0.0052948,0.000656128,0,0,0,0,0,41.46,273.918,3264491
-0.0341797,-0.0010376,1.03571,2.13623,-0.12207,0.0610352,-0.037,-0.007,-42.7,-0.00532532,0.000488281,0,0,0,0,0,41.46,273.938,3264506
0.0272827,-0.0369263,1.02649,0.549316,0.305176,0.0610352,0.032,0.007,-42.71,-0.00537109,0.000488281,0,0,0,0,0,41.46,273.959,3264537
0.00469971,-0.0130615,1.07074,0.610352,0.732422,0.0610352,0,0.01,-42.7,-0.00534058,0.000488281,0,0,0,0,0,41.46,273.978,3264552
0.010498,-0.0650024,0.954346,-0.549316,-0.427246,-0.12207,0.04,-0.025,-42.71,-0.0052948,0.000488281,0,0,0,0,0,41.46,273.998,3264567
0.012207,0.00756836,0.945557,2.31934,0.488281,0.366211,-0.007,0.029,-42.71,-0.00521851,0.000473022,0,0,0,0,0,41.46,274.019,3264582
-0.0010376,0.0709229,0.956177,2.99072,0.12207,0.12207,-0.058,0.065,-42.72,-0.00515747,0.000473022,0,0,0,0,0,41.46,274.039,3264612
-0.0256348,0.0309448,0.981079,5.49316,-0.12207,0.915527,-0.049,0.019,-42.74,-0.00521851,0.000549316,0,0,0,0,0,41.46,274.061,3264627
-0.0336304,-6.10352e-05,1.11816,4.21143,0.0610352,0.305176,-0.033,-0.008,-42.75,-0.00534058,0.000549316,0,0,0,0,0,41.46,274.079,3264642
-0.0146484,-0.0418701,0.966797,6.16455,-0.732422,1.83105,0.012,-0.03,-42.78,-0.00576782,0.000595093,0,0,0,0,0,41.47,274.098,3264672
-0.00372314,0.00360107,1.07886,5.92041,-0.671387,1.09863,-0.01,0.009,-42.8,-0.00576782,0.000610352,0,0,0,0,0,41.47,274.118,3264687
0.00292969,0.000915527,1.03326,5.31006,-1.52588,0.427246,-0.002,0.01,-42.81,-0.00576782,0.000610352,0,0,0,0,0,41.47,274.139,3264702
0.00726318,-0.013916,1.07349,5.7373,0.488281,0.427246,0.013,0,-42.84,-0.00576782,0.000732422,0,0,0,0,0,41.47,274.158,3264732
-0.0128784,-0.0160522,1.04626,4.94385,-0.854492,-0.183105,0,-0.016,-42.84,-0.00576782,0.000793457,0,0,0,0,0,41.47,274.179,3264747
0.0123901,0.0709229,0.931519,4.88281,-0.610352,0.671387,-0.039,0.062,-42.85,-0.00579834,0.00088501,0,0,0,0,0,41.47,274.198,3264762
0.00335693,0.0245361,1.11523,6.5918,0.915527,-1.34277,-0.011,0.02,-42.83,-0.00590515,0.00120544,0,0,0,0,0,41.47,274.218,3264792
0.0186157,-0.0196533,0.978149,6.22559,-0.305176,-1.34277,0.03,-0.003,-42.81,-0.00596619,0.00138855,0,0,0,0,0,41.47,274.239,3264807
0.0140991,-0.0883179,1.06586,3.54004,-0.12207,-0.244141,0.077,-0.059,-42.78,-0.0059967,0.00175476,0,0,0,0,0,41.47,274.266,3264837
-0.0483398,0.145752,1.08081,4.08936,0.366211,-0.610352,-0.126,0.069,-42.77,-0.00604248,0.00193787,0,0,0,0,0,41.47,274.282,3264852
-0.0130615,0.138489,0.919556,3.11279,0.854492,1.89209,-0.095,0.087,-42.79,-0.00622559,0.00221252,0,0,0,0,0,41.47,274.299,3264867
-0.0568848,0.0135498,1.04523,-2.13623,0.488281,0.488281,-0.039,-0.035,-42.83,-0.00674438,0.00292969,0,0,0,0,0,41.47,274.319,3264897
-0.00543213,0.0712891,0.932495,-4.39453,-0.671387,0.0610352,-0.043,0.043,-42.83,-0.00708008,0.0032959,0,0,0,0,0,41.47,274.339,3264912
-0.00891113,0.112976,1.00439,-4.5166,-0.0610352,0.12207,-0.073,0.071,-42.83,-0.00749207,0.0037384,0,0,0,0,0,41.47,274.36,3264927
0.0158081,0.0513306,1.09711,-1.64795,-0.305176,-0.549316,-0.012,0.042,-42.83,-0.00794983,0.0042572,0,0,0,0,0,41.47,274.378,3264942
0.0126953,0.0483398,0.996277,-0.244141,0,0.732422,-0.013,0.038,-42.84,-0.00897217,0.00535583,0,0,0,0,0,41.47,274.398,3264972
0.0278931,-0.0132446,1.02142,-0.366211,0.305176,1.34277,0.039,0.003,-42.86,-0.00946045,0.00593567,0,0,0,0,0,41.47,274.418,3264987
-0.0238037,-0.0182495,0.983704,-2.62451,0.183105,0.793457,0.003,-0.034,-42.87,-0.00993347,0.00650024,0,0,0,0,0,41.47,274.438,3265002
-0.00439453,0.0558472,1.04285,-1.64795,0.610352,2.56348,-0.032,0.033,-42.94,-0.0108795,0.00758362,0,0,0,0,0,41.47,274.458,3265032
-0.0257568,0.0409546,1.04138,0,0.488281,1.64795,-0.037,0.008,-42.96,-0.0113983,0.00816345,0,0,0,0,0,41.47,274.478,3265047
-0.0151367,0.0502319,0.982727,1.15967,-0.305176,2.13623,-0.036,0.022,-42.99,-0.0119781,0.00875854,0,0,0,0,0,41.47,274.498,3265062
-0.0290527,-0.0384521,1.07001,2.92969,-0.183105,3.17383,0.016,-0.054,-43.06,-0.0132446,0.010025,0,0,0,0,0,41.47,274.518,3265092
0.00299072,0.0854492,1.03937,2.01416,-0.488281,2.50244,-0.044,0.058,-43.1,-0.013916,0.0106354,0,0,0,0,0,41.47,274.54,3265107
-0.0235596,0.00219727,1.02319,1.70898,0.0610352,2.56348,-0.007,-0.021,-43.15,-0.0146027,0.0112915,0,0,0,0,0,41.47,274.558,3265122
0.00976562,-0.0344238,1.02356,-0.610352,-0.366211,1.28174,0.041,-0.025,-43.21,-0.0158997,0.0125427,0,0,0,0,0,41.47,274.578,3265152
0.00866699,0.0328369,0.985596,-2.19727,-0.488281,0.12207,-0.006,0.023,-43.21,-0.0164948,0.0131531,0,0,0,0,0,41.47,274.598,3265167
0.00958252,0.0481567,1.04883,-2.2583,0.183105,-0.854492,-0.015,0.035,-43.21,-0.0164948,0.0138092,0,0,0,0,0,41.46,274.618,3265182
0.00970459,0.013855,1.00903,-0.549316,0.732422,-1.2207,0.007,0.01,-43.16,-0.0164948,0.015213,0,0,0,0,0,41.46,274.639,3265212
-0.0177612,0.0114136,0.997437,-0.671387,0.915527,-0.549316,-0.01,-0.009,-43.15,-0.0164948,0.015213,0,0,0,0,0,41.46,274.658,3265227
-0.0126953,0.00933838,1.01306,-0.0610352,0,-0.244141,-0.005,-0.007,-43.14,-0.0164948,0.015213,0,0,0,0,0,41.46,274.68,3265257
-0.0431519,-0.00299072,0.984009,0,-0.0610352,-0.0610352,-0.019,-0.036,-43.14,-0.0164948,0.0151825,0,0,0,0,0,41.46,274.7,3265272
-0.0437622,-0.0228271,1.02191,-1.2207,-0.305176,1.15967,-0.005,-0.051,-43.15,-0.0164948,0.0150909,0,0,0,0,0,41.46,274.718,3265287
-0.00769043,0.0192261,1.01855,-0.976562,-0.671387,1.46484,-0.008,0.004,-43.17,-0.0164948,0.0149689,0,0,0,0,0,41.46,274.739,3265302
0.00927734,0.0289307,0.987854,-2.0752,-1.0376,2.2583,-0.004,0.023,-43.24,-0.0164948,0.0146942,0,0,0,0,0,41.46,274.758,3265332
0.0107422,0.010437,1.01904,-2.01416,-0.976562,0.610352,0.009,0.011,-43.26,-0.0164948,0.0145874,0,0,0,0,0,41.46,274.779,3265347
-0.013855,0.00769043,1.00659,-2.13623,-0.305176,0.671387,-0.007,-0.007,-43.27,-0.0164948,0.0145874,0,0,0,0,0,41.46,274.798,3265362
0.0164795,-0.00750732,1.00031,-2.31934,0.366211,0.244141,0.024,0.003,-43.28,-0.0164795,0.0145874,0,0,0,0,0,41.46,274.819,3265392
0.00488281,0.00567627,1.03741,-2.38037,0.732422,0.427246,0.006,0.005,-43.29,-0.016449,0.0145874,0,0,0,0,0,41.46,274.839,3265407
-0.00445557,0.0101318,0.969238,-3.35693,0.732422,-1.46484,-0.004,0.003,-43.28,-0.0164032,0.0145874,0,0,0,0,0,41.46,274.859,3265438
-0.0239258,0.0109253,1.00781,-3.60107,0.488281,-1.15967,-0.019,-0.008,-43.27,-0.0164032,0.0145874,0,0,0,0,0,41.46,274.88,3265452
-0.0149536,0.0169067,1.03729,-3.479,0.732422,-1.46484,-0.017,0.003,-43.25,-0.0164032,0.0145874,0,0,0,0,0,41.46,274.898,3265467
-0.038147,-0.00427246,0.988831,-3.78418,0.488281,-0.732422,-0.02,-0.027,-43.24,-0.0164185,0.0145721,0,0,0,0,0,41.46,274.918,3265482
-0.00695801,0.0144043,1.04303,-5.12695,-0.0610352,1.46484,-0.011,0.01,-43.26,-0.0164795,0.0144806,0,0,0,0,0,41.46,274.939,3265512
-0.00408936,0.0010376,0.983887,-5.12695,-0.488281,0.427246,-0.001,0.002,-43.27,-0.0164795,0.0144806,0,0,0,0,0,41.46,274.958,3265527
-0.00427246,-0.0166016,1.00616,-5.49316,-0.610352,1.0376,0.009,-0.008,-43.28,-0.0164795,0.0144806,0,0,0,0,0,41.46,274.978,3265542
-0.0192261,0.0320435,1.01685,-4.88281,0,0.427246,-0.036,0.017,-43.31,-0.0165253,0.0144806,0,0,0,0,0,41.46,274.999,3265572
0.00610352,0.000427246,1.02832,-3.2959,-0.305176,2.01416,0.003,0.013,-43.34,-0.0165863,0.0144806,0,0,0,0,0,41.46,275.018,3265587
0.0361328,0.0496826,1.03186,-0.732422,-0.12207,2.80762,-0.008,0.069,-43.37,-0.0166473,0.0145416,0,0,0,0,0,41.46,275.038,3265602
-0.00775146,-0.0340576,0.995056,0.671387,0.427246,2.13623,0.017,-0.022,-43.44,-0.0168304,0.0147858,0,0,0,0,0,41.46,275.058,3265632
-0.0177612,-0.0197754,1.01434,-0.244141,0.488281,2.92969,0,-0.018,-43.48,-0.0169067,0.0148773,0,0,0,0,0,41.46,275.078,3265647
-0.00476074,0.0153198,1.0069,-0.366211,0.183105,0.793457,-0.014,0.015,-43.5,-0.0171356,0.0149689,0,0,0,0,0,41.46,275.101,3265678
-0.0244751,-0.036377,0.990417,-0.366211,-0.305176,0.183105,0.007,-0.035,-43.51,-0.0172577,0.0149536,0,0,0,0,0,41.46,275.119,3265692
-0.0384521,-0.00823975,1.03082,-0.427246,-0.12207,-0.305176,-0.022,-0.023,-43.51,-0.0174103,0.0148926,0,0,0,0,0,41.46,275.139,3265707
-0.0114746,-0.0593262,1.03003,-0.732422,-0.549316,0,0.031,-0.041,-43.51,-0.0175476,0.014801,0,0,0,0,0,41.46,275.159,3265722
-0.00128174,-0.00396729,1.01257,0.244141,-0.610352,-0.427246,0,0.005,-43.5,-0.0176392,0.0144653,0,0,0,0,0,41.46,275.179,3265752
0.00402832,-0.0530396,1.00708,0.488281,-0.732422,0.183105,0.038,-0.026,-43.5,-0.0176239,0.014267,0,0,0,0,0,41.46,275.198,3265767
0.00341797,-0.0270996,1.00977,0.793457,-0.244141,0.793457,0.019,-0.007,-43.51,-0.0175476,0.0140533,0,0,0,0,0,41.46,275.218,3265782
0.0170898,-0.00305176,1.03497,0.976562,0.0610352,0.854492,0.012,0.019,-43.52,-0.0174561,0.013855,0,0,0,0,0,41.46,275.239,3265798
0.0170898,-0.00305176,1.03497,0.976562,0.0610352,0.854492,0.012,0.019,-43.52,-0.0174561,0.013855,0,0,0,0,0,41.46,275.259,3265798
0.0170898,-0.00305176,1.03497,0.976562,0.0610352,0.854492,0.012,0.019,-43.52,-0.0174561,0.013855,0,0,0,0,0,41.46,275.278,3265798
0.00671387,-0.043457,1.01398,0.427246,0.305176,0.854492,0.033,-0.017,-43.53,-0.0173492,0.013855,0,0,0,0,0,41.46,275.298,3265873
-0.0296021,-0.00793457,1.02618,0.0610352,-0.0610352,0.915527,-0.016,-0.016,-43.56,-0.016861,0.0137787,0,0,0,0,0,41.46,275.318,3265888
-0.0217896,-0.00219727,1.00928,-0.427246,-0.488281,0.549316,-0.015,-0.006,-43.58,-0.016861,0.0137177,0,0,0,0,0,41.46,275.338,3265903
-0.0020752,0.00500488,1.01117,-0.183105,-0.915527,1.70898,-0.006,0.012,-43.62,-0.016861,0.0137177,0,0,0,0,0,41.46,275.358,3265933
0.00012207,0.00488281,1.03223,0.12207,-0.610352,1.52588,-0.004,0.013,-43.64,-0.016861,0.0137177,0,0,0,0,0,41.46,275.378,3265948
0.0114136,-0.0444336,1.00781,-0.0610352,-0.549316,2.0752,0.037,-0.014,-43.68,-0.0168304,0.0137177,0,0,0,0,0,41.46,275.399,3265963
-0.000549316,-0.00488281,1.01764,0,0.12207,0.244141,0,0.005,-43.71,-0.0166931,0.0137482,0,0,0,0,0,41.46,275.419,3265993
0.0105591,-0.026001,1.01361,0.0610352,0.366211,0.0610352,0.023,-0.002,-43.71,-0.0166016,0.0137787,0,0,0,0,0,41.46,275.439,3266008
-0.00946045,-0.0189819,1.01514,0.549316,0.854492,-0.732422,0.004,-0.01,-43.7,-0.0164795,0.0137787,0,0,0,0,0,41.46,275.459,3266023
-0.0289307,-0.0101318,1.00037,0,-0.0610352,0.854492,-0.015,-0.017,-43.71,-0.0163574,0.0137787,0,0,0,0,0,41.46,275.479,3266053
-0.0384521,-0.00909424,0.999329,0.12207,0.244141,0.854492,-0.023,-0.023,-43.72,-0.0163879,0.0137482,0,0,0,0,0,41.46,275.499,3266068
-0.0140991,-0.0151978,1.01758,0.244141,-0.305176,1.58691,-0.001,-0.01,-43.74,-0.0164337,0.0137024,0,0,0,0,0,41.46,275.518,3266083
-0.00158691,0.0142212,1.0097,1.09863,-0.549316,1.83105,-0.012,0.019,-43.8,-0.0164795,0.0135498,0,0,0,0,0,41.46,275.546,3266113
0.00927734,0.0510864,1.00854,3.84521,-0.793457,2.50244,-0.029,0.052,-43.83,-0.01651,0.0135345,0,0,0,0,0,41.46,275.558,3266128
-0.003479,0.026062,1.01672,5.43213,-0.610352,2.13623,-0.02,0.023,-43.86,-0.016571,0.0135498,0,0,0,0,0,41.46,275.578,3266143
0.0057373,0.0328979,1.00793,7.32422,0.244141,0.610352,-0.015,0.031,-43.9,-0.0166626,0.0137634,0,0,0,0,0,41.46,275.601,3266173
-0.00250244,0.00610352,1.01801,7.75146,0.12207,0.610352,-0.001,0.004,-43.91,-0.0166626,0.0139008,0,0,0,0,0,41.46,275.618,3266188
-0.0111084,0.00891113,1.00049,6.71387,0.244141,-0.244141,-0.007,-0.001,-43.91,-0.0166626,0.0139008,0,0,0,0,0,41.42,275.641,3266218
-0.0187988,-0.000793457,1.00928,5.92041,0.366211,-0.488281,-0.004,-0.015,-43.9,-0.0166626,0.0139008,0,0,0,0,0,41.42,275.659,3266233
-0.020813,0.00579834,1.02191,5.24902,-0.0610352,-1.34277,-0.009,-0.012,-43.89,-0.0166626,0.0139008,0,0,0,0,0,41.42,275.679,3266248
-0.019104,0.00561523,1.00745,4.88281,-0.366211,-1.15967,-0.007,-0.012,-43.87,-0.0166626,0.0139008,0,0,0,0,0,41.42,275.7,3266263
-0.0114136,-0.0057373,1.02106,4.63867,-0.488281,-0.183105,0.008,-0.016,-43.85,-0.0166626,0.0139008,0,0,0,0,0,41.42,275.719,3266293
-0.0045166,0.0192261,1.02124,4.69971,-0.732422,0.366211,-0.003,0.004,-43.86,-0.0166626,0.0139008,0,0,0,0,0,41.42,275.739,3266308
0.00427246,0.0112915,1.00775,4.45557,-0.549316,0.305176,0.008,0.004,-43.86,-0.0166626,0.0139008,0,0,0,0,0,41.42,275.758,3266323
-0.0133667,0.0647583,1.01947,2.74658,0,0.12207,-0.039,0.029,-43.87,-0.0166779,0.0139313,0,0,0,0,0,41.42,275.779,3266353
0.00939941,0.02771,0.999146,1.0376,0.183105,-0.244141,0.002,0.017,-43.86,-0.0167084,0.0139771,0,0,0,0,0,41.42,275.802,3266368
0.000549316,0.0513916,1.01666,-1.46484,0.183105,-0.427246,-0.019,0.028,-43.86,-0.016861,0.0141449,0,0,0,0,0,41.42,275.821,3266398
-0.0158691,0.043457,1.01025,-1.77002,0.366211,-0.366211,-0.026,0.011,-43.85,-0.016983,0.014267,0,0,0,0,0,41.42,275.838,3266413
-0.0127563,0.0379028,1.01709,-1.46484,0.12207,-0.305176,-0.02,0.009,-43.84,-0.0171509,0.0144043,0,0,0,0,0,41.42,275.858,3266428
-0.0203857,0.0172729,1.02167,-1.46484,0,0,-0.011,-0.01,-43.84,-0.0173187,0.0144043,0,0,0,0,0,41.42,275.879,3266443
-0.00805664,0.0137329,1.02002,-0.854492,-0.305176,-0.0610352,0,-0.003,-43.85,-0.0173187,0.0144043,0,0,0,0,0,41.42,275.899,3266473
-0.00805664,-0.0427246,1.0166,-2.2583,-0.305176,0.610352,0.038,-0.043,-43.86,-0.0172882,0.0143738,0,0,0,0,0,41.42,275.92,3266488
-0.00256348,0.00915527,1.008,-3.479,-0.244141,0.366211,0.005,-0.001,-43.87,-0.0172424,0.0143127,0,0,0,0,0,41.42,275.938,3266503
0.00604248,0.024292,1.00623,-2.50244,0.0610352,0.12207,0,0.016,-43.87,-0.0171814,0.0142517,0,0,0,0,0,41.42,275.959,3266533
-0.00952148,-0.0178223,1.02563,-2.80762,0.305176,-0.366211,0.017,-0.024,-43.88,-0.0171814,0.0142517,0,0,0,0,0,41.42,275.978,3266548
-0.00366211,0.003479,1.01569,-3.479,0.12207,-0.183105,0.006,-0.003,-43.87,-0.0171814,0.0142365,0,0,0,0,0,41.42,275.998,3266563
-0.0211792,0.00775146,1.01154,-3.35693,0.244141,0,-0.01,-0.011,-43.87,-0.0171814,0.0142059,0,0,0,0,0,41.42,276.019,3266593
-0.00683594,-0.000915527,1.0152,-3.54004,0.244141,0.305176,0.005,-0.007,-43.87,-0.0171814,0.0142059,0,0,0,0,0,41.42,276.038,3266608
-0.0088501,0.00842285,1.00323,-3.96728,-0.12207,-0.0610352,-0.003,0,-43.87,-0.0171814,0.0142059,0,0,0,0,0,41.42,276.058,3266623
-0.00335693,0.00628662,1.01678,-4.39453,-0.244141,-0.12207,0,0.002,-43.87,-0.0171814,0.0142059,0,0,0,0,0,41.42,276.078,3266653
-0.00708008,-0.00897217,1.01508,-4.76074,-0.0610352,-0.244141,0.007,-0.009,-43.87,-0.0171814,0.0142059,0,0,0,0,0,41.42,276.101,3266668
-0.00012207,0.0114136,1.01044,-5.06592,0.0610352,-0.244141,-0.002,0.01,-43.87,-0.0171814,0.0142059,0,0,0,0,0,41.42,276.118,3266683
-0.0012207,-0.00579834,1.01831,-5.37109,0.183105,0,0.006,0,-43.87,-0.0171814,0.0142059,0,0,0,0,0,41.46,276.138,3266713
-0.00640869,0.00378418,1.01569,-5.85937,0.12207,0.244141,-0.004,0.003,-43.87,-0.0171814,0.0142059,0,0,0,0,0,41.46,276.158,3266728
-0.00592041,-0.00689697,1.01746,-6.28662,0.12207,0.244141,0.002,-0.002,-43.87,-0.0171814,0.0142059,0,0,0,0,0,41.46,276.178,3266743
0.00598145,-0.017334,1.005,-4.08936,-0.366211,0.793457,0.015,0,-43.9,-0.0171051,0.0140686,0,0,0,0,0,41.46,276.199,3266773
-0.0158691,-0.0719604,0.95343,-2.2583,-0.732422,0.610352,0.037,-0.053,-43.91,-0.0170288,0.0139618,0,0,0,0,0,41.46,276.218,3266788
0.00653076,-0.109497,1.0083,-0.793457,-0.549316,0.183105,0.078,-0.063,-43.92,-0.016861,0.0137482,0,0,0,0,0,41.46,276.238,3266803
-0.0143433,-0.0747681,0.997131,1.77002,-0.0610352,0.488281,0.038,-0.052,-43.93,-0.0163269,0.0131378,0,0,0,0,0,41.46,276.258,3266833
0.0184937,-0.0109863,1.02051,2.62451,0.244141,0.0610352,0.018,0.016,-43.93,-0.0160065,0.0127869,0,0,0,0,0,41.46,276.278,3266848
0.0128174,-0.00604248,1.01941,2.44141,0.244141,0,0.011,0.015,-43.93,-0.0160065,0.0127869,0,0,0,0,0,41.46,276.298,3266863
0.00811768,0.0320435,1.02313,2.38037,0.12207,-0.732422,-0.017,0.039,-43.93,-0.0160065,0.0128021,0,0,0,0,0,41.46,276.318,3266893
-0.0392456,-0.0146484,0.992065,2.31934,0.12207,-0.854492,-0.018,-0.028,-43.91,-0.0160065,0.0128479,0,0,0,0,0,41.46,276.339,3266908
0.000244141,0.024353,1.00909,2.0752,0.183105,-0.244141,-0.016,0.026,-43.9,-0.0160065,0.0128784,0,0,0,0,0,41.46,276.358,3266923
-0.0180054,-0.0178833,1.00659,1.15967,-0.305176,0.305176,0,-0.016,-43.9,-0.0160065,0.0129395,0,0,0,0,0,41.46,276.378,3266953
-0.00842285,0.0181274,1.00848,1.0376,-0.12207,0.12207,-0.017,0.015,-43.9,-0.0160065,0.0129395,0,0,0,0,0,41.46,276.398,3266968
-0.0120239,-0.00823975,1.01917,0.854492,-0.12207,-0.12207,-0.001,-0.006,-43.9,-0.0160065,0.0129395,0,0,0,0,0,41.46,276.418,3266983
0.000976562,-0.00921631,1.00781,0.305176,-0.12207,-0.183105,0.008,0.001,-43.9,-0.0160065,0.0129395,0,0,0,0,0,41.46,276.438,3267013
-0.0187988,-0.00408936,1.01648,-0.0610352,-0.244141,-0.183105,-0.009,-0.008,-43.9,-0.0160065,0.0129395,0,0,0,0,0,41.46,276.459,3267028
-0.0114136,0.0114746,1.01044,-0.305176,-0.0610352,0.305176,-0.014,0.007,-43.9,-0.0160065,0.0129395,0,0,0,0,0,41.46,276.48,3267043
-0.0106201,0.00183105,1.01782,-0.854492,0,0.0610352,-0.007,0.001,-43.91,-0.0160065,0.0129395,0,0,0,0,0,41.46,276.499,3267073
-0.0142212,0.00250244,1.00739,-1.34277,0.0610352,0,-0.01,0,-43.91,-0.0160065,0.0129395,0,0,0,0,0,41.46,276.519,3267088
-0.0158081,0.00152588,1.0155,-1.46484,0.0610352,-0.0610352,-0.011,-0.001,-43.91,-0.0160065,0.0129395,0,0,0,0,0,41.46,276.539,3267103
-0.0181885,-0.00494385,1.00763,-2.31934,-0.12207,-0.244141,-0.009,-0.007,-43.91,-0.0160065,0.0129395,0,0,0,0,0,41.46,276.558,3267133
-0.00909424,-0.00671387,1.01746,-2.86865,-0.12207,0.183105,-0.002,-0.001,-43.91,-0.0160065,0.0129395,0,0,0,0,0,41.46,276.578,3267148
0.012085,-0.00201416,1.01868,-3.11279,-0.183105,0,0.009,0.016,-43.91,-0.0160065,0.0129395,0,0,0,0,0,41.46,276.598,3267163
-0.0128784,-0.0470581,1.01721,-1.34277,-0.366211,0.915527,0.021,-0.032,-43.93,-0.0159912,0.0130005,0,0,0,0,0,41.46,276.621,3267193
-0.0308838,-0.0627441,1.01208,-0.610352,0.366211,0.610352,0.019,-0.055,-43.94,-0.0159607,0.01297,0,0,0,0,0,41.46,276.639,3267208
0.0158691,-0.039917,1.00916,-0.427246,-0.183105,0.12207,0.036,-0.005,-43.95,-0.0158997,0.0128937,0,0,0,0,0,41.47,276.658,3267224
-0.00250244,-0.034729,1.01227,1.52588,0.0610352,-0.671387,0.019,-0.014,-43.94,-0.0157013,0.0126801,0,0,0,0,0,41.47,276.679,3267254
-0.00585938,-0.0254517,1.02063,1.70898,0.183105,-0.12207,0.01,-0.01,-43.93,-0.0157013,0.0125427,0,0,0,0,0,41.47,276.699,3267269
-0.0169678,-0.0187378,1.00519,1.34277,-0.183105,0.183105,-0.001,-0.013,-43.93,-0.0157013,0.0125427,0,0,0,0,0,41.47,276.718,3267284
-0.0136719,0.0141602,1.02106,1.46484,0,-0.12207,-0.021,0.011,-43.93,-0.0157166,0.0125427,0,0,0,0,0,41.47,276.74,3267314
-0.0102539,-0.00268555,1.00256,1.15967,-0.12207,-0.366211,-0.006,0.001,-43.93,-0.0157623,0.0125427,0,0,0,0,0,41.47,276.758,3267329
-0.00750732,-0.00720215,1.01843,0.671387,0.12207,-0.549316,-0.001,0,-43.92,-0.0157928,0.0125427,0,0,0,0,0,41.47,276.778,3267344
-0.00445557,0.0045166,1.00208,-0.305176,-0.12207,0,-0.007,0.01,-43.92,-0.0157928,0.0125427,0,0,0,0,0,41.47,276.798,3267374
-0.00354004,0.003479,1.01868,-0.305176,-0.0610352,-0.0610352,-0.005,0.01,-43.92,-0.0157928,0.0125427,0,0,0,0,0,41.47,276.818,3267389
-0.00701904,-0.00317383,1.01239,-0.671387,-0.183105,0.12207,-0.003,0.003,-43.92,-0.0157928,0.0125427,0,0,0,0,0,41.47,276.842,3267404
-0.000976562,-0.00665283,1.02539,-1.70898,0.0610352,-0.183105,0.002,0.005,-43.92,-0.0157928,0.0125427,0,0,0,0,0,41.47,276.858,3267434
-0.000671387,0.000427246,1.01135,-1.34277,-0.366211,0.183105,-0.002,0.01,-43.93,-0.0157928,0.0125427,0,0,0,0,0,41.47,276.879,3267449
-0.00750732,-0.0281372,1.00452,-1.0376,-0.427246,0.427246,0.012,-0.014,-43.93,-0.0157928,0.0125427,0,0,0,0,0,41.47,276.898,3267464
-0.00842285,-0.0366211,1.01501,-0.366211,-0.12207,0.305176,0.016,-0.02,-43.94,-0.0157928,0.0124664,0,0,0,0,0,41.47,276.921,3267494
0.0032959,-0.0275879,1.00372,0.12207,-0.12207,0,0.018,-0.005,-43.94,-0.0157928,0.0123901,0,0,0,0,0,41.47,276.939,3267509
-0.00976562,-0.0221558,1.01532,0.793457,0,-0.488281,0.005,-0.01,-43.94,-0.0157928,0.0123901,0,0,0,0,0,41.47,276.958,3267524
-0.00317383,-0.0128174,1.01306,0.854492,0.12207,-0.183105,0.003,0,-43.93,-0.0157928,0.0123901,0,0,0,0,0,41.47,276.979,3267554
-0.000610352,0.00164795,1.01959,0.671387,0,0.12207,-0.004,0.012,-43.93,-0.0157928,0.0123901,0,0,0,0,0,41.47,276.999,3267569
-0.00524902,-0.00244141,1.01532,0.671387,0.0610352,-0.12207,-0.004,0.006,-43.93,-0.0157928,0.0123901,0,0,0,0,0,41.47,277.018,3267584
-0.00634766,-0.00506592,1.00818,-0.244141,0,-0.12207,-0.003,0.003,-43.93,-0.0157928,0.0123901,0,0,0,0,0,41.47,277.039,3267614
-0.0162354,-0.00372314,1.01349,-0.366211,0,0.0610352,-0.011,-0.002,-43.93,-0.0157928,0.0123901,0,0,0,0,0,41.47,277.059,3267629
-0.00482178,-0.00653076,1.02325,-0.671387,-0.12207,0.183105,-0.001,0.003,-43.94,-0.0157928,0.0123901,0,0,0,0,0,41.47,277.079,3267644
-0.00415039,-0.0162964,1.01544,-0.427246,-0.366211,0.0610352,0.006,-0.002,-43.94,-0.0157928,0.0123901,0,0,0,0,0,41.47,277.1,3267674
-0.0111694,-0.0254517,1.00848,-0.12207,-0.244141,-0.0610352,0.007,-0.014,-43.94,-0.0157928,0.0123901,0,0,0,0,0,41.47,277.121,3267689
-0.000488281,-0.0240479,1.01379,0.0610352,-0.0610352,-0.0610352,0.013,-0.005,-43.94,-0.0157928,0.0123901,0,0,0,0,0,41.47,277.138,3267704
-0.00567627,-0.0178833,1.01172,0.488281,-0.0610352,-0.12207,0.005,-0.004,-43.94,-0.0157928,0.0123901,0,0,0,0,0,41.48,277.158,3267734
-0.00341797,-0.0137329,1.01025,0.549316,0.12207,0,0.004,0,-43.94,-0.0157928,0.0123901,0,0,0,0,0,41.48,277.178,3267749
-0.00769043,-0.00836182,1.01569,0.427246,0.305176,0.0610352,-0.002,0,-43.94,-0.0157928,0.0123901,0,0,0,0,0,41.48,277.198,3267764
-0.0098877,-0.00457764,1.0116,0.12207,0.305176,0,-0.006,0.001,-43.94,-0.0157928,0.0123901,0,0,0,0,0,41.48,277.218,3267794
-0.0135498,-0.00311279,1.01581,-0.0610352,-0.0610352,0.0610352,-0.009,0,-43.94,-0.0157928,0.0123901,0,0,0,0,0,41.48,277.243,3267809
-0.00909424,-0.00897217,1.01575,-0.366211,-0.12207,0,-0.002,0,-43.94,-0.0157928,0.0123901,0,0,0,0,0,41.48,277.258,3267824
-0.0100098,-0.0133057,1.01392,-0.305176,-0.366211,-0.183105,0,-0.004,-43.94,-0.0157928,0.0123901,0,0,0,0,0,41.48,277.28,3267854
-0.00543213,-0.0237427,1.01898,-0.12207,-0.366211,0,0.009,-0.008,-43.94,-0.0157928,0.0123901,0,0,0,0,0,41.48,277.298,3267869
-0.00305176,-0.0200195,1.00891,-0.183105,-0.12207,-0.183105,0.009,-0.004,-43.94,-0.0157928,0.0123901,0,0,0,0,0,41.48,277.318,3267884
-0.00378418,-0.0150757,1.01099,0.183105,0,0.12207,0.004,-0.001,-43.94,-0.0157928,0.0123901,0,0,0,0,0,41.48,277.338,3267914
-0.00427246,-0.0117188,1.01617,0.427246,0.0610352,0.0610352,0.002,0,-43.94,-0.0157928,0.0123901,0,0,0,0,0,41.48,277.359,3267929
-0.00213623,-0.0116577,1.00787,0.12207,0.12207,0.12207,0.003,0.002,-43.94,-0.0157928,0.0123901,0,0,0,0,0,41.48,277.377,3267944
-0.0101929,-0.00299072,1.02032,0.12207,0.12207,-0.0610352,-0.007,0.003,-43.94,-0.0157928,0.0123901,0,0,0,0,0,41.48,277.398,3267974
-0.0123291,-0.00695801,1.0083,-0.0610352,-0.12207,-0.12207,-0.006,-0.001,-43.94,-0.0157928,0.0123901,0,0,0,0,0,41.48,277.418,3267989
-0.00775146,-0.0170288,1.01208,-0.244141,-0.305176,-0.0610352,0.003,-0.005,-43.94,-0.0157928,0.0123901,0,0,0,0,0,41.48,277.441,3268019
-0.00543213,-0.013855,1.01044,-0.12207,-0.183105,-0.183105,0.003,-0.001,-43.94,-0.0157928,0.0123901,0,0,0,0,0,41.48,277.462,3268034
-0.00543213,-0.0158691,1.01367,-0.12207,-0.244141,-0.12207,0.004,-0.002,-43.94,-0.0157928,0.0123901,0,0,0,0,0,41.48,277.479,3268049
-0.00610352,-0.0187378,1.01025,-0.0610352,-0.0610352,-0.12207,0.005,-0.005,-43.94,-0.0157928,0.0123901,0,0,0,0,0,41.48,277.498,3268064
-0.00457764,-0.0126343,1.00879,0.0610352,0.0610352,0,0.002,0,-43.94,-0.0157928,0.0123901,0,0,0,0,0,41.48,277.519,3268094
-0.00683594,-0.0103149,1.01398,0.183105,0.12207,0.12207,0,0,-43.94,-0.0157928,0.0123901,0,0,0,0,0,41.48,277.539,3268109
-0.00653076,-0.0117798,1.01617,0.0610352,0,0.0610352,0,0,-43.94,-0.0157928,0.0123901,0,0,0,0,0,41.48,277.559,3268124
-0.0111084,-0.00878906,1.00946,0,0,0,-0.004,-0.001,-43.94,-0.0157928,0.0123901,0,0,0,0,0,41.48,277.578,3268154
-0.010437,-0.00994873,1.0163,-0.0610352,-0.183105,0,-0.003,-0.001,-43.94,-0.0157928,0.0123901,0,0,0,0,0,41.48,277.598,3268169
-0.00860596,-0.0150757,1.01813,-0.0610352,-0.305176,-0.12207,0.001,-0.004,-43.94,-0.0157928,0.0123901,0,0,0,0,0,41.48,277.618,3268184
-0.00683594,-0.0154419,1.01392,-0.0610352,-0.12207,-0.0610352,0.002,-0.003,-43.94,-0.0157928,0.0123901,0,0,0,0,0,41.48,277.639,3268214
-0.00500488,-0.0159912,1.01233,0,0,-0.0610352,0.004,-0.002,-43.94,-0.0157928,0.0123901,0,0,0,0,0,41.48,277.661,3268229
-0.00640869,-0.0180054,1.01294,0.0610352,-0.0610352,-0.0610352,0.004,-0.004,-43.94,-0.0157928,0.0123901,0,0,0,0,0,41.48,277.679,3268244
-0.00671387,-0.0132446,1.0097,0.244141,-0.0610352,0,0.001,-0.001,-43.94,-0.0157928,0.0123901,0,0,0,0,0,41.48,277.699,3268274
-0.00891113,-0.0140381,1.0177,0.12207,0.12207,0,0,-0.003,-43.94,-0.0157928,0.0123901,0,0,0,0,0,41.48,277.718,3268289
-0.00933838,-0.0107422,1.01276,0.12207,0,-0.0610352,-0.002,-0.001,-43.94,-0.0157928,0.0123901,0,0,0,0,0,41.48,277.74,3268304
-0.0122681,-0.00891113,1.0141,0.0610352,-0.0610352,0,-0.005,-0.002,-43.94,-0.0157928,0.0123901,0,0,0,0,0,41.48,277.758,3268334
-0.0100098,-0.0126953,1.0174,0,-0.0610352,0.0610352,-0.001,-0.003,-43.94,-0.0157928,0.0123901,0,0,0,0,0,41.48,277.778,3268349
-0.00830078,-0.0131226,1.01196,-0.183105,-0.12207,-0.0610352,0,-0.002,-43.94,-0.0157928,0.0123901,0,0,0,0,0,41.48,277.799,3268364
-0.00579834,-0.0151367,1.01074,0,0,-0.12207,0.003,-0.002,-43.94,-0.0157928,0.0123901,0,0,0,0,0,41.48,277.819,3268394
-0.0043335,-0.0124512,1.00952,0,-0.0610352,-0.0610352,0.002,0,-43.94,-0.0157928,0.0123901,0,0,0,0,0,41.48,277.838,3268409
-0.00537109,-0.0171509,1.01434,-0.0610352,-0.0610352,0,0.005,-0.003,-43.94,-0.0157928,0.0123901,0,0,0,0,0,41.48,277.858,3268424
-0.00775146,-0.0128784,1.00958,0.12207,-0.0610352,-0.0610352,0,-0.001,-43.94,-0.0157928,0.0123901,0,0,0,0,0,41.48,277.878,3268454
-0.00878906,-0.0108032,1.01147,0,-0.12207,0,-0.001,-0.001,-43.94,-0.0157928,0.0123901,0,0,0,0,0,41.48,277.898,3268469
-0.00592041,-0.0136108,1.01233,0,-0.0610352,-0.0610352,0.002,-0.001,-43.94,-0.0157928,0.0123901,0,0,0,0,0,41.48,277.918,3268484
-0.00769043,-0.0101318,1.0177,0.0610352,-0.0610352,-0.0610352,-0.001,0,-43.94,-0.0157928,0.0123901,0,0,0,0,0,41.48,277.938,3268514
-0.0067749,-0.00927734,1.01575,-0.12207,-0.0610352,-0.0610352,-0.001,0.001,-43.94,-0.0157928,0.0123901,0,0,0,0,0,41.48,277.958,3268529
-0.00506592,-0.0106812,1.01141,-0.0610352,-0.0610352,-0.12207,0,0.001,-43.94,-0.0157928,0.0123901,0,0,0,0,0,41.48,277.978,3268544
-0.0078125,-0.00744629,1.01239,0,0.0610352,0,-0.003,0.002,-43.94,-0.0157928,0.0123901,0,0,0,0,0,41.48,277.998,3268575
-0.00958252,-0.0137329,1.01318,-0.0610352,-0.12207,0,0,-0.003,-43.94,-0.0157928,0.0123901,0,0,0,0,0,41.48,278.018,3268590
-0.00872803,-0.0154419,1.01135,0.0610352,-0.0610352,0,0.001,-0.004,-43.94,-0.0157928,0.0123901,0,0,0,0,0,41.48,278.039,3268605
-0.0100708,-0.00970459,1.0097,0.183105,0,0.0610352,-0.003,-0.001,-43.94,-0.0157928,0.0123901,0,0,0,0,0,41.48,278.06,3268635
-0.00506592,-0.0112915,1.01343,0.12207,0.12207,0.0610352,0.001,0.001,-43.94,-0.0157928,0.0123901,0,0,0,0,0,41.48,278.079,3268650
-0.0078125,-0.0128784,1.01178,0,0,0,0,-0.001,-43.94,-0.0157928,0.0123901,0,0,0,0,0,41.48,278.099,3268665
-0.00384521,-0.00952148,1.01489,0,-0.0610352,-0.12207,0,0.003,-43.94,-0.0157928,0.0123901,0,0,0,0,0,41.48,278.118,3268695
-0.0090332,-0.0126343,1.01581,-0.0610352,-0.12207,-0.12207,0,-0.002,-43.94,-0.0157928,0.0123901,0,0,0,0,0,41.48,278.139,3268710
-0.0102539,-0.013855,1.01196,-0.0610352,-0.0610352,0,0,-0.004,-43.94,-0.0157928,0.0123901,0,0,0,0,0,41.48,278.158,3268725
-0.00720215,-0.0175781,1.01215,0,-0.0610352,-0.0610352,0.003,-0.004,-43.94,-0.0157928,0.0123901,0,0,0,0,0,41.45,278.179,3268755
-0.0128784,-0.0120239,1.01416,0.0610352,0.0610352,0.0610352,-0.003,-0.004,-43.94,-0.0157928,0.0123901,0,0,0,0,0,41.45,278.2,3268770
-0.00469971,-0.0153809,1.01434,0.0610352,-0.12207,0,0.004,-0.001,-43.94,-0.0157928,0.0123901,0,0,0,0,0,41.45,278.218,3268785
-0.00708008,-0.0134277,1.01849,0.0610352,0,-0.12207,0.001,-0.001,-43.94,-0.0157928,0.0123901,0,0,0,0,0,41.45,278.239,3268815
-0.00396729,-0.0126953,1.01233,0.183105,0.0610352,-0.0610352,0.002,0.001,-43.94,-0.0157928,0.0123901,0,0,0,0,0,41.45,278.26,3268830
-0.00543213,-0.010498,1.01233,0,-0.0610352,-0.12207,0,0.001,-43.94,-0.0157928,0.0123901,0,0,0,0,0,41.45,278.28,3268845
-0.00860596,-0.0132446,1.01855,0,0,-0.12207,0,-0.002,-43.94,-0.0157928,0.0123901,0,0,0,0,0,41.45,278.298,3268875
-0.00787354,-0.0141602,1.01428,0,0,-0.12207,0.001,-0.002,-43.94,-0.0157928,0.0123901,0,0,0,0,0,41.45,278.318,3268890
-0.00860596,-0.015686,1.01257,-0.12207,-0.183105,-0.0610352,0.001,-0.004,-43.94,-0.0157928,0.0123901,0,0,0,0,0,41.45,278.34,3268905
-0.00817871,-0.017395,1.01489,0,0,-0.0610352,0.003,-0.005,-43.94,-0.0157928,0.0123901,0,0,0,0,0,41.45,278.358,3268935
-0.00756836,-0.0151978,1.01093,0,0,-0.0610352,0.001,-0.002,-43.94,-0.0157928,0.0123901,0,0,0,0,0,41.45,278.378,3268950
-0.00695801,-0.0137939,1.01257,0.12207,0,-0.12207,0.001,-0.001,-43.94,-0.0157928,0.0123901,0,0,0,0,0,41.45,278.399,3268965
-0.00469971,-0.0123901,1.01324,0.0610352,-0.0610352,0,0.001,0,-43.94,-0.0157928,0.0123901,0,0,0,0,0,41.45,278.419,3268995
-0.00720215,-0.0117798,1.01398,0,0,0,0,0,-43.94,-0.0157928,0.0123901,0,0,0,0,0,41.45,278.439,3269010
-0.00567627,-0.010437,1.01184,0,-0.0610352,-0.0610352,0,0.001,-43.94,-0.0157928,0.0123901,0,0,0,0,0,41.45,278.458,3269025
-0.00683594,-0.0131226,1.01624,-0.0610352,-0.12207,0,0.001,-0.001,-43.94,-0.0157928,0.0123901,0,0,0,0,0,41.45,278.481,3269055
-0.00823975,-0.0123291,1.01508,-0.0610352,-0.183105,0.0610352,0,-0.001,-43.94,-0.0157928,0.0123901,0,0,0,0,0,41.45,278.498,3269070
-0.00622559,-0.0133057,1.01227,0,0,0,0.001,0,-43.94,-0.0157928,0.0123901,0,0,0,0,0,41.45,278.518,3269085
-0.00604248,-0.0126953,1.00995,-0.0610352,-0.0610352,-0.0610352,0.001,0,-43.94,-0.0157928,0.0123901,0,0,0,0,0,41.45,278.539,3269115
-0.00628662,-0.0137329,1.01123,-0.12207,-0.0610352,0,0.001,-0.001,-43.94,-0.0157928,0.0123901,0,0,0,0,0,41.45,278.559,3269130
-0.00756836,-0.0118408,1.0116,0,-0.0610352,0.0610352,0,0,-43.94,-0.0157928,0.0123901,0,0,0,0,0,41.45,278.578,3269145
-0.0088501,-0.0169067,1.0105,-0.0610352,-0.0610352,-0.0610352,0.002,-0.005,-43.94,-0.0157928,0.0123901,0,0,0,0,0,41.45,278.598,3269175
-0.00653076,-0.0112915,1.01599,-0.0610352,0,0,0,0,-43.95,-0.0157928,0.0123901,0,0,0,0,0,41.45,278.618,3269190
-0.00805664,-0.017334,1.01471,-0.0610352,-0.0610352,-0.0610352,0.002,-0.004,-43.95,-0.0157928,0.0123901,0,0,0,0,0,41.45,278.638,3269205
-0.00628662,-0.0129395,1.013,-0.12207,-0.12207,0,0.001,0,-43.94,-0.0157928,0.0123901,0,0,0,0,0,41.45,278.658,3269235
-0.00854492,-0.0110474,1.01984,0.0610352,0.12207,-0.0610352,-0.001,0,-43.94,-0.0157928,0.0123901,0,0,0,0,0,41.45,278.678,3269250
-0.00720215,-0.0153809,1.00446,-0.0610352,-0.0610352,-0.0610352,0.002,-0.002,-43.94,-0.0157928,0.0123901,0,0,0,0,0,41.48,278.698,3269265
-0.00811768,-0.0119019,1.01038,-0.0610352,-0.0610352,0,0,0,-43.94,-0.0157928,0.0123901,0,0,0,0,0,41.48,278.719,3269295
-0.00427246,-0.0119629,1.01703,0.183105,0.0610352,0,0.001,0.001,-43.94,-0.0157928,0.0123901,0,0,0,0,0,41.48,278.738,3269310
-0.00592041,-0.0137329,1.01526,0.12207,0,-0.0610352,0.001,0,-43.94,-0.0157928,0.0123901,0,0,0,0,0,41.48,278.758,3269325
-0.00689697,-0.0130615,1.0116,-0.12207,-0.12207,-0.0610352,0,0,-43.94,-0.0157928,0.0123901,0,0,0,0,0,41.48,278.78,3269355
-0.00695801,-0.0106812,1.01611,-0.0610352,-0.0610352,0,0,0.001,-43.94,-0.0157928,0.0123901,0,0,0,0,0,41.48,278.798,3269370
-0.00933838,-0.013916,1.01453,-0.0610352,-0.0610352,-0.12207,0,-0.002,-43.94,-0.0157928,0.0123901,0,0,0,0,0,41.48,278.819,3269385
-0.00604248,-0.0159302,1.01044,0,0,-0.12207,0.003,-0.002,-43.95,-0.0157928,0.0123901,0,0,0,0,0,41.48,278.838,3269415
-0.00805664,-0.0127563,1.01959,-0.183105,-0.244141,0,0,-0.001,-43.95,-0.0157928,0.0123901,0,0,0,0,0,41.48,278.858,3269430
-0.00897217,-0.012085,1.0127,0.0610352,-0.244141,-0.0610352,-0.001,-0.001,-43.95,-0.0157928,0.0123901,0,0,0,0,0,41.48,278.878,3269445
-0.0067749,-0.0145874,1.01379,-0.0610352,-0.0610352,0.0610352,0.001,-0.001,-43.95,-0.0157928,0.0123901,0,0,0,0,0,41.48,278.898,3269475
-0.00787354,-0.0115967,1.01166,0.0610352,0,0.0610352,-0.001,0,-43.94,-0.0157928,0.0123901,0,0,0,0,0,41.48,278.918,3269490
-0.00793457,-0.0127563,1.00873,0.12207,0,0.0610352,0,-0.001,-43.94,-0.0157928,0.0123901,0,0,0,0,0,41.48,278.939,3269505
-0.0065918,-0.0114136,1.01367,0,0,0,0,0,-43.94,-0.0157928,0.0123901,0,0,0,0,0,41.48,278.958,3269535
-0.00671387,-0.0111694,1.01257,0,0,0,0,0,-43.94,-0.0157928,0.0123901,0,0,0,0,0,41.48,278.983,3269550
-0.00805664,-0.0100708,1.01221,0.0610352,0,-0.0610352,-0.002,0,-43.94,-0.0157928,0.0123901,0,0,0,0,0,41.48,278.998,3269565
-0.00531006,-0.0117188,1.0177,-0.183105,-0.12207,-0.0610352,0,0.001,-43.94,-0.0157928,0.0123901,0,0,0,0,0,41.48,279.019,3269595
-0.0065918,-0.0117798,1.00195,0,-0.12207,-0.0610352,0,0,-43.94,-0.0157928,0.0123901,0,0,0,0,0,41.48,279.039,3269610
-0.0187988,-0.0285034,0.993347,0.305176,-0.12207,-0.12207,0.002,-0.02,-43.94,-0.0157928,0.0123749,0,0,0,0,0,41.48,279.058,3269625
0.00109863,-0.00622559,1.02777,4.21143,-0.305176,-0.0610352,0.003,0.007,-43.94,-0.0158997,0.0124817,0,0,0,0,0,41.48,279.079,3269655
-0.00616455,-0.0283813,1.03076,3.54004,-0.366211,0,0.014,-0.013,-43.94,-0.0159454,0.0124817,0,0,0,0,0,41.48,279.098,3269670
0.00177002,-0.0266724,0.987061,0.793457,-0.183105,-0.0610352,0.018,-0.007,-43.94,-0.0159454,0.0124817,0,0,0,0,0,41.48,279.118,3269685
-0.00170898,0.10675,1.03448,0.427246,-0.0610352,-0.976562,-0.076,0.086,-43.93,-0.0159912,0.0124817,0,0,0,0,0,41.48,279.139,3269715
0.00952148,0.171692,1.00726,6.89697,-0.244141,0.244141,-0.111,0.138,-43.93,-0.0161743,0.0126648,0,0,0,0,0,41.48,279.158,3269730
-0.00714111,-0.109558,1.01666,9.70459,-0.488281,-0.366211,0.073,-0.077,-43.93,-0.0163727,0.0128784,0,0,0,0,0,41.48,279.181,3269745
-0.0216675,-0.0741577,1.03003,6.5918,0.244141,-1.15967,0.041,-0.064,-43.9,-0.0166931,0.0132446,0,0,0,0,0,41.51,279.2,3269775
0.00592041,0.0875244,1.02673,7.14111,0.12207,-2.31934,-0.049,0.069,-43.87,-0.0168457,0.0134277,0,0,0,0,0,41.51,279.218,3269790
-0.00384521,-0.0169067,1.00012,7.56836,0,-1.58691,0.017,-0.014,-43.84,-0.0170288,0.0136414,0,0,0,0,0,41.51,279.239,3269805
-0.00976562,-0.0331421,1.01984,6.10352,-0.0610352,0,0.026,-0.032,-43.83,-0.0169983,0.0140076,0,0,0,0,0,41.51,279.271,3269835
-0.0194092,-0.010437,1.008,5.79834,-0.305176,0.793457,0.004,-0.023,-43.84,-0.0169525,0.0141296,0,0,0,0,0,41.51,279.278,3269850
-0.0265503,0.340698,1.11127,7.62939,0.793457,1.46484,-0.24,0.222,-43.86,-0.0170746,0.014389,0,0,0,0,0,41.51,279.301,3269865
-0.048645,-0.00213623,0.974121,5.92041,-1.0376,-0.610352,-0.016,-0.044,-43.86,-0.0175934,0.0152588,0,0,0,0,0,41.51,279.318,3269895
0.0359497,0.0689087,0.951782,0.12207,-0.244141,-0.12207,-0.004,0.065,-43.85,-0.0175934,0.0157013,0,0,0,0,0,41.51,279.339,3269910
-0.00531006,0.135315,1.01929,-3.11279,0.549316,-0.244141,-0.079,0.083,-43.85,-0.0176392,0.0162506,0,0,0,0,0,41.51,279.358,3269925
0.0128174,0.106323,0.974731,-4.02832,-0.366211,1.28174,-0.047,0.075,-43.88,-0.0179901,0.0175629,0,0,0,0,0,41.51,279.378,3269956
-0.00195312,0.069519,0.99292,-4.39453,0.610352,0.427246,-0.032,0.038,-43.89,-0.0182343,0.0183258,0,0,0,0,0,41.51,279.397,3269971
-0.00817871,0.0568848,1.099,-4.02832,0.244141,-1.0376,-0.026,0.025,-43.89,-0.0185394,0.0191345,0,0,0,0,0,41.51,279.417,3269986
-0.0230103,0.0297852,1.0274,-2.74658,0.305176,-0.915527,-0.02,-0.003,-43.86,-0.0188599,0.0199585,0,0,0,0,0,41.51,279.438,3270001
0.00872803,-0.0152588,1.00708,-1.95312,-0.427246,-1.2207,0.032,-0.012,-43.84,-0.019516,0.0207977,0,0,0,0,0,41.51,279.458,3270031
-0.0448608,0.0353394,1.00482,1.77002,0.366211,-0.915527,-0.04,-0.013,-43.83,-0.0202789,0.020874,0,0,0,0,0,41.51,279.484,3270061
0.00543213,-0.00305176,1.01733,3.66211,0.0610352,-1.40381,0.023,-0.006,-43.81,-0.0207062,0.0209045,0,0,0,0,0,41.51,279.5,3270076
-0.0292969,-0.11145,0.957886,1.28174,-1.0376,-0.549316,0.072,-0.109,-43.79,-0.0210724,0.0208588,0,0,0,0,0,41.51,279.518,3270091
-0.052063,0.0852661,0.988708,1.0376,-0.915527,-1.52588,-0.079,0.016,-43.77,-0.0214386,0.020752,0,0,0,0,0,41.51,279.538,3270106
-0.0306396,-0.0657349,0.990173,-1.09863,-0.427246,0.488281,0.04,-0.077,-43.74,-0.0224152,0.0206604,0,0,0,0,0,41.51,279.559,3270136
0.0258179,0.09375,0.985046,-0.0610352,-1.28174,0.427246,-0.029,0.076,-43.76,-0.0229034,0.0205994,0,0,0,0,0,41.51,279.578,3270151
0.00640869,0.0839233,1.02289,0.976562,-0.610352,-0.0610352,-0.035,0.055,-43.77,-0.0234375,0.0206451,0,0,0,0,0,41.51,279.598,3270166
0.024292,0.0373535,0.970276,2.01416,-0.549316,1.09863,0.009,0.032,-43.79,-0.0245972,0.020752,0,0,0,0,0,41.51,279.619,3270196
0.0377808,0.00927734,0.924377,-0.976562,-0.488281,0.244141,0.038,0.022,-43.79,-0.0251465,0.0208588,0,0,0,0,0,41.51,279.638,3270211
-0.0358276,0.0617065,1.03186,-2.62451,0.915527,0.427246,-0.049,0.007,-43.8,-0.0257111,0.0209656,0,0,0,0,0,41.51,279.66,3270226
0.0341187,0.0497437,1.09485,-2.19727,0.305176,-0.305176,0.01,0.047,-43.8,-0.0263062,0.0211334,0,0,0,0,0,41.51,279.678,3270241
-0.0158081,0.0106812,0.988037,-3.84521,0.427246,-1.09863,-0.001,-0.013,-43.78,-0.02742,0.0214996,0,0,0,0,0,41.51,279.698,3270271
-0.0560303,0.0228271,1.10181,-2.44141,1.89209,-0.427246,-0.037,-0.032,-43.77,-0.0279846,0.0216522,0,0,0,0,0,41.48,279.718,3270286
-0.0275879,0.0169067,0.91394,-1.28174,0.305176,0,-0.017,-0.015,-43.77,-0.029129,0.022049,0,0,0,0,0,41.48,279.739,3270316
-0.0892334,-0.00665283,1.06537,-0.854492,1.52588,0.183105,-0.042,-0.075,-43.77,-0.0297394,0.0222015,0,0,0,0,0,41.48,279.759,3270331
0.112793,0.127563,1.08221,1.83105,-1.2207,0.183105,0.011,0.161,-43.77,-0.0303497,0.0224152,0,0,0,0,0,41.48,279.779,3270346
-0.0296631,0.0762329,1.05115,6.10352,-0.0610352,-1.15967,-0.054,0.023,-43.75,-0.0317688,0.0232391,0,0,0,0,0,41.48,279.801,3270376
0.0791016,-0.180847,0.943665,-0.854492,-0.732422,0.427246,0.199,-0.086,-43.77,-0.0324097,0.0236511,0,0,0,0,0,41.48,279.818,3270391
-0.129272,0.010376,0.9422,-1.95312,1.09863,-0.732422,-0.083,-0.092,-43.76,-0.0329895,0.0239258,0,0,0,0,0,41.48,279.838,3270406
0.00170898,0.086792,1.04498,-1.77002,-0.549316,-0.0610352,-0.039,0.053,-43.74,-0.0336304,0.0241852,0,0,0,0,0,41.48,279.858,3270421
-0.085022,-0.118713,0.999084,-3.11279,1.28174,-1.2207,0.038,-0.154,-43.73,-0.0349426,0.0246887,0,0,0,0,0,41.48,279.88,3270451
0.0603638,-0.0197144,0.948669,-3.96728,-3.78418,0.488281,0.073,0.018,-43.73,-0.0354919,0.0247955,0,0,0,0,0,41.48,279.898,3270466
-0.0767822,-0.000183105,1.0036,-1.15967,-1.40381,-0.671387,-0.038,-0.061,-43.7,-0.0365906,0.0249481,0,0,0,0,0,41.48,279.918,3270496
0.118835,0.031189,0.989258,-0.12207,-2.50244,-1.2207,0.08,0.096,-43.68,-0.0371399,0.0250092,0,0,0,0,0,41.48,279.939,3270511
-0.0776978,-0.00244141,1.02478,-0.427246,1.95312,-2.01416,-0.038,-0.064,-43.65,-0.0376587,0.0250854,0,0,0,0,0,41.48,279.959,3270526
0.0157471,-0.0228882,1.01746,-0.976562,1.15967,-1.2207,0.041,-0.014,-43.64,-0.0385895,0.025116,0,0,0,0,0,41.48,279.979,3270556
-0.0542603,-0.0124512,0.984192,-1.83105,0.366211,0.488281,-0.016,-0.053,-43.64,-0.0389862,0.0250702,0,0,0,0,0,41.48,280,3270571
0.140686,-0.00946045,1.02545,-2.62451,-1.28174,1.70898,0.122,0.083,-43.66,-0.0393219,0.0250397,0,0,0,0,0,41.48,280.018,3270586
-0.0228271,-0.0215454,1.04028,-2.62451,-0.488281,1.58691,0.012,-0.037,-43.69,-0.0399933,0.0250549,0,0,0,0,0,41.48,280.038,3270616
0.0164185,0.0458374,0.978943,-0.976562,1.64795,0.427246,-0.007,0.038,-43.71,-0.0399933,0.0250397,0,0,0,0,0,41.48,280.058,3270631
-0.0806885,-0.0390625,1.00031,-1.64795,1.28174,-0.366211,-0.018,-0.088,-43.7,-0.0399933,0.0249786,0,0,0,0,0,41.48,280.079,3270646
0.0841064,0.00701904,1.03192,-1.70898,-1.89209,0.793457,0.068,0.058,-43.72,-0.0399628,0.0249176,0,0,0,0,0,41.48,280.098,3270661
-0.0603638,-0.0483398,1.01447,-1.09863,-1.77002,-0.610352,0.002,-0.08,-43.69,-0.0400391,0.0247803,0,0,0,0,0,41.48,280.118,3270691
0.0431519,0.0302734,1.00732,-0.854492,-0.854492,-1.83105,0.022,0.047,-43.67,-0.0401001,0.0246582,0,0,0,0,0,41.48,280.138,3270706
-0.0506592,-0.045166,1.00964,-1.89209,-0.366211,-2.99072,0.006,-0.07,-43.63,-0.0401459,0.0245209,0,0,0,0,0,41.48,280.158,3270721
-0.0505981,0.0300293,1.03931,-1.77002,1.28174,-2.68555,-0.046,-0.016,-43.58,-0.0401459,0.0242462,0,0,0,0,0,41.48,280.177,3270751
0.00939941,0.0147095,1.01178,-2.38037,-1.09863,-0.854492,0.007,0.014,-43.55,-0.0401764,0.0242462,0,0,0,0,0,41.48,280.198,3270766
-0.0210571,-0.00769043,1.01294,-2.74658,1.15967,-0.854492,0,-0.021,-43.52,-0.0401459,0.024231,0,0,0,0,0,41.49,280.218,3270796
0.072937,-0.0022583,1.03412,-2.44141,-0.244141,1.0376,0.063,0.048,-43.54,-0.0400848,0.0242462,0,0,0,0,0,41.49,280.239,3270811
-0.0879517,0.0154419,1.00409,-2.01416,2.50244,-0.732422,-0.066,-0.049,-43.53,-0.0400238,0.0242462,0,0,0,0,0,41.49,280.258,3270826
-0.00665283,-0.0203247,0.978088,-2.92969,-0.183105,0.549316,0.017,-0.018,-43.53,-0.0399933,0.0242004,0,0,0,0,0,41.49,280.279,3270842
-0.0638428,0.0131226,0.981506,-3.78418,0.488281,-0.183105,-0.048,-0.031,-43.53,-0.0400238,0.0240479,0,0,0,0,0,41.49,280.299,3270871
0.0446777,-0.0123291,0.980469,-4.15039,-1.0376,0.732422,0.046,0.025,-43.54,-0.0400391,0.023941,0,0,0,0,0,41.49,280.318,3270886
-0.0541992,0.0501709,1.0224,-4.02832,0.854492,-0.549316,-0.068,0.003,-43.54,-0.0400848,0.0238647,0,0,0,0,0,41.49,280.338,3270902
0.0324097,-0.00305176,0.992676,-4.21143,-1.28174,-0.854492,0.029,0.025,-43.53,-0.0402985,0.0236359,0,0,0,0,0,41.49,280.359,3270931
-0.0610352,-0.0452881,0.976379,-4.3335,0.0610352,0.0610352,-0.009,-0.068,-43.52,-0.04039,0.0234833,0,0,0,0,0,41.49,280.378,3270946
-0.0703735,0.00274658,1.06592,-4.5166,2.50244,0.12207,-0.051,-0.038,-43.53,-0.0404968,0.0232697,0,0,0,0,0,41.49,280.398,3270976
-0.00134277,0.00769043,1.02661,-5.85937,-1.0376,0.671387,-0.005,0.014,-43.54,-0.0405884,0.0231628,0,0,0,0,0,41.49,280.418,3270991
0.0181274,0.00457764,0.975159,-6.40869,0.732422,-0.732422,0.008,0.025,-43.54,-0.0405884,0.0230865,0,0,0,0,0,41.49,280.438,3271006
0.0270386,-0.127502,0.997986,-5.18799,-0.610352,-0.732422,0.105,-0.061,-43.52,-0.0407867,0.0232086,0,0,0,0,0,41.49,280.458,3271036
-0.0535889,0.129333,1.00885,-0.244141,3.23486,-2.2583,-0.13,0.069,-43.49,-0.0409241,0.0233002,0,0,0,0,0,41.49,280.479,3271051
0.00695801,-0.127136,1.06378,-0.366211,-1.28174,-0.488281,0.09,-0.073,-43.47,-0.0410767,0.0233917,0,0,0,0,0,41.49,280.498,3271066
0.020752,-0.00177002,1.03656,1.52588,0.549316,-1.2207,0.013,0.025,-43.47,-0.0411682,0.0234528,0,0,0,0,0,41.49,280.518,3271082
-0.00878906,0.0198975,1.03656,-0.549316,-1.0376,-0.915527,-0.022,0.021,-43.42,-0.0411682,0.0234528,0,0,0,0,0,41.49,280.538,3271111
-0.0252075,-0.045166,0.974792,-2.19727,0.12207,-0.854492,0.01,-0.036,-43.42,-0.0411835,0.0234222,0,0,0,0,0,41.49,280.558,3271126
0.0933838,0.109497,0.963745,-1.58691,-2.44141,0.12207,-0.01,0.156,-43.41,-0.0411987,0.023468,0,0,0,0,0,41.49,280.578,3271142
0.0568237,-0.0160522,1.05603,-0.12207,-1.95312,0.0610352,0.049,0.041,-43.43,-0.0413971,0.0238647,0,0,0,0,0,41.49,280.599,3271171
-0.0484009,-0.0238037,0.948914,-2.0752,1.46484,0.610352,-0.021,-0.038,-43.43,-0.0415039,0.0240784,0,0,0,0,0,41.49,280.619,3271186
0.0300903,0.00958252,0.993591,-2.56348,-0.671387,1.64795,0.011,0.041,-43.46,-0.0416107,0.024292,0,0,0,0,0,41.49,280.638,3271202
0.0831299,0.0809326,1.00427,-1.77002,-0.793457,1.70898,0.001,0.13,-43.49,-0.042038,0.0250854,0,0,0,0,0,41.49,280.666,3271231
-0.0447388,-0.0256958,0.96637,-0.610352,1.0376,0.488281,-0.018,-0.035,-43.51,-0.0423126,0.0256195,0,0,0,0,0,41.49,280.678,3271246
0.0391846,0.163635,1.06207,-4.08936,-1.34277,-0.0610352,-0.088,0.161,-43.54,-0.0428009,0.0267792,0,0,0,0,0,41.49,280.699,3271276
0.00646973,0.0809326,0.955078,1.64795,-0.366211,-0.0610352,-0.053,0.076,-43.54,-0.0431519,0.0275879,0,0,0,0,0,41.49,280.718,3271292
-0.105103,0.123108,1.04327,6.83594,0.610352,-1.09863,-0.162,0.029,-43.53,-0.0436554,0.0284576,0,0,0,0,0,41.48,280.739,3271307
-0.138245,-0.0110474,0.979309,3.78418,-0.0610352,-2.2583,-0.092,-0.092,-43.49,-0.0446777,0.0302887,0,0,0,0,0,41.48,280.761,3271337
0.0619507,-0.0269165,0.968262,2.62451,-0.854492,-1.40381,0.064,0.033,-43.47,-0.0451965,0.0311584,0,0,0,0,0,41.48,280.779,3271352
-0.0809326,-0.00939941,1.03528,1.28174,0.610352,-2.01416,-0.051,-0.051,-43.43,-0.0457001,0.0319977,0,0,0,0,0,41.48,280.799,3271367
-0.0222168,0.00805664,0.989563,-1.09863,-0.366211,-0.244141,-0.02,0.001,-43.38,-0.0466309,0.0336761,0,0,0,0,0,41.48,280.82,3271397
-0.015625,0.0183105,0.956604,-0.915527,0.366211,1.2207,-0.023,0.012,-43.4,-0.0471039,0.0336761,0,0,0,0,0,41.48,280.839,3271412
0.0583496,-0.0366211,1.00159,-1.70898,0.244141,2.44141,0.067,0.024,-43.43,-0.0475464,0.0336914,0,0,0,0,0,41.48,280.858,3271427
-0.0904541,0.0784302,0.991089,-0.427246,1.70898,1.70898,-0.119,0.006,-43.51,-0.048996,0.0340576,0,0,0,0,0,41.48,280.896,3271472
0.00805664,-0.0835571,1.02032,-1.89209,0.244141,2.62451,0.063,-0.042,-43.56,-0.0495605,0.0341949,0,0,0,0,0,41.48,280.915,3271487
0.00805664,-0.0835571,1.02032,-1.89209,0.244141,2.62451,0.063,-0.042,-43.56,-0.0495605,0.0341949,0,0,0,0,0,41.48,280.924,3271487
0.0288696,-0.00909424,0.991272,-2.74658,-0.183105,0.549316,0.027,0.026,-43.59,-0.0507812,0.0343323,0,0,0,0,0,41.48,280.938,3271517
-0.0997925,-0.0181885,0.975525,-2.86865,0.244141,-0.793457,-0.059,-0.067,-43.58,-0.0514221,0.0343628,0,0,0,0,0,41.48,280.958,3271532
0.0335083,-0.00775146,1.00787,-4.21143,-0.0610352,-1.64795,0.029,0.032,-43.57,-0.0521088,0.0343781,0,0,0,0,0,41.48,280.978,3271547
0.00744629,-0.00384521,0.964722,-4.82178,0,-0.488281,0.005,0.018,-43.53,-0.0534668,0.0344086,0,0,0,0,0,41.48,280.999,3271577
0.0162964,-0.0767212,1.05957,-4.5166,-0.0610352,-0.732422,0.061,-0.025,-43.52,-0.0541077,0.0344238,0,0,0,0,0,41.48,281.025,3271592
-0.0888062,-0.031311,0.971985,-3.41797,0.427246,-0.671387,-0.046,-0.066,-43.5,-0.0547333,0.0343781,0,0,0,0,0,41.48,281.04,3271607
0.020752,0.107788,0.807129,-1.2207,-1.2207,-1.09863,-0.062,0.107,-43.48,-0.0554504,0.0343628,0,0,0,0,0,41.48,281.059,3271622
0.170532,0.288818,1.01025,0.244141,-3.60107,0.305176,-0.079,0.346,-43.46,-0.0572662,0.0345001,0,0,0,0,0,41.48,281.084,3271652
-0.0163574,0.112671,1.01569,-2.2583,-0.610352,-0.12207,-0.093,0.09,-43.47,-0.0583649,0.0349579,0,0,0,0,0,41.48,281.1,3271667
-0.0614624,-0.131226,0.944031,2.56348,2.0752,-0.183105,0.042,-0.119,-43.47,-0.0603638,0.0355072,0,0,0,0,0,41.48,281.127,3271697
-0.153259,-0.0613403,1.06976,-0.732422,1.64795,-1.89209,-0.072,-0.128,-43.44,-0.0636444,0.0362244,0,0,0,0,0,41.48,281.17,3271742
0.0728149,0.0210571,0.990906,0.0610352,-1.2207,0.0610352,0.035,0.086,-43.43,-0.0648346,0.0364532,0,0,0,0,0,41.48,281.181,3271757
-0.117493,-0.079895,1.03479,0.305176,1.34277,-2.2583,-0.033,-0.117,-43.42,-0.0660248,0.0366516,0,0,0,0,0,41.48,281.198,3271772
0.0664673,-0.0539551,1.00916,2.31934,-0.427246,-0.549316,0.082,0.027,-43.39,-0.0671692,0.0368042,0,0,0,0,0,41.48,281.219,3271787
-0.0916138,-0.125,1.04523,2.50244,1.0376,-0.854492,0.016,-0.132,-43.38,-0.0682678,0.0368652,0,0,0,0,0,41.48,281.238,3271802
0.100342,0.0373535,1.06061,-1.77002,-3.35693,-2.2583,0.044,0.117,-43.33,-0.0702057,0.0368042,0,0,0,0,0,41.49,281.259,3271832
-0.0667114,-0.0215454,1.12482,-1.89209,0.732422,-0.366211,-0.038,-0.038,-43.33,-0.0711365,0.03685,0,0,0,0,0,41.49,281.278,3271847
-0.0787964,0.174194,1.02563,2.62451,1.15967,-0.976562,-0.181,0.093,-43.31,-0.0732269,0.0369873,0,0,0,0,0,41.49,281.306,3271877
0.0534668,-0.0934448,1.13239,2.01416,0.244141,0.366211,0.098,-0.008,-43.31,-0.0744171,0.0371552,0,0,0,0,0,41.49,281.324,3271892
-0.291748,-0.050293,0.926086,5.7373,3.11279,-0.244141,-0.181,-0.218,-43.32,-0.0756531,0.0371552,0,0,0,0,0,41.49,281.34,3271907
0.107483,0.106018,0.991455,1.0376,-1.70898,0.854492,0.001,0.17,-43.32,-0.0770111,0.0371399,0,0,0,0,0,41.49,281.358,3271922
-0.00134277,-0.370972,1.12714,3.05176,0.976562,0.244141,0.249,-0.248,-43.34,-0.0798492,0.036911,0,0,0,0,0,41.49,281.378,3271952
-0.0419312,-0.192261,1.04773,-0.12207,0.671387,-0.12207,0.098,-0.148,-43.33,-0.0809784,0.0363922,0,0,0,0,0,41.49,281.4,3271967
0.031189,0.0943604,0.947449,-3.78418,-3.05176,-0.549316,-0.045,0.108,-43.32,-0.0820923,0.0358429,0,0,0,0,0,41.49,281.418,3271982
-0.139648,-0.110046,0.984375,1.89209,1.34277,-2.0752,-0.03,-0.156,-43.29,-0.0845032,0.0351105,0,0,0,0,0,41.49,281.439,3272012
0.0446167,-0.162109,1.04468,-0.366211,-1.95312,-0.305176,0.139,-0.067,-43.27,-0.0856628,0.0345917,0,0,0,0,0,41.49,281.458,3272027
0.12146,0.228699,0.918579,-5.31006,-3.96728,-1.09863,-0.072,0.267,-43.26,-0.0867767,0.0342102,0,0,0,0,0,41.49,281.478,3272042
-0.0820923,0.038269,1.02069,2.62451,1.89209,-0.366211,-0.09,-0.008,-43.24,-0.0890045,0.0340881,0,0,0,0,0,41.49,281.5,3272072
0.0067749,0.0751953,0.915833,-2.01416,-0.488281,0.671387,-0.05,0.077,-43.28,-0.0911865,0.0341644,0,0,0,0,0,41.49,281.529,3272102
-0.0264893,-0.217712,1.0304,-0.610352,1.58691,0.671387,0.124,-0.156,-43.3,-0.0922089,0.0341949,0,0,0,0,0,41.49,281.541,3272117
-0.0393677,-0.302612,1.11926,-0.12207,3.2959,2.13623,0.174,-0.225,-43.32,-0.0930176,0.0339508,0,0,0,0,0,41.49,281.561,3272132
-0.0321655,0.0195312,0.987305,-0.305176,-0.0610352,1.77002,-0.041,0.011,-43.35,-0.09375,0.0335693,0,0,0,0,0,41.49,281.581,3272147
0.0292358,-0.0626221,0.96582,-1.0376,-0.854492,1.09863,0.06,-0.005,-43.35,-0.0944672,0.0331879,0,0,0,0,0,41.49,281.598,3272163
0.156128,0.287659,0.915588,-2.56348,-3.35693,0.0610352,-0.087,0.335,-43.36,-0.0959778,0.0324402,0,0,0,0,0,41.49,281.618,3272192
0.0901489,0.0678101,0.920715,-5.79834,-1.58691,-1.77002,0.015,0.13,-43.34,-0.0968323,0.0324554,0,0,0,0,0,41.49,281.639,3272207
0.0858765,0.133728,0.936096,-4.08936,-0.0610352,-0.244141,-0.032,0.175,-43.33,-0.0984039,0.0329742,0,0,0,0,0,41.49,281.662,3272237
0.0509644,0.242188,0.932739,-2.56348,-2.38037,-1.77002,-0.133,0.231,-43.31,-0.0992889,0.0336151,0,0,0,0,0,41.49,281.678,3272252
0.0500488,0.0482788,1.08661,-3.2959,-0.671387,-1.0376,-0.001,0.093,-43.3,-0.100266,0.0344543,0,0,0,0,0,41.49,281.698,3272267
0.120117,0.119507,1.07751,-2.50244,-0.976562,-0.427246,0,0.194,-43.27,-0.102524,0.0365601,0,0,0,0,0,41.49,281.718,3272297
-0.0959473,-0.050354,1.00763,-0.793457,3.17383,-1.2207,-0.039,-0.079,-43.27,-0.103745,0.0377808,0,0,0,0,0,41.49,281.742,3272312
0.0383301,-0.168579,0.954224,0.366211,2.13623,-0.183105,0.139,-0.074,-43.26,-0.104889,0.0388947,0,0,0,0,0,41.5,281.759,3272327
0.0111694,0.168945,0.913757,0.427246,1.34277,-1.77002,-0.11,0.152,-43.25,-0.106018,0.0400543,0,0,0,0,0,41.5,281.778,3272343
0.0836182,0.0557251,0.970459,-3.41797,-3.66211,-0.427246,0.019,0.12,-43.25,-0.108704,0.0430145,0,0,0,0,0,41.5,281.798,3272372
-0.0714722,-0.0205688,1.09473,0.671387,1.52588,-1.34277,-0.041,-0.037,-43.25,-0.110107,0.044632,0,0,0,0,0,41.5,281.818,3272387
-0.126221,-0.156799,1.11456,1.83105,1.70898,-0.183105,0.012,-0.174,-43.25,-0.112518,0.047348,0,0,0,0,0,41.5,281.838,3272417
0.0402832,-0.172302,1.01312,0.915527,0.427246,0.244141,0.144,-0.073,-43.23,-0.113525,0.0484161,0,0,0,0,0,41.5,281.859,3272432
-0.0592041,-0.168274,0.921387,0.366211,0.732422,-0.793457,0.07,-0.14,-43.23,-0.114395,0.0493469,0,0,0,0,0,41.5,281.879,3272447
0.0696411,0.132324,1.04639,0.671387,-0.610352,-0.854492,-0.043,0.169,-43.22,-0.11525,0.0502777,0,0,0,0,0,41.5,281.898,3272463
-0.137085,-0.13678,1.02057,3.41797,3.78418,-1.09863,-0.009,-0.169,-43.19,-0.116776,0.0522919,0,0,0,0,0,41.5,281.918,3272492
0.0542603,-0.254395,1.2326,2.2583,1.46484,0.793457,0.21,-0.118,-43.2,-0.117371,0.0530396,0,0,0,0,0,41.5,281.938,3272507
0.159668,0.225403,0.835266,-1.46484,-2.80762,1.0376,-0.041,0.294,-43.2,-0.118286,0.054306,0,0,0,0,0,41.5,281.962,3272537
-0.0160522,0.178101,1.10577,-1.89209,-0.12207,-1.89209,-0.137,0.147,-43.19,-0.118866,0.0553131,0,0,0,0,0,41.5,281.978,3272552
-0.0315552,-0.117493,0.883484,-0.549316,2.50244,0.488281,0.054,-0.085,-43.2,-0.119507,0.0563507,0,0,0,0,0,41.5,281.998,3272567
0.0913086,0.0352783,1.01917,-2.01416,-1.95312,0.183105,0.039,0.114,-43.2,-0.120087,0.0574188,0,0,0,0,0,41.5,282.018,3272583
-0.0583496,-0.240845,1.06647,1.77002,-0.427246,-0.549316,0.119,-0.188,-43.19,-0.121353,0.0595245,0,0,0,0,0,41.5,282.04,3272612
-0.113525,-0.0258179,1.04138,3.41797,2.19727,-1.83105,-0.067,-0.069,-43.17,-0.121948,0.0603333,0,0,0,0,0,41.5,282.059,3272627
-0.0245972,-0.143921,0.992126,1.58691,-0.976562,-0.366211,0.078,-0.096,-43.15,-0.122543,0.0610199,0,0,0,0,0,41.5,282.079,3272643
0.121399,-0.0612183,1.03162,0.0610352,-1.34277,-0.549316,0.127,0.064,-43.13,-0.123581,0.0621033,0,0,0,0,0,41.5,282.099,3272673
-0.133789,-0.11145,0.927429,0.366211,0.976562,-0.854492,-0.024,-0.149,-43.11,-0.124008,0.0625763,0,0,0,0,0,41.5,282.118,3272688
0.017395,-0.00512695,0.971497,-1.52588,-0.793457,0.305176,0.013,0.033,-43.1,-0.124756,0.0633545,0,0,0,0,0,41.5,282.139,3272718
-0.120483,-0.400208,1.27106,5.12695,4.15039,-0.0610352,0.181,-0.342,-43.12,-0.124969,0.0635529,0,0,0,0,0,41.5,282.159,3272733
0.160767,0.00128174,0.977661,-3.479,4.45557,3.96728,0.114,0.134,-43.13,-0.125,0.0636139,0,0,0,0,0,41.5,282.18,3272748
0.0759277,-0.158081,1.41711,-1.40381,-0.12207,0,0.16,-0.026,-43.14,-0.125305,0.0644226,0,0,0,0,0,41.5,282.215,3272778
0.0877686,0.0645142,0.893127,-1.46484,-0.671387,5.31006,0.018,0.13,-43.19,-0.125381,0.0651398,0,0,0,0,0,41.5,282.239,3272808
-0.0842896,0.197266,0.809814,2.13623,-1.89209,7.62939,-0.198,0.107,-43.29,-0.125519,0.0656586,0,0,0,0,0,41.5,282.259,3272823
-0.13324,-0.170471,0.90155,0.610352,0.427246,12.085,0.02,-0.191,-43.61,-0.126251,0.066803,0,0,0,0,0,41.51,282.278,3272853
0.0132446,0.137756,1.06366,2.50244,0.12207,11.7798,-0.086,0.137,-43.79,-0.126678,0.0672913,0,0,0,0,0,41.51,282.299,3272868
-0.0778198,-0.168518,1.0415,1.40381,0.549316,10.7422,0.059,-0.147,-43.96,-0.127136,0.0677643,0,0,0,0,0,41.51,282.318,3272883
-0.0230713,-0.120239,1.03369,1.46484,-0.549316,14.2212,0.066,-0.073,-44.35,-0.128098,0.0685425,0,0,0,0,0,41.51,282.339,3272913
-0.00201416,-0.167908,1.0658,-0.0610352,-0.0610352,13.2446,0.115,-0.092,-44.56,-0.128464,0.0688019,0,0,0,0,0,41.51,282.359,3272928
0.0447388,0.0110474,1.01593,-0.915527,-2.19727,14.1602,0.022,0.066,-44.75,-0.128738,0.0690308,0,0,0,0,0,41.51,282.378,3272943
0.045105,0.129883,1.05396,5.00488,-0.244141,12.3291,-0.06,0.15,-45.15,-0.129501,0.0696259,0,0,0,0,0,41.51,282.399,3272973
-0.105103,0.00280762,1.07886,1.28174,0.0610352,12.3901,-0.076,-0.045,-45.34,-0.130035,0.0700378,0,0,0,0,0,41.51,282.418,3272988
0.0479736,-0.0309448,0.98468,-0.915527,-0.976562,16.2964,0.055,0.038,-45.58,-0.130585,0.0704346,0,0,0,0,0,41.51,282.438,3273003
-0.0662842,0.0438843,1.00775,0.366211,-0.244141,14.7705,-0.077,0.008,-46.02,-0.131805,0.0713806,0,0,0,0,0,41.51,282.459,3273033
-0.0485229,-0.119202,0.974548,2.62451,0.305176,13.916,0.052,-0.093,-46.24,-0.132492,0.0718079,0,0,0,0,0,41.51,282.477,3273048
0.102112,0.0879517,1.18964,0.610352,-2.0752,11.9629,0.006,0.165,-46.43,-0.133133,0.0722809,0,0,0,0,0,41.51,282.498,3273063
0.203247,0.307617,0.909546,1.52588,-5.92041,12.2681,-0.085,0.381,-46.8,-0.133179,0.0737,0,0,0,0,0,41.51,282.518,3273093
-0.202393,-0.0268555,1.09302,4.08936,0.549316,9.94873,-0.117,-0.139,-46.97,-0.133377,0.0746918,0,0,0,0,0,41.51,282.538,3273108
0.0267944,-0.0789185,1.05487,1.58691,-0.244141,12.085,0.077,-0.009,-47.15,-0.133591,0.0755768,0,0,0,0,0,41.51,282.56,3273123
0.022522,0.0842896,0.933716,-0.305176,-2.50244,14.5874,-0.046,0.094,-47.53,-0.133972,0.077301,0,0,0,0,0,41.51,282.578,3273153
-0.0300293,-0.0403442,0.998108,-1.34277,-1.70898,15.686,0.01,-0.026,-47.75,-0.134201,0.0782318,0,0,0,0,0,41.51,282.598,3273168
-0.0428467,0.0300903,1.07599,1.2207,0.549316,16.4795,-0.05,0.012,-48,-0.134476,0.0791321,0,0,0,0,0,41.51,282.617,3273183
0.055603,0.151672,0.989807,-1.77002,-2.99072,16.6626,-0.077,0.164,-48.5,-0.135056,0.0810547,0,0,0,0,0,41.51,282.638,3273213
-0.0353394,-0.017395,1.03955,-0.366211,-0.305176,15.9912,-0.01,-0.015,-48.74,-0.135437,0.0821533,0,0,0,0,0,41.51,282.658,3273228
0.00292969,-0.0318604,1.02594,0.610352,-1.09863,16.5405,0.025,0.003,-48.99,-0.135803,0.083252,0,0,0,0,0,41.51,282.678,3273243
0.0576782,-0.000183105,0.988342,-0.183105,-1.89209,15.1978,0.036,0.064,-49.46,-0.136597,0.0853119,0,0,0,0,0,41.51,282.698,3273273
-0.120056,-0.12085,1.05042,0.12207,-1.15967,14.8926,0.013,-0.148,-49.68,-0.136978,0.0862732,0,0,0,0,0,41.51,282.718,3273288
-0.00744629,0.250061,0.989563,1.83105,-1.28174,13.7939,-0.197,0.175,-49.89,-0.137482,0.0872498,0,0,0,0,0,41.51,282.739,3273303
0.0560303,0.179077,1.10156,-0.244141,-2.68555,13.3057,-0.103,0.179,-50.29,-0.138733,0.0896454,0,0,0,0,0,41.51,282.759,3273333
-0.0476074,0.0839844,0.967285,-0.305176,-1.09863,12.4512,-0.095,0.035,-50.49,-0.139526,0.0910645,0,0,0,0,0,41.5,282.783,3273348
0.0219727,0.0231323,1.03802,0.12207,-1.46484,13.6719,-0.004,0.051,-50.7,-0.140381,0.0925446,0,0,0,0,0,41.5,282.798,3273363
0.0374756,0.139771,0.981995,-1.64795,-1.83105,14.3433,-0.086,0.135,-51.12,-0.142059,0.0955811,0,0,0,0,0,41.5,282.818,3273393
-0.0198364,-0.110291,0.993591,-0.427246,-1.77002,15.9302,0.072,-0.065,-51.35,-0.142929,0.097168,0,0,0,0,0,41.5,282.838,3273408
-0.0484009,0.0245972,1.07635,0.427246,0.366211,15.8691,-0.05,-0.002,-51.6,-0.143784,0.0987244,0,0,0,0,0,41.5,282.86,3273423
0.0543823,0.159912,1.0415,1.46484,-1.15967,14.7095,-0.093,0.161,-52.07,-0.145447,0.101761,0,0,0,0,0,41.5,282.878,3273453
-0.0397949,0.020813,0.97229,-0.366211,-0.854492,13.7329,-0.041,0,-52.27,-0.146378,0.103424,0,0,0,0,0,41.5,282.898,3273468
-0.137939,0.0391846,0.95697,1.77002,-0.976562,14.1602,-0.115,-0.067,-52.49,-0.147415,0.105042,0,0,0,0,0,41.5,282.918,3273484
0.0239868,-0.0933228,1.06134,-1.2207,-2.0752,12.6343,0.089,-0.018,-52.89,-0.149673,0.1082,0,0,0,0,0,41.5,282.938,3273513
0.0127563,0.012085,0.948364,-0.0610352,-1.83105,13.6108,-0.001,0.034,-53.08,-0.150726,0.109802,0,0,0,0,0,41.5,282.958,3273528
-0.0926514,0.0705566,1.04059,3.84521,0.366211,13.977,-0.111,-0.013,-53.29,-0.151855,0.111404,0,0,0,0,0,41.5,282.978,3273544
-0.130432,-0.0194092,0.987915,1.09863,-0.12207,14.7705,-0.06,-0.099,-53.74,-0.15416,0.114777,0,0,0,0,0,41.5,282.998,3273573
0.0358276,-0.0157471,0.997742,0.488281,0.427246,16.0522,0.034,0.036,-53.97,-0.155319,0.116425,0,0,0,0,0,41.5,283.018,3273588
-0.0088501,-0.0474243,1.09174,1.2207,0,16.9067,0.034,-0.016,-54.22,-0.156433,0.118088,0,0,0,0,0,41.5,283.039,3273604
0.0265503,0.00970459,0.886353,2.01416,0.915527,17.5171,0.008,0.041,-54.75,-0.158569,0.121185,0,0,0,0,0,41.5,283.058,3273633
0.0742798,0.0383301,1.15186,1.58691,0.305176,18.0664,0.013,0.102,-55.01,-0.158569,0.122803,0,0,0,0,0,41.5,283.077,3273648
-0.0977173,0.0266113,1.05109,-0.732422,0.854492,15.8081,-0.075,-0.048,-55.26,-0.158615,0.124466,0,0,0,0,0,41.5,283.098,3273664
-0.0772705,0.0722046,0.984131,2.44141,1.0376,15.3198,-0.1,-0.007,-55.74,-0.158844,0.127869,0,0,0,0,0,41.5,283.118,3273693
-0.0146484,-0.00720215,1.04883,1.95312,-0.488281,15.8081,0.001,0,-55.98,-0.159058,0.129608,0,0,0,0,0,41.5,283.138,3273708
-0.109924,-0.055603,1.00574,0.488281,-0.854492,15.686,-0.01,-0.106,-56.21,-0.159286,0.131256,0,0,0,0,0,41.5,283.158,3273724
-0.0356445,-0.0792847,0.924683,0.732422,-1.2207,15.3809,0.05,-0.059,-56.68,-0.159943,0.134445,0,0,0,0,0,41.5,283.18,3273753
0.00805664,0.065979,1.07635,2.31934,-1.64795,16.5405,-0.046,0.059,-56.92,-0.160278,0.136032,0,0,0,0,0,41.5,283.198,3273768
-0.130554,-0.0331421,1.00696,0.732422,-0.183105,14.4653,-0.038,-0.113,-57.15,-0.160675,0.137589,0,0,0,0,0,41.5,283.219,3273784
-0.0696411,-0.0477295,1.01263,0.671387,-0.915527,15.564,0.008,-0.07,-57.6,-0.161102,0.140732,0,0,0,0,0,41.5,283.238,3273813
0.0246582,0.0969849,0.958008,2.31934,-1.64795,14.4653,-0.064,0.085,-57.83,-0.161133,0.142349,0,0,0,0,0,41.5,283.259,3273828
-0.0280151,-0.111267,1.07867,-0.366211,-1.40381,15.3809,0.085,-0.068,-58.04,-0.161163,0.143967,0,0,0,0,0,41.5,283.278,3273844
0.0623779,-0.053833,0.941895,-0.427246,-2.13623,17.0898,0.083,0.036,-58.53,-0.16127,0.147186,0,0,0,0,0,41.49,283.298,3273873
-0.00384521,0.0379639,1.01501,1.46484,-0.610352,16.0522,-0.029,0.028,-58.77,-0.161301,0.14888,0,0,0,0,0,41.49,283.32,3273888
-0.0570679,-0.0275879,1.01733,0,0.610352,17.0288,0,-0.051,-59.03,-0.161346,0.150543,0,0,0,0,0,41.49,283.338,3273904
-0.0515137,-0.0823975,0.985168,0.0610352,0.488281,17.5171,0.05,-0.074,-59.54,-0.161407,0.153854,0,0,0,0,0,41.49,283.358,3273933
-0.0197754,0.0840454,0.947693,1.64795,-1.40381,17.395,-0.077,0.036,-59.81,-0.161438,0.155472,0,0,0,0,0,41.49,283.379,3273948
-0.0159302,-0.0791626,1.07208,0.305176,-1.52588,17.6392,0.067,-0.04,-60.07,-0.161469,0.157104,0,0,0,0,0,41.49,283.397,3273964
0.0358276,-0.0996704,0.994995,0.366211,-1.89209,17.4561,0.11,-0.006,-60.58,-0.161606,0.160278,0,0,0,0,0,41.49,283.418,3273993
-0.00909424,0.0731812,1.0293,1.95312,-0.732422,17.5171,-0.061,0.038,-60.85,-0.161636,0.16188,0,0,0,0,0,41.49,283.439,3274009
-0.0100708,-0.0490112,1.013,1.09863,-1.0376,17.8223,0.044,-0.021,-61.12,-0.161667,0.163498,0,0,0,0,0,41.49,283.458,3274024
0.0157471,-0.0755615,1.05267,0.427246,-0.427246,17.4561,0.081,-0.011,-61.62,-0.161636,0.166809,0,0,0,0,0,41.49,283.478,3274054
-0.0710449,0.0612793,0.955078,1.52588,0.854492,16.7236,-0.08,-0.024,-61.88,-0.161575,0.168457,0,0,0,0,0,41.49,283.498,3274069
0.0615234,-0.0609741,1.08881,0.488281,-0.549316,18.1885,0.09,0.036,-62.15,-0.161514,0.170105,0,0,0,0,0,41.49,283.519,3274084
0.0370483,-0.0211792,0.953308,1.95312,0.488281,18.1274,0.043,0.032,-62.68,-0.161407,0.17337,0,0,0,0,0,41.49,283.539,3274114
-0.00964355,0.0186768,1.07166,2.80762,0.915527,16.0522,-0.011,0.01,-62.93,-0.161331,0.175034,0,0,0,0,0,41.49,283.561,3274129
-0.0447388,-0.0175171,1.04303,2.2583,1.52588,16.4185,0.004,-0.037,-63.18,-0.16127,0.176666,0,0,0,0,0,41.49,283.578,3274144
0.000244141,0.0170898,1.05756,2.19727,-0.183105,17.6392,-0.004,0.018,-63.69,-0.16127,0.179916,0,0,0,0,0,41.49,283.6,3274174
-0.111023,0.0352173,0.982605,2.56348,0.854492,15.686,-0.069,-0.075,-63.93,-0.161316,0.181519,0,0,0,0,0,41.49,283.618,3274189
0.0362549,-0.0305786,1.03094,2.99072,-0.976562,16.4185,0.055,0.028,-64.17,-0.161377,0.183075,0,0,0,0,0,41.49,283.638,3274204
0.0343628,0.0105591,0.975281,3.23486,-0.305176,15.686,0.017,0.043,-64.65,-0.161469,0.186172,0,0,0,0,0,41.49,283.658,3274234
-0.020752,-0.0530396,1.08344,2.19727,-1.09863,16.1133,0.053,-0.032,-64.88,-0.161453,0.187714,0,0,0,0,0,41.49,283.678,3274249
-0.0462646,0.074585,0.980957,3.72314,-0.12207,16.3574,-0.073,-0.003,-65.14,-0.161469,0.18924,0,0,0,0,0,41.49,283.698,3274264
0.00836182,0.00610352,1.13666,4.39453,-0.305176,16.2964,0.015,0.017,-65.61,-0.161545,0.190765,0,0,0,0,0,41.49,283.718,3274294
-0.102356,-0.0065918,0.997559,3.60107,0.12207,16.2354,-0.019,-0.089,-65.86,-0.16156,0.19072,0,0,0,0,0,41.49,283.738,3274309
0.069519,0.0392456,0.899475,4.39453,-2.38037,16.3574,0.007,0.084,-66.11,-0.16156,0.190674,0,0,0,0,0,41.49,283.758,3274324
0.0249634,0.0735474,1.09302,3.23486,0.305176,15.3809,-0.037,0.057,-66.59,-0.161469,0.190567,0,0,0,0,0,41.49,283.779,3274354
0.00939941,-0.139587,1.01752,-0.793457,-3.84521,12.8174,0.15,-0.04,-66.79,-0.161331,0.190536,0,0,0,0,0,41.47,283.798,3274369
-0.09552,0.0687256,0.88916,-2.50244,-0.915527,12.6953,-0.085,-0.056,-66.99,-0.161148,0.19043,0,0,0,0,0,41.47,283.817,3274384
0.0200195,0.0284424,1.11133,-1.64795,0.0610352,12.4512,0,0.037,-67.37,-0.161026,0.189972,0,0,0,0,0,41.47,283.84,3274414
-0.00396729,-0.0361938,0.967896,-1.52588,-1.83105,13.3667,0.047,-0.011,-67.56,-0.160995,0.189743,0,0,0,0,0,41.47,283.867,3274429
-0.0158081,0.0495605,0.971619,-0.488281,-1.64795,14.5264,-0.036,0.01,-67.77,-0.160965,0.189743,0,0,0,0,0,41.47,283.88,3274444
0.0693359,-0.121216,1.04443,0.854492,-2.0752,14.2212,0.154,0.026,-68.19,-0.160797,0.189774,0,0,0,0,0,41.47,283.898,3274474
-0.0317993,-0.0265503,0.986816,-1.46484,-0.732422,15.0757,0.027,-0.033,-68.42,-0.160522,0.189804,0,0,0,0,0,41.47,283.918,3274489
-0.043396,-0.0777588,1.00659,-4.08936,-1.2207,17.5781,0.069,-0.061,-68.67,-0.160187,0.189758,0,0,0,0,0,41.47,283.938,3274504
-0.0535278,-0.0437012,1.0434,-4.45557,0.488281,17.1509,0.032,-0.057,-69.16,-0.1595,0.189606,0,0,0,0,0,41.47,283.962,3274534
0.0175781,0.00878906,0.991516,-5.67627,-2.19727,15.9912,0.007,0.028,-69.41,-0.159134,0.189484,0,0,0,0,0,41.47,283.978,3274549
0.00268555,0.00158691,0.999512,-5.43213,0.183105,15.3809,0.006,0.011,-69.65,-0.158768,0.189392,0,0,0,0,0,41.47,283.998,3274564
0.0446777,0.0854492,1.00787,-5.61523,-1.15967,18.9819,-0.06,0.081,-70.16,-0.158798,0.189178,0,0,0,0,0,41.47,284.018,3274594
-0.0736084,-0.0344849,1.01929,-4.94385,0.671387,17.7612,0.011,-0.07,-70.43,-0.158859,0.189072,0,0,0,0,0,41.47,284.04,3274609
0.059021,-0.000732422,0.946228,-6.22559,-1.70898,18.7378,0.021,0.066,-70.7,-0.158905,0.18898,0,0,0,0,0,41.47,284.058,3274624
-0.0753784,0.00616455,1.04285,-8.66699,1.2207,17.395,-0.033,-0.056,-71.25,-0.15892,0.188843,0,0,0,0,0,41.47,284.078,3274654
0.0865479,-0.0823364,0.987915,-11.4746,-1.64795,17.4561,0.099,0.069,-71.51,-0.15889,0.188782,0,0,0,0,0,41.47,284.1,3274669
0.00927734,-0.017334,1.08319,-11.1084,0.0610352,17.8223,0.009,0.018,-71.77,-0.158783,0.188766,0,0,0,0,0,41.47,284.118,3274684
0.0866089,-0.0449219,0.954712,-3.35693,-2.19727,10.7422,0.057,0.083,-72.21,-0.158707,0.188751,0,0,0,0,0,41.47,284.14,3274714
-0.0375366,-0.0404053,1.01599,0.732422,0.183105,10.376,0.014,-0.032,-72.37,-0.158646,0.188782,0,0,0,0,0,41.47,284.158,3274729
-0.105469,-0.116638,1.02484,3.78418,1.2207,7.08008,0.067,-0.12,-72.49,-0.158508,0.188721,0,0,0,0,0,41.47,284.18,3274744
-0.000732422,-0.17981,0.997864,1.77002,-0.183105,9.8877,0.158,-0.038,-72.75,-0.157867,0.188324,0,0,0,0,0,41.47,284.198,3274774
-0.0249634,-0.101257,1.09723,-0.305176,0.183105,11.7187,0.074,-0.035,-72.92,-0.157288,0.188065,0,0,0,0,0,41.47,284.218,3274789
-0.0418701,-0.122314,1.02692,-1.77002,-0.366211,12.6953,0.089,-0.058,-73.11,-0.156616,0.187729,0,0,0,0,0,41.47,284.239,3274804
-0.0150757,0.0300903,1.02844,2.01416,-0.427246,11.4746,-0.048,0.011,-73.42,-0.155121,0.186951,0,0,0,0,0,41.47,284.258,3274834
-0.0188599,-0.0479126,1.01459,0.488281,-0.610352,14.4043,0.025,-0.014,-73.63,-0.154404,0.186554,0,0,0,0,0,41.47,284.278,3274849
-0.0155029,0.0183105,1.04608,2.31934,-0.549316,15.686,-0.036,0.007,-74.07,-0.152924,0.186554,0,0,0,0,0,41.48,284.301,3274879
-0.0368652,-0.0702515,1.10565,1.83105,-0.366211,16.6626,0.042,-0.036,-74.32,-0.152191,0.186523,0,0,0,0,0,41.48,284.318,3274894
-0.0377808,-0.02948,0.937927,0.0610352,-0.427246,16.4795,0.005,-0.029,-74.56,-0.151428,0.186462,0,0,0,0,0,41.48,284.339,3274909
0.00952148,-0.0889893,0.963562,-3.2959,-0.732422,18.1274,0.073,0.001,-74.82,-0.150604,0.186386,0,0,0,0,0,41.48,284.358,3274925
-0.0692749,0.000366211,1.0274,-1.46484,0.0610352,18.1274,-0.034,-0.05,-75.37,-0.149017,0.18631,0,0,0,0,0,41.48,284.378,3274954
-0.0245361,-0.0305786,0.962402,2.13623,0.427246,17.6392,0.008,-0.015,-75.64,-0.14827,0.186249,0,0,0,0,0,41.48,284.398,3274969
0.109009,0.222046,0.988159,4.39453,-0.183105,16.1133,-0.203,0.175,-75.89,-0.147659,0.186279,0,0,0,0,0,41.48,284.42,3274985
0.0278931,0.136108,0.955994,1.95312,-0.0610352,17.334,-0.139,0.074,-76.38,-0.146347,0.186508,0,0,0,0,0,41.48,284.44,3275014
-0.0182495,-0.0889282,1.07202,-0.671387,0.549316,18.1885,0.067,-0.02,-76.65,-0.145706,0.186676,0,0,0,0,0,41.48,284.458,3275029
0.0222168,0.0626221,1.00464,0.427246,-0.671387,19.8364,-0.069,0.052,-76.94,-0.145065,0.186859,0,0,0,0,0,41.48,284.479,3275045
-0.0114136,-0.0224609,1.05792,2.31934,-0.366211,18.9819,0.006,0.001,-77.8,-0.143417,0.187119,0,0,0,0,0,41.48,284.512,3275089
-0.0114136,-0.0224609,1.05792,2.31934,-0.366211,18.9819,0.006,0.001,-77.8,-0.143417,0.187119,0,0,0,0,0,41.48,284.52,3275089
-0.0167236,0.0164795,1.00983,3.17383,-1.40381,18.9209,-0.031,0.003,-78.09,-0.142929,0.187119,0,0,0,0,0,41.48,284.539,3275105
0.0166016,0.010437,1.06287,4.45557,-0.793457,20.3247,-0.016,0.034,-78.69,-0.142014,0.187134,0,0,0,0,0,41.48,284.558,3275134
0.0179443,0.00201416,1.06238,4.88281,-1.2207,19.2871,-0.006,0.033,-78.99,-0.142014,0.187195,0,0,0,0,0,41.48,284.578,3275149
0.0182495,-0.0159302,0.969788,3.66211,-0.183105,17.8223,0.013,0.028,-79.52,-0.142014,0.187302,0,0,0,0,0,41.48,284.602,3275179
0.0374756,-0.0119019,1.05145,3.23486,-0.488281,17.4561,0.013,0.049,-79.78,-0.142014,0.187408,0,0,0,0,0,41.48,284.618,3275194
-0.0878296,0.00756836,1.03064,3.60107,0,16.6626,-0.026,-0.071,-80.04,-0.142014,0.187485,0,0,0,0,0,41.48,284.638,3275209
-0.0117798,0.0325928,0.972961,3.90625,0.12207,17.4561,-0.036,0.007,-80.3,-0.142075,0.187531,0,0,0,0,0,41.48,284.658,3275225
-0.062561,-0.0101318,1.0437,5.00488,0,14.4653,0,-0.049,-80.78,-0.142136,0.187668,0,0,0,0,0,41.48,284.68,3275254
-0.0292358,-0.0151367,0.940247,4.15039,-0.549316,14.6484,0.011,-0.018,-81,-0.142136,0.187683,0,0,0,0,0,41.48,284.698,3275269
0.03302,0.0325928,1.013,4.76074,-1.0376,15.4419,-0.024,0.05,-81.22,-0.142151,0.187714,0,0,0,0,0,41.48,284.718,3275285
-0.0521851,-0.0176392,0.979553,5.43213,-1.34277,13.7329,0.015,-0.042,-81.67,-0.142181,0.187744,0,0,0,0,0,41.48,284.739,3275314
0.0181274,0.0233765,0.971191,6.34766,-1.0376,14.0381,-0.013,0.032,-81.87,-0.142181,0.187729,0,0,0,0,0,41.48,284.758,3275329
-0.0352783,-0.0480347,1.0614,4.57764,-1.52588,12.7563,0.051,-0.029,-82.07,-0.142151,0.187714,0,0,0,0,0,41.48,284.781,3275345
-0.0174561,0.0499878,0.95105,0.732422,-0.549316,14.6484,-0.042,-0.001,-82.48,-0.142075,0.187668,0,0,0,0,0,41.48,284.801,3275375
0.000549316,0.0648804,1.07721,-0.976562,0.732422,13.2446,-0.053,0.019,-82.69,-0.14212,0.187668,0,0,0,0,0,41.47,284.819,3275390
0.0276489,0.0460205,1.06384,-1.64795,-0.488281,13.3667,-0.031,0.044,-82.89,-0.142227,0.187714,0,0,0,0,0,41.47,284.838,3275405
-0.0718994,0.0184326,1.01251,-2.0752,1.46484,12.3291,-0.015,-0.059,-83.31,-0.142624,0.187866,0,0,0,0,0,41.47,284.863,3275435
0.0983276,0.0673218,1.06598,-2.01416,0.610352,13.7939,-0.044,0.116,-83.5,-0.142899,0.187958,0,0,0,0,0,41.47,284.878,3275450
-0.00152588,0.0250854,1.04474,-0.976562,-0.610352,16.1743,-0.014,0.01,-83.74,-0.143204,0.188156,0,0,0,0,0,41.47,284.899,3275465
0.0166016,-0.130798,0.97644,-1.83105,-0.183105,13.4277,0.141,0.013,-84.15,-0.143799,0.18837,0,0,0,0,0,41.47,284.921,3275495
0.0647583,0.135193,1.04877,-0.366211,-0.0610352,15.625,-0.118,0.088,-84.38,-0.144043,0.188507,0,0,0,0,0,41.47,284.938,3275510
-0.0958862,-0.0620117,1.04108,-1.52588,-0.305176,15.8691,0.062,-0.091,-84.62,-0.144318,0.18866,0,0,0,0,0,41.47,284.958,3275525
0.0308838,-0.0186157,1.06702,-0.12207,0.0610352,16.6016,0.03,0.04,-85.08,-0.144882,0.188812,0,0,0,0,0,41.47,284.979,3275555
-0.031311,0.0426025,1.04846,0.671387,-0.427246,15.625,-0.035,-0.017,-85.33,-0.145157,0.188919,0,0,0,0,0,41.47,284.998,3275570
-0.057373,-0.00164795,0.954163,0.671387,-0.366211,15.3198,0.006,-0.047,-85.56,-0.145477,0.18898,0,0,0,0,0,41.47,285.018,3275585
-0.0112305,-0.0108643,1.08411,-0.549316,-0.366211,15.686,0.02,-0.001,-86.03,-0.146133,0.189117,0,0,0,0,0,41.47,285.04,3275615
-0.0621948,0.0368652,0.969543,-1.2207,-0.427246,15.564,-0.032,-0.049,-86.26,-0.146484,0.189163,0,0,0,0,0,41.47,285.058,3275630
0.0263062,0.0480347,1.00916,-0.671387,-0.366211,16.3574,-0.037,0.039,-86.51,-0.146881,0.189194,0,0,0,0,0,41.47,285.079,3275645
-0.0273438,-0.0167236,0.970825,-0.183105,-0.793457,16.9678,0.023,-0.018,-87,-0.147736,0.189362,0,0,0,0,0,41.47,285.099,3275675
