raw_accel_x,raw_accel_y,raw_accel_z,raw_gyro_x,raw_gyro_y,raw_gyro_z,world_accel_x,world_accel_y,yaw,x,y,z,left_encoder_rate,right_encoder_rate,left_motor,right_motor,temp,fpga time,navx time
-0.0140381,-0.00463867,1.01276,-0.0610352,-0.12207,0.0610352,-0.003,0.003,-6.01,0.00553894,0.392639,0,0,0,0,0,40.29,723.587,1955178
-0.0107422,-0.0105591,1.01508,0.0610352,-0.0610352,0.12207,0,-0.002,-6.01,0.00553894,0.392639,0,0,0,0,0,40.29,723.598,1955193
-0.013855,-0.00878906,1.01422,-0.0610352,-0.0610352,0.12207,-0.002,0,0,0,0,0,0,0,0,0,40.29,723.614,1955208
-0.0130615,-0.00842285,1.0144,0.0610352,0,-0.0610352,-0.001,0,0,0,0,0,0,0,0,0,40.29,723.632,1955223
-0.0119629,-0.00762939,1.01611,0,0.0610352,0,0,0,0,0,0,0,0,0,0,0,40.29,723.653,1955253
-0.0119629,-0.0114136,1.01227,-0.0610352,-0.0610352,-0.0610352,0,-0.003,0,0,0,0,0,0,0,0,40.29,723.672,1955268
-0.0145264,-0.00616455,1.01709,0,0,0.12207,-0.003,0.002,0,0,0,0,0,0,0,0,40.29,723.693,1955283
-0.0103149,-0.00537109,1.01617,0.0610352,-0.12207,0.0610352,0.001,0.002,0,0,0,0,0,0,0,0,40.29,723.714,1955313
-0.00994873,-0.00396729,1.01434,0,0,0.12207,0.001,0.004,-0.01,0,0,0,0,0,0,0,40.29,723.736,1955328
-0.0124512,-0.0106812,1.01428,0,-0.0610352,0,-0.001,-0.002,-0.01,0,0,0,0,0,0,0,40.29,723.754,1955358
-0.0120239,-0.00866699,1.00952,-0.0610352,-0.0610352,0,0,0,-0.01,0,0,0,0,0,0,0,40.29,723.774,1955373
-0.0134277,-0.0107422,1.01501,-0.0610352,-0.0610352,0,-0.001,-0.002,-0.01,0,0,0,0,0,0,0,40.29,723.792,1955388
-0.0133057,-0.00622559,1.01703,-0.0610352,-0.0610352,0,-0.001,0.002,-0.01,0,0,0,0,0,0,0,40.29,723.816,1955418
-0.012207,-0.00799561,1.01227,0.0610352,0.0610352,0,0,0,-0.02,0,0,0,0,0,0,0,40.29,723.833,1955433
-0.0112305,-0.00909424,1.01697,0,0.0610352,-0.0610352,0,0,-0.02,0,0,0,0,0,0,0,40.29,723.852,1955448
-0.0114136,-0.0088501,1.01599,-0.0610352,-0.0610352,0,0,0,-0.02,0,0,0,0,0,0,0,40.29,723.874,1955463
-0.0120239,-0.00878906,1.0127,0,-0.0610352,0,0,0,-0.02,0,0,0,0,0,0,0,40.29,723.893,1955493
-0.0123901,-0.0098877,1.01581,0,0,0.0610352,0,-0.001,-0.02,0,0,0,0,0,0,0,40.29,723.917,1955508
-0.0108032,-0.00848389,1.01416,0,-0.12207,0.0610352,0,0,-0.02,0,0,0,0,0,0,0,40.29,723.933,1955523
-0.0102539,-0.00939941,1.01447,0.0610352,-0.0610352,0.0610352,0.001,-0.001,-0.02,0,0,0,0,0,0,0,40.29,723.953,1955553
-0.0112915,-0.00787354,1.01654,-0.0610352,-0.0610352,0,0,0,-0.02,0,0,0,0,0,0,0,40.29,723.973,1955568
-0.0113525,-0.0119019,1.01904,0.0610352,-0.0610352,0,0,-0.003,-0.02,0,0,0,0,0,0,0,40.29,723.993,1955598
-0.0123291,-0.0090332,1.01044,-0.0610352,-0.183105,0,0,0,-0.02,0,0,0,0,0,0,0,40.29,724.019,1955613
-0.0111084,-0.00689697,1.013,0,0,-0.0610352,0,0.001,-0.02,0,0,0,0,0,0,0,40.29,724.033,1955628
-0.010498,-0.00946045,1.01398,-0.0610352,-0.12207,0,0,-0.001,-0.02,0,0,0,0,0,0,0,40.29,724.053,1955658
-0.0109863,-0.0117798,1.01086,0.12207,0,-0.0610352,0,-0.003,-0.02,0,0,0,0,0,0,0,40.27,724.073,1955673
-0.0108643,-0.00689697,1.0188,0.0610352,0,-0.0610352,0,0.001,-0.02,0,0,0,0,0,0,0,40.27,724.093,1955688
-0.0101318,-0.00921631,1.01221,-0.0610352,-0.183105,0.0610352,0.001,0,-0.02,0,0,0,0,0,0,0,40.27,724.113,1955703
-0.0142822,-0.0098877,1.0177,0,0,-0.12207,-0.002,-0.001,-0.02,0,0,0,0,0,0,0,40.27,724.133,1955733
-0.00866699,-0.00866699,1.01062,-0.0610352,-0.244141,-0.12207,0.002,0,-0.02,0,0,0,0,0,0,0,40.27,724.153,1955748
-0.0109253,-0.00915527,1.01685,-0.0610352,-0.0610352,-0.0610352,0,0,-0.02,0,0,0,0,0,0,0,40.27,724.175,1955778
-0.00823975,-0.00854492,1.01501,0,-0.0610352,-0.12207,0.003,0,-0.02,0,0,0,0,0,0,0,40.27,724.193,1955793
-0.0108032,-0.0101318,1.01721,0,0.0610352,0.0610352,0,-0.001,-0.02,0,0,0,0,0,0,0,40.27,724.213,1955808
-0.0100708,-0.00848389,1.01501,-0.0610352,-0.0610352,-0.12207,0.001,0,-0.02,0,0,0,0,0,0,0,40.27,724.233,1955823
-0.0151978,-0.00933838,1.01569,0.0610352,0.0610352,0,-0.003,-0.001,-0.02,0,0,0,0,0,0,0,40.27,724.253,1955853
-0.0109253,-0.00775146,1.00952,-0.0610352,-0.0610352,0,0,0,-0.02,0,0,0,0,0,0,0,40.27,724.273,1955868
-0.00976562,-0.00939941,1.01532,0,0.183105,-0.0610352,0.001,-0.001,-0.02,0,0,0,0,0,0,0,40.27,724.293,1955899
-0.0111084,-0.00830078,1.01532,0,-0.12207,0,0,0,-0.02,0,0,0,0,0,0,0,40.27,724.313,1955913
-0.012207,-0.0105591,1.01489,0,-0.0610352,0,0,-0.002,-0.03,0,0,0,0,0,0,0,40.27,724.334,1955928
-0.0125122,-0.00805664,1.01746,0,0,0,-0.001,0,-0.03,0,0,0,0,0,0,0,40.27,724.352,1955943
-0.0101929,-0.0123901,1.01263,0,0.183105,-0.0610352,0.001,-0.004,-0.03,0,0,0,0,0,0,0,40.27,724.377,1955973
-0.0112915,-0.00592041,1.01599,-0.0610352,-0.12207,0,0,0.002,-0.03,0,0,0,0,0,0,0,40.27,724.392,1955988
-0.0140381,-0.0055542,1.01794,0,0,0.0610352,-0.002,0.002,-0.03,0,0,0,0,0,0,0,40.27,724.414,1956019
-0.0101318,-0.0113525,1.01154,0,-0.12207,0,0.001,-0.003,-0.03,0,0,0,0,0,0,0,40.27,724.432,1956033
-0.0133667,-0.00866699,1.01385,0.0610352,-0.12207,0.0610352,-0.002,0,-0.04,0,0,0,0,0,0,0,40.27,724.452,1956048
-0.0123291,-0.00994873,1.01306,0.12207,0,0.0610352,-0.001,-0.001,-0.04,0,0,0,0,0,0,0,40.27,724.475,1956079
-0.00958252,-0.00964355,1.01111,-0.12207,-0.12207,0.0610352,0.001,-0.001,-0.04,0,0,0,0,0,0,0,40.27,724.493,1956093
-0.00878906,-0.00842285,1.01782,-0.0610352,-0.12207,0,0.002,0,-0.04,0,0,0,0,0,0,0,40.27,724.513,1956108
-0.0110474,-0.00994873,1.01306,0,0.0610352,0.0610352,0,-0.001,-0.04,0,0,0,0,0,0,0,40.27,724.533,1956123
-0.00939941,-0.00970459,1.02142,0,-0.0610352,0,0.001,-0.001,-0.04,0,0,0,0,0,0,0,40.27,724.552,1956153
-0.0111694,-0.0111694,1.01099,0,0.0610352,0,0,-0.002,-0.04,0,0,0,0,0,0,0,40.27,724.573,1956168
-0.0117188,-0.00921631,1.0152,0.0610352,0,0.12207,0,0,-0.04,0,0,0,0,0,0,0,40.29,724.593,1956183
-0.0114746,-0.00775146,1.01697,-0.0610352,-0.0610352,0.0610352,0,0,-0.04,0,0,0,0,0,0,0,40.29,724.613,1956213
-0.00982666,-0.00738525,1.0163,0,0.0610352,0,0.001,0,-0.04,0,0,0,0,0,0,0,40.29,724.634,1956228
-0.0111084,-0.00726318,1.01367,-0.0610352,-0.0610352,0,0,0.001,-0.04,0,0,0,0,0,0,0,40.29,724.653,1956243
-0.00994873,-0.010437,1.01868,0,-0.0610352,0.0610352,0.001,-0.002,-0.04,0,0,0,0,0,0,0,40.29,724.674,1956273
-0.00939941,-0.00933838,1.01691,-0.0610352,-0.183105,0.12207,0.001,-0.001,-0.04,0,0,0,0,0,0,0,40.29,724.693,1956288
-0.00854492,-0.00891113,1.01166,0.12207,-0.12207,-0.12207,0.002,0,-0.04,0,0,0,0,0,0,0,40.29,724.712,1956303
-0.00860596,-0.00671387,1.00415,0.12207,0.0610352,0,0.002,0.001,-0.04,0,0,0,0,0,0,0,40.29,724.739,1956333
-0.0112915,-0.0067749,1.01416,-0.0610352,-0.0610352,0.0610352,0,0.001,-0.04,0,0,0,0,0,0,0,40.29,724.752,1956348
-0.0125122,-0.00897217,1.01306,0.0610352,0,0.0610352,-0.001,0,-0.05,0,0,0,0,0,0,0,40.29,724.773,1956363
-0.0101929,-0.00811768,1.01361,-0.12207,-0.12207,-0.0610352,0.001,0,-0.04,0,0,0,0,0,0,0,40.29,724.793,1956394
-0.0111084,-0.00579834,1.01733,-0.0610352,-0.12207,0.12207,0,0.002,-0.05,0,0,0,0,0,0,0,40.29,724.813,1956409
-0.00805664,-0.00964355,1.01691,-0.0610352,-0.183105,-0.0610352,0.003,-0.001,-0.05,0,0,0,0,0,0,0,40.29,724.839,1956439
-0.0110474,-0.00891113,1.01831,0,0,-0.12207,0,0,-0.05,0,0,0,0,0,0,0,40.29,724.853,1956454
-0.0144653,-0.0107422,1.02014,-0.0610352,-0.12207,-0.0610352,-0.003,-0.002,-0.05,0,0,0,0,0,0,0,40.29,724.876,1956469
-0.00860596,-0.010498,1.0127,0.0610352,0.0610352,0.0610352,0.002,-0.002,-0.05,0,0,0,0,0,0,0,40.29,724.893,1956484
-0.0136719,-0.00811768,1.01691,-0.0610352,-0.0610352,0.0610352,-0.002,0,-0.05,0,0,0,0,0,0,0,40.29,724.913,1956514
-0.00964355,-0.00842285,1.01709,0.0610352,0,0,0.001,0,-0.05,0,0,0,0,0,0,0,40.29,724.933,1956529
-0.00909424,-0.00640869,1.00995,-0.0610352,-0.0610352,0,0.002,0.001,-0.05,0,0,0,0,0,0,0,40.29,724.953,1956544
-0.0112305,-0.0103149,1.01727,-0.0610352,-0.0610352,0,0,-0.001,-0.05,0,0,0,0,0,0,0,40.29,724.973,1956574
-0.0120239,-0.00445557,1.0127,0,0,0,0,0.003,-0.05,0,0,0,0,0,0,0,40.29,724.995,1956589
-0.010437,-0.0106201,1.01245,-0.0610352,-0.183105,0,0,-0.002,-0.05,0,0,0,0,0,0,0,40.29,725.013,1956604
-0.0100098,-0.00518799,1.01129,-0.0610352,-0.183105,-0.0610352,0.001,0.003,-0.06,0,0,0,0,0,0,0,40.29,725.033,1956634
-0.0101929,-0.00714111,1.01605,0,-0.0610352,0,0.001,0.001,-0.06,0,0,0,0,0,0,0,40.29,725.053,1956649
-0.0120239,-0.00585938,1.01581,-0.12207,-0.183105,0.0610352,0,0.002,-0.06,0,0,0,0,0,0,0,40.29,725.073,1956679
-0.00811768,-0.00976562,1.0166,-0.0610352,-0.0610352,-0.0610352,0.003,-0.001,-0.06,0,0,0,0,0,0,0,40.28,725.093,1956694
-0.0134888,-0.00909424,1.01599,0,0.0610352,-0.12207,-0.002,0,-0.06,0,0,0,0,0,0,0,40.28,725.113,1956709
-0.00854492,-0.00799561,1.01752,0,-0.12207,0,0.002,0,-0.06,0,0,0,0,0,0,0,40.28,725.133,1956724
-0.0120239,-0.00604248,1.01038,0.0610352,0,0,-0.001,0.002,-0.07,0,0,0,0,0,0,0,40.28,725.153,1956754
-0.00964355,-0.00695801,1.01709,0.0610352,0.0610352,0.0610352,0.001,0.001,-0.07,0,0,0,0,0,0,0,40.28,725.174,1956769
-0.0100098,-0.00708008,1.01093,-0.0610352,-0.12207,0.0610352,0.001,0.001,-0.07,0,0,0,0,0,0,0,40.28,725.193,1956784
-0.0141602,-0.00817871,1.00885,-0.0610352,-0.0610352,0.0610352,-0.003,0,-0.07,0,0,0,0,0,0,0,40.28,725.213,1956814
-0.00891113,-0.00848389,1.01868,-0.0610352,-0.0610352,-0.12207,0.002,0,-0.07,0,0,0,0,0,0,0,40.28,725.233,1956829
-0.0106812,-0.00714111,1.01495,0.0610352,0,0,0,0.001,-0.07,0,0,0,0,0,0,0,40.28,725.253,1956844
-0.00494385,-0.00128174,1.01733,-0.183105,-0.0610352,0,0.006,0.007,-0.07,0,0,0,0,0,0,0,40.28,725.274,1956874
-0.0216675,-0.0844727,1.04034,-1.64795,-0.183105,-1.2207,-0.01,-0.074,-0.06,0,-4.57764e-05,0,0,0,0,0,40.28,725.293,1956889
0.0100708,0.0148926,0.980591,-2.86865,-0.549316,-0.244141,0.02,0.025,-0.05,0,-0.00012207,0,0,0,0,0,40.28,725.313,1956904
-0.0215454,-0.0410767,1.02551,3.17383,0.12207,-0.549316,-0.01,-0.031,-0.05,-1.52588e-05,-0.000198364,0,0,0,0,0,40.28,725.335,1956934
0.0131226,-0.06073,1.02161,2.2583,-0.0610352,-0.305176,0.024,-0.05,-0.04,-3.05176e-05,-0.000289917,0,0,0,0,0,40.28,725.353,1956949
-0.0255737,-0.0314941,1.02216,1.0376,-0.12207,-0.0610352,-0.014,-0.021,-0.04,-4.57764e-05,-0.000442505,0,0,0,0,0,40.28,725.373,1956964
-0.00714111,-0.131836,1.02808,-2.2583,0.12207,-0.976562,0.004,-0.12,-0.02,-6.10352e-05,-0.000854492,0,0,0,0,0,40.28,725.393,1956994
-0.00823975,-0.0737305,1.00067,-4.45557,-0.427246,-0.183105,0.002,-0.06,-0.01,-6.10352e-05,-0.00123596,0,0,0,0,0,40.28,725.413,1957009
-0.0160522,-0.00170898,0.986816,-3.05176,-0.305176,-0.0610352,-0.005,0.012,-0.01,-6.10352e-05,-0.00164795,0,0,0,0,0,40.28,725.433,1957024
0.012085,-0.0552368,0.994263,3.72314,0.12207,0.488281,0.022,-0.042,-0.01,-6.10352e-05,-0.00167847,0,0,0,0,0,40.28,725.453,1957054
-0.0222778,-0.071228,1.04877,3.66211,0.488281,0.854492,-0.01,-0.057,-0.03,-4.57764e-05,-0.00177002,0,0,0,0,0,40.28,725.473,1957069
-0.0159912,-0.0649414,1.05194,1.46484,0.427246,0.0610352,-0.004,-0.051,-0.03,-3.05176e-05,-0.00195312,0,0,0,0,0,40.28,725.493,1957084
0.00390625,0.00299072,0.990723,-1.34277,0,-0.793457,0.015,0.016,-0.03,-3.05176e-05,-0.00233459,0,0,0,0,0,40.28,725.512,1957114
-0.0516968,0.0178223,1.08423,0,0.671387,-1.95312,-0.039,0.032,0,-4.57764e-05,-0.00248718,0,0,0,0,0,40.28,725.533,1957129
0.0202637,-0.101379,1.01373,-3.35693,-0.244141,-0.976562,0.031,-0.086,0.01,-7.62939e-05,-0.00268555,0,0,0,0,0,40.28,725.556,1957144
-0.00262451,-0.0175781,1.01959,0.0610352,-0.0610352,0.549316,0.009,-0.001,0.03,-7.62939e-05,-0.00292969,0,0,0,0,0,40.28,725.572,1957174
-0.00604248,-0.121521,1.03577,1.40381,0.183105,-0.12207,0.005,-0.105,0.02,-7.62939e-05,-0.00300598,0,0,0,0,0,40.28,725.592,1957189
-0.0126953,-0.0556641,0.956482,0.305176,0,0.427246,-0.001,-0.039,0.02,-7.62939e-05,-0.00317383,0,0,0,0,0,40.29,725.613,1957204
-0.00915527,-0.0349121,1.05682,2.0752,0.732422,-1.2207,0.002,-0.018,0.03,-7.62939e-05,-0.00335693,0,0,0,0,0,40.29,725.633,1957234
-0.0109253,-0.0512695,1.01288,0.976562,0.244141,-1.28174,0,-0.035,0.05,-7.62939e-05,-0.00340271,0,0,0,0,0,40.29,725.657,1957249
-0.0214844,-0.0162354,1.00958,0.183105,0.610352,-1.52588,-0.009,0,0.08,-7.62939e-05,-0.00346375,0,0,0,0,0,40.29,725.672,1957264
0.00292969,0.00170898,0.992432,0.610352,0.427246,-1.34277,0.014,0.017,0.1,-7.62939e-05,-0.00350952,0,0,0,0,0,40.29,725.695,1957294
-0.00769043,0.00177002,1.04767,0.793457,0.0610352,-0.915527,0.004,0.017,0.12,-7.62939e-05,-0.00350952,0,0,0,0,0,40.29,725.712,1957309
0.00524902,-0.0395508,1.05261,-0.549316,-0.183105,-0.488281,0.017,-0.023,0.13,-7.62939e-05,-0.00350952,0,0,0,0,0,40.29,725.732,1957324
0.0114746,0.0143433,0.999756,-3.66211,-0.305176,-0.0610352,0.024,0.032,0.15,-0.000106812,-0.00366211,0,0,0,0,0,40.29,725.753,1957354
-0.0402222,0.0578003,1.0022,-0.976562,1.40381,-0.366211,-0.027,0.075,0.15,-0.00012207,-0.00366211,0,0,0,0,0,40.29,725.772,1957369
0.0385742,-0.0276489,1.02386,1.64795,0.305176,-0.488281,0.051,-0.01,0.16,-0.00012207,-0.00363159,0,0,0,0,0,40.29,725.793,1957384
-0.00384521,-0.0384521,1.0213,-1.15967,0.549316,-1.34277,0.008,-0.018,0.19,-9.15527e-05,-0.00379944,0,0,0,0,0,40.29,725.814,1957414
0.041626,0.00366211,0.96167,-0.12207,0.732422,-1.28174,0.053,0.021,0.21,-4.57764e-05,-0.00392151,0,0,0,0,0,40.29,725.832,1957429
-0.0280151,-0.0978394,1.03802,2.0752,1.2207,-1.70898,-0.015,-0.078,0.23,1.52588e-05,-0.00408936,0,0,0,0,0,40.29,725.853,1957444
0.00238037,0.027771,0.927185,0.427246,0.12207,0.12207,0.014,0.044,0.24,0.000198364,-0.00439453,0,0,0,0,0,40.29,725.873,1957474
-0.0411987,0.0339355,0.972839,2.44141,0,0.366211,-0.027,0.051,0.24,0.000289917,-0.00447083,0,0,0,0,0,40.29,725.893,1957489
-0.00256348,-0.0247803,1.04199,0.610352,0.244141,0.549316,0.011,-0.007,0.23,0.00038147,-0.00450134,0,0,0,0,0,40.29,725.913,1957504
-0.050415,-0.0571899,1.05713,-5.43213,0.427246,0.549316,-0.035,-0.036,0.22,0.000457764,-0.004776,0,0,0,0,0,40.29,725.932,1957534
-0.003479,0.0159912,0.980896,-2.92969,-0.427246,0.0610352,0.01,0.035,0.21,0.000442505,-0.00494385,0,0,0,0,0,40.29,725.954,1957549
-0.0629883,0.0302124,0.984436,1.40381,-0.671387,-0.366211,-0.049,0.049,0.22,0.000411987,-0.00506592,0,0,0,0,0,40.29,725.973,1957564
-0.003479,-0.0435791,1.01965,-0.366211,0.305176,-0.793457,0.01,-0.022,0.23,0.000289917,-0.00537109,0,0,0,0,0,40.29,725.993,1957594
-0.00280762,-0.0447388,1.03229,0.976562,0.183105,-0.671387,0.01,-0.023,0.24,0.000289917,-0.00558472,0,0,0,0,0,40.29,726.013,1957609
0.015625,-0.0441895,0.991821,0,-0.244141,-0.976562,0.028,-0.024,0.25,0.000305176,-0.00582886,0,0,0,0,0,40.29,726.033,1957624
-0.0169067,0.0250854,1.03418,0,0.0610352,-0.915527,-0.002,0.046,0.28,0.00038147,-0.00643921,0,0,0,0,0,40.29,726.053,1957654
0.0314941,0.0183105,1.00409,-2.86865,-0.366211,-0.732422,0.045,0.038,0.3,0.000442505,-0.00666809,0,0,0,0,0,40.29,726.074,1957669
-0.0562134,-0.0124512,0.943054,-0.366211,0.671387,0.183105,-0.043,0.007,0.3,0.00050354,-0.00688171,0,0,0,0,0,40.29,726.093,1957684
-0.0319824,0.0864258,0.98053,0.976562,-0.976562,0.488281,-0.017,0.106,0.33,0.000534058,-0.00701904,0,0,0,0,0,40.27,726.113,1957714
-0.0505981,-0.0574951,1.04724,1.52588,0.854492,1.0376,-0.035,-0.036,0.31,0.00050354,-0.00697327,0,0,0,0,0,40.27,726.133,1957729
0.00213623,0.0368042,1.00446,0.793457,0.0610352,-0.0610352,0.016,0.055,0.31,0.000457764,-0.00691223,0,0,0,0,0,40.27,726.155,1957744
-0.0241699,0.0250244,1.01819,-0.183105,0.0610352,1.09863,-0.009,0.044,0.29,0.000305176,-0.00674438,0,0,0,0,0,40.27,726.173,1957774
-0.00866699,-0.000976562,0.958557,0.427246,-1.0376,-1.0376,0.004,0.016,0.29,0.000213623,-0.00662231,0,0,0,0,0,40.27,726.194,1957789
-0.0494995,-0.0609131,1.11542,-1.34277,0.12207,-0.671387,-0.035,-0.039,0.31,9.15527e-05,-0.00650024,0,0,0,0,0,40.27,726.213,1957804
-0.00738525,0.00146484,0.947327,-1.0376,-0.366211,-1.64795,0.005,0.019,0.31,-7.62939e-05,-0.00619507,0,0,0,0,0,40.27,726.233,1957835
-0.0682983,0.0609131,1.02441,1.09863,-0.488281,-1.2207,-0.054,0.08,0.34,-0.000183105,-0.00593567,0,0,0,0,0,40.27,726.254,1957850
-0.00683594,-0.0148926,1.09149,0.0610352,0.854492,-0.183105,0.007,0.005,0.34,-0.000320435,-0.00563049,0,0,0,0,0,40.27,726.273,1957865
-0.000915527,-0.0765381,1.07739,0,0.183105,-1.28174,0.012,-0.057,0.38,-0.000442505,-0.00505066,0,0,0,0,0,40.27,726.294,1957895
-0.000549316,0.0137329,1.00623,0,0.12207,0.0610352,0.012,0.032,0.38,-0.000442505,-0.00480652,0,0,0,0,0,40.27,726.313,1957910
-0.0129395,-0.0477295,0.97583,0.305176,0.244141,-1.28174,0,-0.03,0.39,-0.000442505,-0.00454712,0,0,0,0,0,40.27,726.334,1957925
0.0130615,0.0758057,1.005,0.488281,-1.15967,0.427246,0.026,0.093,0.41,-0.000488281,-0.00408936,0,0,0,0,0,40.27,726.355,1957955
-0.0405884,-0.0861816,0.975769,0.0610352,0.12207,-1.52588,-0.028,-0.069,0.43,-0.000518799,-0.00382996,0,0,0,0,0,40.27,726.374,1957970
-0.00323486,0.0970459,0.927368,1.52588,-1.28174,-0.427246,0.009,0.113,0.45,-0.000549316,-0.00354004,0,0,0,0,0,40.27,726.394,1957985
-0.0370483,0.0152588,0.964966,0.915527,-0.427246,-2.2583,-0.024,0.032,0.48,-0.000595093,-0.00268555,0,0,0,0,0,40.27,726.413,1958015
0.00732422,-0.0317993,1.02423,1.46484,-0.610352,-2.38037,0.02,-0.014,0.51,-0.000610352,-0.00221252,0,0,0,0,0,40.27,726.434,1958030
-0.0109863,-0.0241699,0.984009,0.366211,-0.244141,-1.46484,0,-0.008,0.55,-0.000640869,-0.00140381,0,0,0,0,0,40.27,726.458,1958060
0.000610352,0.0130615,0.9599,0.366211,-0.671387,-2.44141,0.012,0.028,0.58,-0.000640869,-0.00102234,0,0,0,0,0,40.27,726.477,1958075
-0.0209961,0.125549,1.03656,0.793457,-0.427246,-2.31934,-0.006,0.142,0.62,-0.000640869,-0.00050354,0,0,0,0,0,40.27,726.494,1958090
0.0356445,-0.00701904,0.96228,0.732422,-0.488281,-4.02832,0.047,0.006,0.71,-0.000595093,0.00088501,0,0,0,0,0,40.27,726.518,1958120
-0.022644,-0.00280762,1.00568,0.12207,-0.244141,-1.83105,-0.01,0.011,0.75,-0.000534058,0.00164795,0,0,0,0,0,40.27,726.535,1958135
-0.0140381,-0.0153809,1.04364,0.183105,0.610352,-0.671387,-0.001,0,0.76,-0.000473022,0.00164795,0,0,0,0,0,40.27,726.553,1958150
-0.0216064,0.00262451,0.964478,0,-0.732422,-1.58691,-0.009,0.016,0.78,-0.000473022,0.00164795,0,0,0,0,0,40.27,726.573,1958165
-0.0088501,-0.0422363,1.04211,-1.70898,0.305176,0.488281,0.003,-0.027,0.79,-0.000579834,0.00163269,0,0,0,0,0,40.27,726.598,1958195
-0.00854492,0.0740967,1.00452,-0.305176,-1.58691,-0.305176,0.005,0.088,0.79,-0.000640869,0.00164795,0,0,0,0,0,40.27,726.613,1958210
0.0274658,0.0618896,1.0011,0.488281,-1.09863,-1.46484,0.04,0.075,0.79,-0.000869751,0.00192261,0,0,0,0,0,40.28,726.654,1958255
0.00524902,-0.0770874,1.0528,-0.671387,0.0610352,-2.56348,0.016,-0.062,0.83,-0.00088501,0.00209045,0,0,0,0,0,40.28,726.673,1958270
0.0866699,-0.0551147,1.00781,-1.95312,0.488281,0.183105,0.097,-0.041,0.84,-0.000823975,0.00218201,0,0,0,0,0,40.28,726.693,1958285
-0.0118408,0.0612183,1.01233,-0.183105,0.0610352,-1.77002,0,0.076,0.9,-0.000595093,0.00250244,0,0,0,0,0,40.28,726.714,1958315
-0.0127563,-0.0911255,1.00732,-0.671387,0.488281,-0.366211,-0.002,-0.076,0.9,-0.000595093,0.00270081,0,0,0,0,0,40.28,726.735,1958330
-0.0795288,-0.0403442,1.05627,0.427246,0.183105,0.0610352,-0.067,-0.023,0.9,-0.000640869,0.00283813,0,0,0,0,0,40.28,726.753,1958345
-0.0234985,0.0360107,0.962219,0.427246,-0.671387,1.0376,-0.01,0.05,0.89,-0.000854492,0.00312805,0,0,0,0,0,40.28,726.773,1958375
-0.039917,-0.0159912,1.0639,0.671387,-0.854492,-1.2207,-0.027,0,0.89,-0.00100708,0.00334167,0,0,0,0,0,40.28,726.794,1958390
-0.0111694,-0.0722656,1.05731,-0.12207,-1.34277,-1.34277,0,-0.057,0.91,-0.00115967,0.00349426,0,0,0,0,0,40.28,726.814,1958405
0.0200806,0.0359497,1.00348,0.244141,0,-2.62451,0.032,0.049,0.96,-0.00143433,0.00386047,0,0,0,0,0,40.28,726.834,1958435
-0.00830078,0.0456543,1.02448,-0.610352,-0.427246,-3.84521,0.003,0.06,1,-0.00154114,0.00415039,0,0,0,0,0,40.28,726.852,1958450
-0.00561523,0.0187378,0.981262,-0.671387,0.915527,-1.77002,0.005,0.032,1.04,-0.00163269,0.00450134,0,0,0,0,0,40.28,726.873,1958465
-0.0388184,-0.10083,1.10187,-0.549316,0.671387,-3.479,-0.028,-0.084,1.12,-0.00172424,0.0052948,0,0,0,0,0,40.28,726.893,1958495
-0.022522,-0.0608521,1.00604,-0.427246,1.40381,-0.12207,-0.011,-0.045,1.13,-0.00178528,0.00558472,0,0,0,0,0,40.28,726.912,1958510
-0.0924072,-0.0953369,0.994873,-0.12207,-0.12207,-0.488281,-0.081,-0.078,1.14,-0.00204468,0.00613403,0,0,0,0,0,40.28,726.936,1958540
0.0198975,-0.13031,1.02533,-0.427246,0.244141,0,0.03,-0.114,1.14,-0.00222778,0.0062561,0,0,0,0,0,40.28,726.953,1958555
-0.00170898,0.0436401,1.04144,0.671387,0.915527,0.0610352,0.012,0.06,1.14,-0.00239563,0.00634766,0,0,0,0,0,40.28,726.974,1958570
0.00189209,-0.0749512,1.07141,-0.12207,-0.671387,-1.46484,0.014,-0.058,1.14,-0.00254822,0.00643921,0,0,0,0,0,40.28,726.994,1958585
-0.0117188,0.0319824,0.993164,0,0.610352,0.976562,0.001,0.047,1.14,-0.00254822,0.00630188,0,0,0,0,0,40.28,727.013,1958615
-0.0306396,0.0429688,1.01355,-2.13623,-0.976562,0.854492,-0.017,0.059,1.14,-0.00254822,0.00628662,0,0,0,0,0,40.28,727.032,1958630
0.0314331,0.26001,0.845703,0,-2.01416,0.671387,0.047,0.272,1.13,-0.00253296,0.00650024,0,0,0,0,0,40.28,727.052,1958645
0.0822144,0.230591,0.976929,-2.62451,-2.31934,0.366211,0.099,0.244,1.09,-0.00234985,0.00724792,0,0,0,0,0,40.28,727.073,1958675
0.043335,-0.0876465,0.973389,-2.31934,-1.77002,0.488281,0.053,-0.072,1.08,-0.00212097,0.00778198,0,0,0,0,0,40.28,727.093,1958690
0.0453491,0.0205688,0.998413,-1.2207,0.549316,1.28174,0.058,0.035,1.05,-0.0018158,0.00828552,0,0,0,0,0,40.28,727.112,1958705
-0.0628662,-0.0273438,1.00562,-1.58691,0.244141,0.244141,-0.051,-0.009,1.05,-0.00105286,0.00949097,0,0,0,0,0,40.28,727.133,1958735
0.0422974,-0.0203247,1.01416,-0.549316,-0.0610352,-0.305176,0.054,-0.004,1.05,-0.000656128,0.00949097,0,0,0,0,0,40.28,727.153,1958750
-0.0619507,-0.0299683,1.07465,-0.183105,0.183105,-1.46484,-0.049,-0.011,1.06,-0.000274658,0.00949097,0,0,0,0,0,40.28,727.173,1958766
0.0253296,-0.0869751,1.06689,-0.488281,0.0610352,-1.77002,0.036,-0.069,1.11,0.000396729,0.00946045,0,0,0,0,0,40.28,727.195,1958795
-0.0458374,0.0314331,1.04138,0.0610352,-0.427246,-3.17383,-0.032,0.05,1.14,0.000732422,0.00939941,0,0,0,0,0,40.28,727.213,1958810
0.0192261,-0.0820312,0.98938,0,-1.0376,-2.0752,0.029,-0.065,1.18,0.00106812,0.00932312,0,0,0,0,0,40.28,727.233,1958825
-0.0206299,-0.0102539,1.05927,-0.427246,-0.732422,-1.89209,-0.008,0.008,1.23,0.00177002,0.00909424,0,0,0,0,0,40.28,727.253,1958855
-0.026062,-0.0719604,0.978821,0.0610352,-1.09863,-0.732422,-0.016,-0.054,1.24,0.00177002,0.00895691,0,0,0,0,0,40.28,727.273,1958870
-0.0397339,0.00610352,0.980225,-0.183105,-0.976562,-0.427246,-0.028,0.023,1.25,0.0017395,0.00878906,0,0,0,0,0,40.28,727.296,1958885
0.00201416,-0.0462646,1.06287,-1.52588,-1.2207,0.366211,0.012,-0.027,1.27,0.00161743,0.00827026,0,0,0,0,0,40.28,727.313,1958915
-0.0459595,-0.0949707,0.9823,-1.09863,-0.305176,-0.183105,-0.037,-0.076,1.26,0.00154114,0.00790405,0,0,0,0,0,40.28,727.333,1958930
0.0142212,0.00665283,1.01813,-0.671387,-0.427246,-1.2207,0.025,0.024,1.28,0.00146484,0.00750732,0,0,0,0,0,40.28,727.353,1958945
-0.0177002,-0.0871582,1.05554,0.549316,0.0610352,-0.732422,-0.008,-0.068,1.29,0.00140381,0.00675964,0,0,0,0,0,40.28,727.373,1958975
-0.041748,-0.18396,1.08478,-0.671387,0.610352,-1.15967,-0.034,-0.164,1.31,0.00137329,0.00622559,0,0,0,0,0,40.28,727.399,1958990
0.0201416,0.0303345,0.932373,0,0,-0.244141,0.03,0.046,1.33,0.00134277,0.00561523,0,0,0,0,0,40.28,727.413,1959005
-0.0360107,0.00146484,1.0838,-0.854492,-0.488281,-0.671387,-0.024,0.021,1.33,0.0012207,0.0045166,0,0,0,0,0,40.28,727.435,1959035
-0.00177002,-0.0151367,0.947998,-0.732422,-0.915527,-0.0610352,0.007,0.002,1.33,0.00112915,0.00401306,0,0,0,0,0,40.28,727.459,1959050
-0.00817871,-0.0290527,1.00891,-0.0610352,-0.549316,0.12207,0.002,-0.01,1.32,0.00112915,0.00401306,0,0,0,0,0,40.28,727.473,1959065
-0.0574341,-0.171753,1.04224,1.83105,0.305176,-0.854492,-0.05,-0.151,1.34,0.0010376,0.00378418,0,0,0,0,0,40.28,727.501,1959095
-0.0488892,-0.205322,1.13843,1.2207,0.793457,-0.854492,-0.042,-0.183,1.35,0.00088501,0.00338745,0,0,0,0,0,40.28,727.513,1959110
-0.0198364,0.0134888,1.06067,-0.671387,0.12207,-1.95312,-0.008,0.032,1.38,0.000701904,0.00288391,0,0,0,0,0,40.28,727.533,1959125
-0.0186768,-0.0462646,1.08813,0.0610352,0.0610352,-1.64795,-0.009,-0.026,1.44,0.000518799,0.00192261,0,0,0,0,0,40.28,727.554,1959155
0.088562,-0.0259399,1.0528,-3.84521,0.183105,-1.64795,0.098,-0.009,1.47,0.000579834,0.00141907,0,0,0,0,0,40.28,727.577,1959170
-0.0194092,0.00335693,1.05969,2.0752,0.854492,-2.01416,-0.009,0.021,1.53,0.000854492,0.000869751,0,0,0,0,0,40.28,727.596,1959201
-0.0598145,-0.0569458,1.06891,0.488281,0.610352,-3.23486,-0.051,-0.037,1.57,0.000946045,0.000686646,0,0,0,0,0,40.28,727.613,1959215
-0.0237427,-0.0934448,0.997864,-0.976562,0.0610352,-1.46484,-0.016,-0.076,1.64,0.00109863,0.000366211,0,0,0,0,0,40.28,727.647,1959246
-0.0317993,0.0187988,0.994629,-1.70898,-0.12207,-1.95312,-0.021,0.036,1.66,0.00114441,0.000183105,0,0,0,0,0,40.28,727.664,1959261
0.0477295,0.135559,0.974548,-2.80762,-1.15967,-0.549316,0.061,0.15,1.68,0.0012207,0.000137329,0,0,0,0,0,40.28,727.674,1959276
-0.0498047,-0.0474854,1.03534,-0.610352,-0.366211,-0.488281,-0.041,-0.028,1.69,0.00131226,0.000167847,0,0,0,0,0,40.28,727.694,1959291
-0.0441895,-0.0551147,1.11853,-0.427246,-0.244141,-0.12207,-0.034,-0.034,1.68,0.00134277,0.000152588,0,0,0,0,0,40.28,727.714,1959306
-0.00622559,-0.00848389,1.01544,2.19727,-0.427246,-0.427246,0.002,0.008,1.69,0.00144958,0.00012207,0,0,0,0,0,40.28,727.733,1959336
-0.0446777,-0.0410156,1.05945,-0.244141,0.244141,-1.77002,-0.036,-0.021,1.71,0.00149536,0.000106812,0,0,0,0,0,40.28,727.753,1959351
0.0413208,-0.0168457,0.939087,-0.732422,-0.244141,-2.99072,0.049,-0.001,1.76,0.00154114,7.62939e-05,0,0,0,0,0,40.28,727.773,1959366
-0.0584106,-0.0358276,0.995667,-0.244141,0.305176,-1.95312,-0.05,-0.016,1.81,0.00175476,0.000198364,0,0,0,0,0,40.28,727.793,1959396
0.0254517,-0.000305176,0.945007,-0.610352,0.427246,-1.40381,0.034,0.015,1.83,0.00186157,0.000289917,0,0,0,0,0,40.28,727.813,1959411
0.019165,0.00115967,1.05536,1.64795,0.0610352,0.12207,0.029,0.019,1.83,0.0019989,0.000289917,0,0,0,0,0,40.28,727.833,1959426
0.0180664,0.0626221,0.93811,0.183105,-1.0376,0.488281,0.029,0.078,1.81,0.00224304,0.000259399,0,0,0,0,0,40.28,727.853,1959456
-0.0917358,-0.0979004,1.11829,1.52588,0.183105,0.305176,-0.084,-0.075,1.8,0.00233459,0.000244141,0,0,0,0,0,40.28,727.874,1959471
-0.0478516,0.0200195,1.0437,1.58691,-0.915527,-1.2207,-0.037,0.039,1.81,0.00231934,0.000213623,0,0,0,0,0,40.28,727.894,1959486
0.0114136,0.0321045,1.02032,-0.244141,-0.305176,-2.80762,0.021,0.048,1.88,0.00230408,3.05176e-05,0,0,0,0,0,40.28,727.914,1959516
-0.0467529,0.0341187,1.0556,-0.793457,-0.549316,-2.99072,-0.035,0.053,1.92,0.00228882,0,0,0,0,0,0,40.28,727.934,1959531
0.0484009,0.0244751,0.960632,0.366211,-0.183105,-3.72314,0.057,0.039,1.97,0.00228882,0,0,0,0,0,0,40.28,727.953,1959546
-0.0344849,0.0999146,1.00464,-0.793457,0.12207,-1.77002,-0.021,0.118,2.06,0.00234985,-3.05176e-05,0,0,0,0,0,40.28,727.973,1959576
-0.00537109,-0.0454102,0.953979,1.09863,1.2207,-3.96728,0.001,-0.029,2.11,0.00234985,0,0,0,0,0,0,40.28,727.994,1959591
-0.0102539,-0.105469,1.08673,-0.610352,1.2207,-2.0752,-0.004,-0.086,2.16,0.00236511,-3.05176e-05,0,0,0,0,0,40.28,728.013,1959606
0.0105591,0.0143433,0.949585,0.12207,1.40381,-2.44141,0.02,0.03,2.21,0.00222778,-0.000244141,0,0,0,0,0,40.28,728.033,1959636
-0.0911255,-0.164795,1.06873,0.488281,1.0376,-1.2207,-0.086,-0.142,2.24,0.00209045,-0.000442505,0,0,0,0,0,40.28,728.054,1959651
-0.0626831,-0.0823975,0.978271,0.671387,0.305176,0.12207,-0.055,-0.062,2.24,0.00186157,-0.000762939,0,0,0,0,0,40.28,728.075,1959666
-0.0505371,-0.116089,1.09668,0.976562,0,0.915527,-0.043,-0.095,2.25,0.00119019,-0.00166321,0,0,0,0,0,40.28,728.092,1959696
-0.0413818,-0.00500488,1.00446,-0.610352,-0.549316,0.610352,-0.03,0.014,2.23,0.000762939,-0.00221252,0,0,0,0,0,40.28,728.114,1959711
-0.00848389,-0.0078125,0.94458,-0.610352,-0.671387,-0.244141,0.001,0.009,2.24,0.000335693,-0.00221252,0,0,0,0,0,40.28,728.132,1959726
-0.0526123,-0.0479736,1.01013,-2.31934,0.549316,-0.305176,-0.043,-0.027,2.24,-0.000396729,-0.00210571,0,0,0,0,0,40.26,728.152,1959756
0.0172119,-0.0217896,0.995361,0.915527,0.671387,-0.793457,0.026,-0.004,2.25,-0.000778198,-0.00205994,0,0,0,0,0,40.26,728.172,1959771
-0.0423584,0.00378418,1.12183,1.09863,0.183105,-0.488281,-0.03,0.025,2.26,-0.00115967,-0.0019989,0,0,0,0,0,40.26,728.193,1959786
0.00738525,-0.0348511,0.945618,0.488281,0.549316,-1.0376,0.016,-0.017,2.28,-0.00204468,-0.00186157,0,0,0,0,0,40.26,728.216,1959816
-0.0332031,0.0149536,1.01178,-0.732422,-0.488281,-0.366211,-0.021,0.034,2.29,-0.00250244,-0.00178528,0,0,0,0,0,40.26,728.232,1959831
0.0123291,-0.0272827,0.977173,-2.2583,-0.183105,-0.427246,0.021,-0.009,2.29,-0.00296021,-0.00167847,0,0,0,0,0,40.26,728.254,1959846
-0.0408325,0.0658569,1.05585,0.12207,-0.244141,-0.488281,-0.026,0.088,2.33,-0.00384521,-0.00149536,0,0,0,0,0,40.26,728.272,1959876
-0.0135498,0.085022,1.00696,0.244141,-0.549316,-0.0610352,0.001,0.105,2.33,-0.00431824,-0.00123596,0,0,0,0,0,40.26,728.292,1959891
-0.0126953,-0.0654907,0.967285,1.0376,-0.549316,-1.40381,-0.004,-0.046,2.34,-0.004776,-0.000946045,0,0,0,0,0,40.26,728.312,1959906
-0.00128174,0.216125,0.964966,3.23486,-1.64795,-0.915527,0.018,0.234,2.35,-0.004776,-0.000305176,0,0,0,0,0,40.26,728.333,1959936
-0.0134277,-0.189026,0.981506,-0.610352,-0.976562,-0.793457,-0.011,-0.17,2.36,-0.004776,0.00012207,0,0,0,0,0,40.26,728.353,1959951
0.0397339,0.0178223,1.10596,-0.0610352,-0.793457,-1.70898,0.051,0.036,2.38,-0.00476074,0.000473022,0,0,0,0,0,40.26,728.373,1959966
0.0174561,-0.10614,0.931885,-0.366211,-0.854492,-1.83105,0.021,-0.089,2.42,-0.00448608,0.00141907,0,0,0,0,0,40.26,728.392,1959996
-0.043335,0.0256958,1.10052,-0.183105,1.34277,-1.64795,-0.031,0.048,2.44,-0.00431824,0.00186157,0,0,0,0,0,40.26,728.412,1960011
-0.00292969,0.0759888,0.984375,0.976562,0.854492,-1.52588,0.009,0.094,2.46,-0.00418091,0.00241089,0,0,0,0,0,40.26,728.433,1960026
-0.11377,-0.065918,1.1236,-0.12207,1.52588,-0.488281,-0.105,-0.039,2.5,-0.0042572,0.00340271,0,0,0,0,0,40.26,728.453,1960056
-0.0211182,-0.114685,1.00543,0.488281,1.09863,-0.183105,-0.015,-0.094,2.5,-0.00442505,0.00375366,0,0,0,0,0,40.26,728.472,1960071
0.00292969,-0.197083,1.07324,0.366211,0.305176,-0.732422,0.004,-0.176,2.51,-0.0045929,0.00392151,0,0,0,0,0,40.26,728.492,1960086
-0.0067749,0.09729,0.999207,0.366211,-0.854492,-0.427246,0.007,0.117,2.5,-0.0045929,0.00395203,0,0,0,0,0,40.26,728.513,1960116
-0.0707397,-0.227722,1.04608,0.915527,-0.366211,-0.366211,-0.07,-0.204,2.51,-0.00462341,0.00392151,0,0,0,0,0,40.26,728.533,1960131
-0.104736,-0.285828,1.1488,0,1.64795,0.244141,-0.106,-0.259,2.51,-0.00479126,0.00357056,0,0,0,0,0,40.26,728.553,1960146
0.0306396,0.0596313,0.935364,0.244141,-1.58691,-0.976562,0.042,0.076,2.55,-0.00521851,0.00260925,0,0,0,0,0,40.26,728.573,1960176
-0.0249634,0.0587158,1.04938,0.427246,-0.244141,-0.793457,-0.012,0.08,2.57,-0.00540161,0.00227356,0,0,0,0,0,40.26,728.593,1960191
-0.00305176,-0.00952148,0.999695,0.366211,0,-2.13623,0.005,0.009,2.59,-0.00558472,0.0019989,0,0,0,0,0,40.26,728.613,1960206
-0.0529175,0.00726318,1.0863,1.28174,1.40381,-1.64795,-0.042,0.03,2.63,-0.00593567,0.00131226,0,0,0,0,0,40.26,728.633,1960236
-0.0177002,-0.0343018,1.01959,1.09863,0.671387,-1.70898,-0.009,-0.014,2.65,-0.00614929,0.000946045,0,0,0,0,0,40.26,728.654,1960251
-0.0531616,-0.0264893,1.02264,2.50244,0.488281,-2.38037,-0.044,-0.005,2.68,-0.00639343,0.000946045,0,0,0,0,0,40.26,728.673,1960266
0.000610352,0.0275879,0.958984,0.183105,-0.549316,-2.62451,0.011,0.044,2.74,-0.00689697,0.000915527,0,0,0,0,0,40.26,728.696,1960296
-0.0136719,-0.0408325,0.991272,-1.52588,0.244141,-2.74658,-0.006,-0.022,2.79,-0.00689697,0.000930786,0,0,0,0,0,40.26,728.713,1960311
0.00811768,0.1203,0.962341,-1.40381,-0.976562,-1.64795,0.023,0.137,2.81,-0.00688171,0.00102234,0,0,0,0,0,40.26,728.733,1960326
0.0169067,0.0282593,1.04437,-0.0610352,-0.671387,-1.95312,0.028,0.046,2.88,-0.00694275,0.00134277,0,0,0,0,0,40.26,728.753,1960356
0.0299683,0.053772,0.928284,-0.183105,-1.2207,-0.183105,0.041,0.068,2.89,-0.00694275,0.00158691,0,0,0,0,0,40.26,728.772,1960371
-0.0307007,-0.0353394,0.954407,0.610352,-0.366211,-1.70898,-0.023,-0.016,2.91,-0.00692749,0.00187683,0,0,0,0,0,40.26,728.793,1960386
0.00439453,0.083313,0.968018,0,0.366211,-0.854492,0.017,0.1,2.95,-0.00689697,0.00245667,0,0,0,0,0,40.26,728.813,1960416
-0.00762939,-0.0919189,1.04541,-0.366211,0.0610352,-2.44141,-0.002,-0.072,2.98,-0.00689697,0.00279236,0,0,0,0,0,40.26,728.834,1960431
-0.0299683,0.00585938,1.08441,0.610352,0.976562,-1.0376,-0.019,0.027,3,-0.00689697,0.00309753,0,0,0,0,0,40.26,728.853,1960446
-0.0187988,-0.0740356,0.951965,0.488281,0.0610352,-0.488281,-0.013,-0.056,3.02,-0.00689697,0.00370789,0,0,0,0,0,40.26,728.873,1960476
0.0267944,0.069458,1.03638,0.427246,-1.34277,0.244141,0.04,0.086,3.02,-0.00686646,0.0039978,0,0,0,0,0,40.26,728.893,1960491
-0.0460205,0.0273438,0.991211,0.732422,-0.12207,0.305176,-0.034,0.047,3.01,-0.0068512,0.00439453,0,0,0,0,0,40.26,728.913,1960506
-0.00915527,0.0541992,1.06372,0.0610352,0.183105,0.610352,0.004,0.073,3.02,-0.00692749,0.00508118,0,0,0,0,0,40.26,728.935,1960536
0.0687256,0.0877686,0.931885,-0.427246,-0.976562,-1.0376,0.082,0.1,3.02,-0.00691223,0.00552368,0,0,0,0,0,40.26,728.952,1960551
-0.0172729,-0.0454102,1.01349,0.12207,-0.976562,-2.68555,-0.01,-0.026,3.05,-0.00686646,0.00602722,0,0,0,0,0,40.26,728.972,1960566
0.0020752,0.00683594,0.93396,-0.427246,0.366211,-2.62451,0.011,0.022,3.1,-0.00663757,0.00712585,0,0,0,0,0,40.26,728.993,1960596
-0.0210571,0.190491,0.942627,1.28174,-0.244141,-4.08936,-0.001,0.207,3.16,-0.00648499,0.00785828,0,0,0,0,0,40.26,729.013,1960611
-0.00921631,-0.0300293,0.995667,0.244141,1.15967,-3.05176,-0.001,-0.012,3.2,-0.00611877,0.0096283,0,0,0,0,0,40.26,729.039,1960642
-0.0146484,-0.0582275,1.05072,-0.183105,0.915527,-2.01416,-0.007,-0.039,3.24,-0.00592041,0.0104675,0,0,0,0,0,40.26,729.053,1960657
0.0288086,0.0310669,0.973022,-0.488281,1.64795,-1.2207,0.04,0.046,3.25,-0.00570679,0.011322,0,0,0,0,0,40.26,729.073,1960672
-0.0245972,0.0167236,0.983826,0.915527,0.305176,-1.52588,-0.013,0.035,3.27,-0.00546265,0.0122223,0,0,0,0,0,40.26,729.093,1960687
0.0498657,0.101929,0.981323,-0.305176,0.427246,0.976562,0.066,0.115,3.28,-0.00498962,0.0141296,0,0,0,0,0,40.26,729.113,1960717
-0.0170898,-0.0224609,0.988647,0.244141,-0.793457,-0.976562,-0.007,-0.004,3.28,-0.00469971,0.0151978,0,0,0,0,0,40.26,729.133,1960732
0.0366211,0.0307617,1.03925,-1.89209,-0.976562,0.976562,0.05,0.046,3.28,-0.00437927,0.0162811,0,0,0,0,0,40.26,729.154,1960747
-0.0374756,0.0215454,1.05823,-0.671387,-0.854492,-0.427246,-0.024,0.042,3.26,-0.00370789,0.018631,0,0,0,0,0,40.28,729.173,1960777
-0.0477905,0.0160522,1.01019,-0.366211,0,0.854492,-0.035,0.036,3.26,-0.00343323,0.0198822,0,0,0,0,0,40.28,729.195,1960792
0.0185547,-0.0365601,0.987549,-0.976562,0.305176,0.427246,0.027,-0.019,3.25,-0.00315857,0.0211487,0,0,0,0,0,40.28,729.213,1960807
-0.0705566,-0.0613403,1.00415,0.366211,0.488281,0.305176,-0.062,-0.039,3.26,-0.00259399,0.0211182,0,0,0,0,0,40.28,729.233,1960837
0.0396729,-0.00286865,1.00879,-0.0610352,0.183105,-0.12207,0.05,0.013,3.26,-0.00234985,0.0210876,0,0,0,0,0,40.28,729.254,1960852
-0.0283203,-0.17395,1.0741,-0.793457,0.244141,-0.427246,-0.026,-0.152,3.26,-0.0020752,0.0209503,0,0,0,0,0,40.28,729.273,1960867
-0.0172729,-0.0421143,1.04681,-0.549316,0.549316,-0.12207,-0.008,-0.022,3.27,-0.0018158,0.0207062,0,0,0,0,0,40.28,729.295,1960882
-0.0172729,-0.0421143,1.04681,-0.549316,0.549316,-0.12207,-0.008,-0.022,3.27,-0.0018158,0.0207062,0,0,0,0,0,40.28,729.313,1960882
-0.0172729,-0.0421143,1.04681,-0.549316,0.549316,-0.12207,-0.008,-0.022,3.27,-0.0018158,0.0207062,0,0,0,0,0,40.28,729.333,1960882
-0.0293579,-0.0604248,0.988831,0,0.427246,-0.0610352,-0.021,-0.04,3.27,-0.00158691,0.020401,0,0,0,0,0,40.28,729.353,1960957
-0.041687,-0.0836182,1.01636,-0.671387,-0.366211,0.549316,-0.035,-0.062,3.29,-0.000839233,0.018631,0,0,0,0,0,40.28,729.375,1960972
0.019165,-0.0209961,0.977234,-0.915527,-1.28174,-0.366211,0.028,-0.004,3.28,-0.000808716,0.0182495,0,0,0,0,0,40.28,729.394,1960987
-0.0651245,-0.0878906,1.00775,0.549316,0.12207,-0.915527,-0.059,-0.065,3.31,-0.000793457,0.0176086,0,0,0,0,0,40.28,729.417,1961017
0.0667114,-0.0448608,1.034,-0.976562,-0.671387,-2.50244,0.074,-0.029,3.34,-0.000808716,0.0172272,0,0,0,0,0,40.28,729.434,1961032
0.00610352,0.0946655,0.94928,-1.15967,-1.09863,-1.09863,0.02,0.111,3.36,-0.000762939,0.0169067,0,0,0,0,0,40.28,729.453,1961047
-0.0665283,-0.0942993,1.02179,1.2207,0.793457,-3.84521,-0.062,-0.071,3.42,-0.000534058,0.0165558,0,0,0,0,0,40.28,729.474,1961077
-0.0373535,-0.0824585,1.0437,0.732422,1.09863,-1.09863,-0.032,-0.06,3.45,-0.000457764,0.0162811,0,0,0,0,0,40.28,729.493,1961092
0.000915527,-0.0239258,1.03278,-0.366211,1.40381,-1.0376,0.009,-0.003,3.45,-0.000411987,0.015976,0,0,0,0,0,40.28,729.513,1961107
-0.0297852,-0.0497437,1.02478,-0.488281,-0.183105,-0.732422,-0.022,-0.027,3.47,-0.00038147,0.0156403,0,0,0,0,0,40.28,729.533,1961122
-0.0281982,-0.0601196,1.01025,0.12207,0,0.244141,-0.021,-0.038,3.46,-0.000427246,0.0147858,0,0,0,0,0,40.28,729.553,1961152
-0.0692139,-0.0335083,1.01263,0.366211,-0.12207,-0.671387,-0.061,-0.009,3.47,-0.000518799,0.0142822,0,0,0,0,0,40.28,729.574,1961167
0.0285034,-0.00177002,0.975952,-0.427246,-1.64795,-2.19727,0.037,0.016,3.48,-0.000656128,0.0135193,0,0,0,0,0,40.28,729.593,1961197
0.0320435,0.0639038,1.04987,-0.427246,-1.28174,-2.01416,0.045,0.083,3.51,-0.00062561,0.0132446,0,0,0,0,0,40.28,729.613,1961212
-0.020813,0.0196533,1.02399,1.09863,0.671387,-2.01416,-0.01,0.041,3.52,-0.000549316,0.0126343,0,0,0,0,0,40.28,729.64,1961242
-0.000732422,0.0182495,0.995789,0.793457,-0.183105,-1.34277,0.009,0.038,3.55,-0.000549316,0.0123749,0,0,0,0,0,40.28,729.656,1961257
0.0667114,0.0275879,0.990723,-0.183105,-0.12207,0.305176,0.076,0.043,3.55,-0.000488281,0.0121613,0,0,0,0,0,40.28,729.674,1961272
-0.0217896,-0.0678101,0.938232,0.854492,-0.976562,-1.40381,-0.018,-0.047,3.57,-0.00038147,0.0119476,0,0,0,0,0,40.24,729.693,1961287
-0.0274048,-0.0255127,1.00769,0.915527,0.366211,0.427246,-0.02,-0.004,3.56,-0.000259399,0.0115204,0,0,0,0,0,40.24,729.712,1961317
-0.00158691,0.0150146,0.977905,0.244141,-0.732422,-1.46484,0.007,0.033,3.58,-0.000213623,0.0113373,0,0,0,0,0,40.24,729.732,1961332
-0.0293579,-0.0772705,0.981323,-1.52588,-0.366211,-0.427246,-0.025,-0.056,3.59,-0.000167847,0.0111389,0,0,0,0,0,40.24,729.756,1961347
-0.0819702,-0.108521,0.996765,-0.976562,-0.427246,-2.50244,-0.08,-0.084,3.64,-9.15527e-05,0.0108795,0,0,0,0,0,40.24,729.772,1961377
0.0758057,-0.0727539,1.05237,-0.732422,-0.915527,0.0610352,0.079,-0.057,3.65,-4.57764e-05,0.0106659,0,0,0,0,0,40.24,729.792,1961392
-0.0305176,-0.0643311,1.0072,-0.305176,0,-0.488281,-0.026,-0.043,3.65,0,0.0103912,0,0,0,0,0,40.24,729.812,1961407
-0.0175171,0.185913,1.03857,0.610352,-0.793457,-1.77002,0.003,0.206,3.68,6.10352e-05,0.0102234,0,0,0,0,0,40.24,729.832,1961422
0.0515747,-0.0198975,1.07471,-0.915527,0,-1.70898,0.058,-0.002,3.71,0.000228882,0.0102844,0,0,0,0,0,40.24,729.856,1961452
-0.0401611,0.0599976,0.97876,-0.732422,-0.0610352,-1.64795,-0.027,0.081,3.74,0.000366211,0.0103912,0,0,0,0,0,40.24,729.873,1961467
-0.0596313,-0.0764771,1.02026,-0.427246,0.12207,-2.38037,-0.055,-0.052,3.76,0.000686646,0.0110626,0,0,0,0,0,40.24,729.892,1961497
0.00952148,-0.0151367,0.975159,-1.70898,-0.366211,0,0.017,0.003,3.77,0.000823975,0.0113983,0,0,0,0,0,40.24,729.913,1961512
0.0103149,0.0114136,1.03906,-0.0610352,0.427246,-0.366211,0.02,0.031,3.77,0.000976562,0.0117645,0,0,0,0,0,40.24,729.933,1961527
0.0701904,0.0245972,0.978271,0.12207,-1.89209,-0.366211,0.081,0.039,3.78,0.001297,0.0128326,0,0,0,0,0,40.24,729.953,1961557
-0.00769043,-0.0213013,1.03253,0.610352,0.671387,-0.671387,0,-0.001,3.78,0.00152588,0.0134583,0,0,0,0,0,40.24,729.973,1961572
-0.024353,0.039917,0.968567,-0.305176,-1.95312,-0.793457,-0.013,0.059,3.79,0.00175476,0.0141144,0,0,0,0,0,40.24,729.993,1961587
-0.0505981,-0.100281,1.00867,0.366211,1.2207,-1.15967,-0.048,-0.077,3.83,0.00222778,0.0154419,0,0,0,0,0,40.24,730.013,1961617
0.03479,0.0185547,1.07147,-0.305176,-0.610352,-1.77002,0.045,0.037,3.85,0.00247192,0.0160522,0,0,0,0,0,40.24,730.032,1961632
0.0574951,-0.0770264,0.979309,-1.77002,1.28174,-0.12207,0.06,-0.061,3.86,0.00279236,0.0166321,0,0,0,0,0,40.24,730.052,1961647
-0.0214844,0.0116577,0.947021,-0.793457,0.183105,-1.70898,-0.012,0.031,3.89,0.0035553,0.0180817,0,0,0,0,0,40.24,730.073,1961677
0.0296631,-0.046875,1.0415,-0.12207,1.64795,-0.793457,0.036,-0.027,3.9,0.00396729,0.0188751,0,0,0,0,0,40.24,730.093,1961692
-0.132629,-0.236938,1.1402,0.793457,2.38037,-2.01416,-0.138,-0.205,3.92,0.00430298,0.019516,0,0,0,0,0,40.24,730.116,1961707
-0.0996094,-0.046875,1.08105,0.427246,0.12207,-0.488281,-0.091,-0.018,3.94,0.00505066,0.0205231,0,0,0,0,0,40.24,730.153,1961752
0.0145264,-0.074646,1.02246,-0.183105,-0.244141,0.854492,0.02,-0.055,3.94,0.00518799,0.020462,0,0,0,0,0,40.24,730.173,1961767
0.00836182,-0.253479,1.13452,-3.60107,-0.610352,0.793457,0.002,-0.232,3.91,0.00547791,0.0202332,0,0,0,0,0,40.26,730.193,1961797
-0.0160522,0.135071,0.931458,-0.549316,-0.12207,1.89209,0.002,0.154,3.89,0.00559998,0.0200043,0,0,0,0,0,40.26,730.213,1961812
0.00860596,0.14978,1.04211,-0.732422,-0.244141,1.52588,0.028,0.169,3.87,0.00575256,0.019989,0,0,0,0,0,40.26,730.233,1961827
-0.000549316,-0.102295,1.0047,-1.15967,0.610352,-0.12207,0.001,-0.081,3.87,0.00624084,0.0201416,0,0,0,0,0,40.26,730.253,1961857
-0.003479,0.0153809,1.04315,-1.15967,0.12207,-0.0610352,0.007,0.036,3.87,0.00624084,0.0201721,0,0,0,0,0,40.26,730.273,1961872
-0.00646973,-0.0304565,0.954651,-0.854492,0.183105,-0.854492,0,-0.01,3.88,0.00624084,0.0202026,0,0,0,0,0,40.26,730.293,1961887
0.00524902,0.0584106,1.0365,0.793457,-0.244141,-1.28174,0.019,0.079,3.9,0.00619507,0.0202026,0,0,0,0,0,40.26,730.313,1961917
0.0220337,-0.100098,0.973938,-1.09863,-0.427246,-0.488281,0.024,-0.081,3.91,0.00621033,0.0202179,0,0,0,0,0,40.26,730.333,1961932
-0.043457,-0.106262,0.932129,-0.427246,0.0610352,0.671387,-0.041,-0.083,3.91,0.00621033,0.0201111,0,0,0,0,0,40.26,730.354,1961947
-0.0543823,0.0522461,1.03699,0.671387,-0.610352,-0.0610352,-0.04,0.077,3.91,0.00614929,0.0200043,0,0,0,0,0,40.26,730.373,1961963
-0.0113525,-0.153015,1.15869,0,0.305176,1.83105,-0.009,-0.127,3.87,0.00584412,0.0196381,0,0,0,0,0,40.26,730.393,1961992
-0.0927734,-0.200928,1.22791,-0.671387,1.09863,0.12207,-0.094,-0.168,3.87,0.00559998,0.0191803,0,0,0,0,0,40.26,730.413,1962007
-0.00714111,0.0214233,1.01038,1.2207,-0.183105,-0.976562,0.003,0.043,3.87,0.00495911,0.0181732,0,0,0,0,0,40.26,730.433,1962037
0.0440063,-0.0476074,1.0434,-0.366211,-0.976562,-1.46484,0.05,-0.028,3.89,0.00468445,0.0177307,0,0,0,0,0,40.26,730.458,1962052
0.00622559,0.0314331,1.06989,-0.0610352,0.610352,-0.549316,0.017,0.054,3.91,0.00445557,0.0172882,0,0,0,0,0,40.26,730.473,1962067
0.00274658,0.0510864,0.878723,0.488281,-0.610352,-2.2583,0.013,0.069,3.97,0.00422668,0.0163574,0,0,0,0,0,40.26,730.494,1962098
-0.0192871,0.0356445,1.05286,1.15967,0.915527,-1.09863,-0.007,0.059,3.98,0.00422668,0.015976,0,0,0,0,0,40.26,730.513,1962113
-0.0319824,-0.0963745,1.08594,-0.427246,0.366211,-1.95312,-0.028,-0.071,4.01,0.00421143,0.0155945,0,0,0,0,0,40.26,730.534,1962128
-0.0142822,-0.0339966,0.9599,0.854492,0.183105,-0.610352,-0.007,-0.012,4.03,0.00416565,0.0151367,0,0,0,0,0,40.26,730.553,1962143
-0.00769043,0.00268555,1.133,2.2583,-0.427246,-0.793457,0.003,0.024,4.03,0.00395203,0.0143127,0,0,0,0,0,40.26,730.574,1962173
-0.0366821,-0.00646973,0.957581,4.94385,-0.976562,-0.244141,-0.028,0.012,4.03,0.00379944,0.0139465,0,0,0,0,0,40.26,730.595,1962188
-0.00866699,0.00408936,1.06104,5.18799,-0.305176,-2.38037,0,0.019,4.05,0.00350952,0.0133057,0,0,0,0,0,40.26,730.616,1962218
-0.0146484,-0.0413208,1.01849,3.84521,-1.28174,-1.40381,-0.009,-0.027,4.08,0.00350952,0.0130005,0,0,0,0,0,40.26,730.633,1962233
0.0223999,0.0540161,0.981628,4.15039,-0.854492,-0.671387,0.033,0.063,4.09,0.00352478,0.0127258,0,0,0,0,0,40.26,730.653,1962248
-0.0107422,-0.0244751,1.05225,2.74658,0.366211,-2.68555,-0.004,-0.013,4.16,0.00360107,0.0124817,0,0,0,0,0,40.26,730.676,1962278
0.0136719,-0.00537109,0.998474,1.34277,0.549316,-1.15967,0.02,0.003,4.18,0.00364685,0.0124817,0,0,0,0,0,40.26,730.692,1962293
0.022522,0.00390625,0.995483,0.305176,0.12207,-0.549316,0.03,0.011,4.19,0.00372314,0.0124817,0,0,0,0,0,40.25,730.713,1962308
-0.031311,-0.00183105,1.00104,0.976562,-0.366211,0.854492,-0.023,0.008,4.21,0.00386047,0.0124817,0,0,0,0,0,40.25,730.732,1962338
-0.0187378,0.010437,1.02557,1.28174,-0.12207,0.427246,-0.01,0.019,4.2,0.00387573,0.0124817,0,0,0,0,0,40.25,730.752,1962353
-0.0101318,0.0515137,0.98291,3.78418,-1.2207,-1.09863,0,0.057,4.22,0.00387573,0.0126801,0,0,0,0,0,40.25,730.789,1962383
0.00585938,0.0102539,1.05951,7.69043,-0.793457,-1.40381,0.013,0.011,4.24,0.00387573,0.0131378,0,0,0,0,0,40.25,730.814,1962413
0.0177002,-0.0294189,1.03192,7.32422,-0.0610352,-1.58691,0.021,-0.031,4.27,0.00390625,0.0133667,0,0,0,0,0,40.25,730.832,1962428
-0.0177612,0.00909424,0.96991,6.22559,-0.671387,-0.549316,-0.011,0.008,4.28,0.00393677,0.0135803,0,0,0,0,0,40.25,730.853,1962443
-0.0169678,-0.00689697,1.06946,6.95801,0.305176,-1.52588,-0.011,-0.011,4.32,0.00401306,0.0140991,0,0,0,0,0,40.25,730.873,1962473
0.0115356,-0.0601196,1.01428,5.12695,0,-0.915527,0.012,-0.067,4.34,0.00405884,0.0142975,0,0,0,0,0,40.25,730.894,1962488
-0.0136719,-0.003479,0.983765,3.66211,0.366211,-1.77002,-0.008,-0.011,4.38,0.00405884,0.0146484,0,0,0,0,0,40.25,730.914,1962518
0.0358276,0.0953979,1.10736,4.3335,0.915527,-2.31934,0.048,0.081,4.42,0.00408936,0.0148621,0,0,0,0,0,40.25,730.934,1962533
-0.0153198,-0.0303345,1.02209,3.96728,-0.0610352,-1.52588,-0.012,-0.04,4.44,0.00413513,0.0151215,0,0,0,0,0,40.25,730.953,1962548
-0.00866699,0.161682,1.03723,5.98144,0.305176,1.34277,0.009,0.144,4.45,0.00419617,0.0159607,0,0,0,0,0,40.25,730.973,1962578
0.0125732,-0.0645142,1.06506,4.57764,0.732422,1.52588,0.012,-0.084,4.43,0.00419617,0.0165253,0,0,0,0,0,40.25,730.993,1962593
-0.0817871,0.0377197,0.896179,-0.183105,-0.366211,1.2207,-0.074,0.027,4.41,0.00415039,0.0170593,0,0,0,0,0,40.25,731.013,1962608
0.0292969,0.0514526,0.956909,-5.43213,0,0.793457,0.037,0.031,4.39,0.00408936,0.0176086,0,0,0,0,0,40.25,731.033,1962623
-0.0216675,0.0812378,1.06842,-4.88281,-0.976562,-0.366211,-0.01,0.065,4.41,0.00404358,0.0190125,0,0,0,0,0,40.25,731.053,1962653
-0.0179443,0.0203857,0.950317,-3.2959,-1.09863,-0.671387,-0.011,0.006,4.41,0.00404358,0.0198212,0,0,0,0,0,40.25,731.073,1962668
0.0151978,0.0472412,0.980042,-1.52588,-0.549316,-1.0376,0.023,0.03,4.43,0.00405884,0.0206451,0,0,0,0,0,40.25,731.093,1962683
-0.0196533,0.0164795,1.0343,-0.427246,-0.305176,-0.427246,-0.013,0.002,4.46,0.00408936,0.0223236,0,0,0,0,0,40.25,731.113,1962713
0.00482178,-0.0691528,0.996338,-2.56348,0.12207,0.12207,0.004,-0.083,4.46,0.00408936,0.0230865,0,0,0,0,0,40.25,731.134,1962728
-0.000183105,-0.0012207,0.985657,-4.08936,0.244141,-0.915527,0.004,-0.013,4.46,0.00408936,0.0238037,0,0,0,0,0,40.25,731.152,1962743
-0.0153809,0.0269165,0.981262,-5.79834,0.0610352,-0.610352,-0.008,0.018,4.48,0.00408936,0.0244904,0,0,0,0,0,40.25,731.172,1962773
0.00732422,-0.00238037,1.01752,-5.67627,0.0610352,-1.15967,0.012,-0.011,4.49,0.00408936,0.0244904,0,0,0,0,0,40.25,731.192,1962788
0.00823975,0.0180664,1.04175,-5.31006,0.0610352,-0.0610352,0.015,0.012,4.5,0.0040741,0.0244904,0,0,0,0,0,40.27,731.212,1962818
-0.00274658,0.0305176,1.00098,-4.63867,0,-0.0610352,0.005,0.026,4.5,0.00405884,0.0245209,0,0,0,0,0,40.27,731.232,1962833
-0.00445557,0.151428,0.987366,0.244141,-0.305176,-0.305176,0.013,0.146,4.5,0.00405884,0.0246582,0,0,0,0,0,40.27,731.252,1962848
0.00299072,0.0206299,0.993835,3.35693,-0.549316,-1.34277,0.01,0.013,4.52,0.00405884,0.0250092,0,0,0,0,0,40.27,731.273,1962878
-0.0205078,-0.059021,1.0047,2.0752,-0.183105,-0.366211,-0.019,-0.064,4.53,0.00405884,0.0251465,0,0,0,0,0,40.27,731.292,1962893
0.00231934,0.0593262,1.00604,1.58691,-0.12207,-1.15967,0.012,0.051,4.55,0.00405884,0.0252533,0,0,0,0,0,40.27,731.313,1962908
-0.00439453,-0.0460205,1.00989,0.854492,-0.0610352,0,-0.002,-0.053,4.56,0.00405884,0.0254822,0,0,0,0,0,40.27,731.333,1962938
-0.0135498,-0.039978,0.998169,-1.46484,-0.183105,0,-0.011,-0.046,4.56,0.00405884,0.0254974,0,0,0,0,0,40.27,731.353,1962953
-0.0020752,0.00463867,1.01727,-2.99072,0.244141,0.549316,0.003,-0.001,4.55,0.00405884,0.0254822,0,0,0,0,0,40.27,731.373,1962968
0.00189209,0.00915527,1.03448,-2.86865,0.244141,0.549316,0.008,0.003,4.55,0.00405884,0.0254822,0,0,0,0,0,40.27,731.392,1962984
-0.00964355,0.0178833,0.985352,-1.77002,0.12207,-0.244141,-0.002,0.014,4.55,0.00405884,0.0254822,0,0,0,0,0,40.27,731.413,1963013
-0.0123291,0.0117798,1.0144,-1.46484,0,-0.305176,-0.005,0.008,4.55,0.00405884,0.0254822,0,0,0,0,0,40.27,731.433,1963028
-0.0199585,0.0223389,1.02692,-0.366211,0,-0.549316,-0.011,0.019,4.55,0.00405884,0.0254822,0,0,0,0,0,40.27,731.453,1963044
-0.00897217,0.0567017,1.01611,2.01416,-0.366211,-0.732422,0.001,0.051,4.57,0.00405884,0.0256042,0,0,0,0,0,40.27,731.473,1963073
-0.0129395,0.0367432,1.03351,4.39453,-0.488281,-0.732422,-0.004,0.03,4.58,0.00405884,0.0257416,0,0,0,0,0,40.27,731.495,1963088
0.00280762,0.0292969,1.02637,5.67627,-0.183105,-0.976562,0.01,0.02,4.59,0.00405884,0.0259247,0,0,0,0,0,40.27,731.512,1963104
-0.000976562,0.0682373,1.00336,5.18799,-0.244141,-0.12207,0.009,0.056,4.58,0.00405884,0.0262451,0,0,0,0,0,40.27,731.533,1963133
-0.00921631,-0.0321045,1.02991,5.92041,0.12207,0.427246,-0.006,-0.044,4.58,0.00405884,0.026413,0,0,0,0,0,40.27,731.553,1963148
-0.000915527,0.0130615,1.0155,4.94385,-0.12207,1.2207,0.004,-0.001,4.57,0.00405884,0.0265656,0,0,0,0,0,40.27,731.573,1963164
-0.00262451,0.0187988,1.02753,4.39453,-0.0610352,0.549316,0.003,0.002,4.55,0.00405884,0.0267029,0,0,0,0,0,40.27,731.597,1963193
-0.0114136,-0.0162964,1.00146,3.17383,-0.305176,0,-0.008,-0.032,4.55,0.00405884,0.0266724,0,0,0,0,0,40.27,731.612,1963208
-0.0222778,0.0158691,0.99823,0.610352,-0.12207,-0.183105,-0.016,-0.001,4.55,0.00405884,0.0266571,0,0,0,0,0,40.27,731.634,1963238
0.00708008,0.0322876,1.01886,-0.732422,-0.183105,0.0610352,0.014,0.012,4.55,0.00405884,0.0266571,0,0,0,0,0,40.27,731.653,1963253
-0.0241699,0.0447388,1.00763,-1.64795,0,0.427246,-0.016,0.027,4.55,0.00405884,0.0266724,0,0,0,0,0,40.27,731.673,1963268
0.000366211,0.034729,1.01385,-1.89209,-0.183105,0.549316,0.007,0.015,4.54,0.00405884,0.0267334,0,0,0,0,0,40.27,731.693,1963284
-0.0098877,0.010376,1.02118,-0.915527,-0.183105,-0.366211,-0.004,-0.007,4.54,0.00405884,0.0269318,0,0,0,0,0,40.27,731.713,1963313
-0.00805664,0.015564,1.0058,-0.793457,-0.183105,-0.671387,-0.002,-0.001,4.55,0.00405884,0.0270233,0,0,0,0,0,40.26,731.733,1963328
-0.00549316,0.0120239,1.02014,-0.610352,0.0610352,-0.915527,0,-0.005,4.56,0.00405884,0.0270233,0,0,0,0,0,40.26,731.753,1963344
-0.00842285,-0.0355835,1.00891,-1.70898,0.0610352,-0.610352,-0.006,-0.051,4.59,0.00405884,0.0269775,0,0,0,0,0,40.26,731.773,1963373
-0.00445557,-0.00775146,1.01221,-2.86865,-0.0610352,0,0,-0.023,4.59,0.00405884,0.026886,0,0,0,0,0,40.26,731.793,1963388
-0.00549316,0.0199585,1.01282,-3.23486,0,0.183105,0,0.005,4.59,0.00405884,0.0267792,0,0,0,0,0,40.26,731.812,1963404
-0.00396729,-0.00964355,1.0202,-2.56348,0.0610352,0.488281,0,-0.023,4.57,0.00405884,0.0267639,0,0,0,0,0,40.26,731.833,1963433
-0.00488281,-0.0057373,1.01819,-2.68555,0,0.305176,0,-0.018,4.57,0.00405884,0.0267334,0,0,0,0,0,40.26,731.855,1963448
-0.00476074,0.0032959,1.01166,-3.05176,0.0610352,0.244141,0,-0.008,4.56,0.00405884,0.0266724,0,0,0,0,0,40.26,731.872,1963464
-0.00769043,-0.000183105,1.01831,-2.92969,0.0610352,-0.0610352,-0.002,-0.009,4.56,0.00405884,0.0266724,0,0,0,0,0,40.26,731.893,1963493
-0.00579834,-0.00872803,1.01648,-3.35693,0,-0.0610352,-0.001,-0.017,4.56,0.00405884,0.0266724,0,0,0,0,0,40.26,731.913,1963508
-0.00317383,0.00299072,1.01874,-3.66211,-0.12207,-0.12207,0.002,-0.004,4.56,0.00405884,0.0266724,0,0,0,0,0,40.26,731.933,1963539
-0.00524902,0.00195312,1.0163,-3.66211,0.0610352,-0.0610352,0,-0.003,4.56,0.00405884,0.0266724,0,0,0,0,0,40.26,731.954,1963554
-0.00750732,0,1.00934,-4.15039,0,0,-0.001,-0.004,4.56,0.00405884,0.0266724,0,0,0,0,0,40.26,731.973,1963569
-0.00506592,0.00244141,1.01447,-4.57764,0.12207,0,0.001,0,4.55,0.00405884,0.0266724,0,0,0,0,0,40.26,731.994,1963599
-0.00848389,-0.00292969,1.0177,-4.76074,0,0,-0.002,-0.003,4.55,0.00405884,0.0266724,0,0,0,0,0,40.26,732.013,1963614
-0.00140381,-0.00305176,1.01294,-5.06592,-0.0610352,0,0.004,-0.002,4.55,0.00405884,0.0266724,0,0,0,0,0,40.26,732.033,1963629
-0.00592041,-0.00299072,1.00983,-5.43213,0.183105,0,0,-0.001,4.55,0.00405884,0.0266724,0,0,0,0,0,40.26,732.053,1963644
0.000305176,-0.06427,1.00092,-3.05176,-0.12207,-0.0610352,0.001,-0.06,4.54,0.00405884,0.0266418,0,0,0,0,0,40.26,732.073,1963674
-0.0153198,-0.0787354,0.972168,-1.40381,0.366211,0.183105,-0.014,-0.072,4.54,0.00405884,0.026535,0,0,0,0,0,40.26,732.093,1963689
-0.00720215,-0.0333252,1.00299,0.732422,0.0610352,0.427246,-0.002,-0.026,4.54,0.00405884,0.0260315,0,0,0,0,0,40.26,732.114,1963719
-0.00402832,-0.043396,0.995056,1.95312,0,-0.0610352,0,-0.036,4.54,0.00405884,0.0257111,0,0,0,0,0,40.26,732.132,1963734
0.0128784,-0.034668,1.01556,2.56348,0.183105,0.183105,0.017,-0.029,4.54,0.00405884,0.0253448,0,0,0,0,0,40.26,732.153,1963749
0.0120239,-0.0088501,1.04413,2.31934,0.305176,2.86865,0.018,-0.003,4.49,0.00405884,0.0245209,0,0,0,0,0,40.26,732.173,1963779
-0.00201416,-0.000549316,1.02051,2.50244,-0.183105,5.24902,0.004,0.004,4.42,0.00405884,0.0240936,0,0,0,0,0,40.26,732.193,1963794
-0.0326538,-0.0010376,0.990906,2.99072,-0.183105,5.85937,-0.025,0.005,4.33,0.00405884,0.0240936,0,0,0,0,0,40.26,732.212,1963809
-0.0065918,-0.0214844,1.01636,1.46484,-0.0610352,5.67627,-0.001,-0.017,4.24,0.00401306,0.0240936,0,0,0,0,0,40.26,732.232,1963824
-0.0187378,-0.0450439,1.02496,1.0376,-0.244141,7.75146,-0.014,-0.04,4.06,0.00398254,0.0240784,0,0,0,0,0,40.24,732.253,1963854
0.0100708,-0.003479,1.00726,1.2207,-0.732422,13.916,0.016,-0.001,3.88,0.00398254,0.0240326,0,0,0,0,0,40.24,732.272,1963869
-0.0155029,-0.0180054,1.01471,1.15967,-0.366211,15.686,-0.01,-0.014,3.65,0.00398254,0.0239716,0,0,0,0,0,40.24,732.293,1963884
0.00543213,-0.0045166,1.01758,-0.0610352,-0.549316,20.2026,0.011,-0.002,3.1,0.00398254,0.0239716,0,0,0,0,0,40.24,732.313,1963914
-0.00518799,0.00537109,1.00995,-0.183105,-0.427246,20.5078,0.001,0.008,2.8,0.00398254,0.0239716,0,0,0,0,0,40.24,732.332,1963929
-0.0090332,-0.0188599,1.02051,-0.732422,-0.366211,21.2402,-0.003,-0.015,2.48,0.00398254,0.0239716,0,0,0,0,0,40.24,732.353,1963944
-0.000671387,0.0088501,1.01587,-0.427246,-0.0610352,22.7051,0.005,0.011,1.8,0.00398254,0.0240173,0,0,0,0,0,40.24,732.372,1963974
-0.00323486,0.00543213,1.01306,-0.549316,-0.183105,22.4609,0.002,0.008,1.47,0.00398254,0.0240631,0,0,0,0,0,40.24,732.392,1963989
-0.0159912,-0.0117798,1.01971,-1.2207,-0.305176,21.3623,-0.01,-0.008,0.82,0.00398254,0.0240631,0,0,0,0,0,40.24,732.416,1964019
-0.0161743,-0.00756836,1.0141,-1.77002,-0.793457,23.2544,-0.01,-0.003,0.48,0.00398254,0.0240631,0,0,0,0,0,40.24,732.432,1964034
-0.0166016,-0.0151978,1.00775,-2.50244,-0.976562,24.353,-0.01,-0.01,0.12,0.00398254,0.0240631,0,0,0,0,0,40.24,732.454,1964049
-0.0245972,-0.0142822,1.0072,-3.17383,-1.09863,24.353,-0.018,-0.009,-0.24,0.00398254,0.0240631,0,0,0,0,0,40.24,732.473,1964064
0.00506592,-0.0652466,1.07117,-3.05176,-1.89209,32.8369,0.012,-0.056,-1.11,0.00398254,0.023941,0,0,0,0,0,40.24,732.492,1964094
-0.0122681,-0.0456543,1.0321,-2.0752,-1.2207,33.8745,-0.006,-0.037,-1.62,0.00398254,0.0237885,0,0,0,0,0,40.24,732.512,1964109
-0.0164795,-0.0316772,0.96875,-0.793457,-1.34277,35.7666,-0.011,-0.023,-2.14,0.00398254,0.0235901,0,0,0,0,0,40.24,732.532,1964124
-0.0160522,-0.003479,1.03998,1.15967,-0.0610352,36.0718,-0.011,0.004,-3.24,0.00398254,0.022995,0,0,0,0,0,40.24,732.555,1964154
-0.0234375,-0.024231,0.966431,0.366211,-0.915527,36.0107,-0.018,-0.017,-3.78,0.00398254,0.0226593,0,0,0,0,0,40.24,732.573,1964169
0.0189819,-0.0110474,1.01038,0.244141,-1.15967,36.7432,0.023,0,-4.33,0.00398254,0.0226593,0,0,0,0,0,40.24,732.593,1964184
-0.0449829,-0.0339355,1.00159,-1.28174,-1.15967,35.4004,-0.038,-0.028,-5.41,0.00401306,0.0225983,0,0,0,0,0,40.24,732.613,1964214
0.00109863,-0.0177002,0.986694,-0.610352,-1.0376,33.9966,0.005,-0.007,-5.93,0.0039978,0.022522,0,0,0,0,0,40.24,732.633,1964229
-0.00482178,0.00482178,1.02191,0.183105,-0.732422,32.959,-0.002,0.014,-6.43,0.0039978,0.022522,0,0,0,0,0,40.24,732.654,1964244
0.0170898,-0.0165405,1.0011,1.0376,-1.28174,34.9731,0.021,-0.004,-7.45,0.00392151,0.022522,0,0,0,0,0,40.24,732.68,1964274
0.00842285,0.00305176,1.03821,1.28174,-1.0376,34.9731,0.01,0.014,-7.97,0.00390625,0.022522,0,0,0,0,0,40.24,732.695,1964289
-0.0317993,-0.0324707,1.02545,0.610352,-1.64795,36.8652,-0.024,-0.027,-8.51,0.00389099,0.0225067,0,0,0,0,0,40.24,732.713,1964304
-0.0067749,-0.0162964,1.00684,-0.549316,-1.28174,37.5366,-0.002,-0.007,-9.63,0.00382996,0.0224609,0,0,0,0,0,40.24,732.733,1964334
-0.00549316,-0.00897217,1.0451,-0.854492,-1.15967,38.0859,-0.002,0,-10.2,0.00382996,0.0224609,0,0,0,0,0,40.28,732.754,1964349
-0.00128174,-0.0107422,1.0249,-0.976562,-0.854492,37.5366,0.001,0,-10.77,0.00382996,0.0224609,0,0,0,0,0,40.28,732.773,1964364
0.00842285,0.0144043,1.0166,0.12207,-0.854492,36.9263,0.005,0.025,-11.89,0.00382996,0.0224762,0,0,0,0,0,40.28,732.793,1964394
-0.00396729,0.0196533,1.01251,0.915527,-0.915527,36.5601,-0.008,0.027,-12.44,0.00382996,0.0225372,0,0,0,0,0,40.28,732.813,1964409
-0.0137329,-0.0250244,1.00909,0.915527,-1.2207,37.1094,-0.007,-0.018,-12.99,0.00382996,0.0225983,0,0,0,0,0,40.28,732.833,1964425
-0.0187378,-0.0231323,1.03119,-0.976562,-1.2207,37.1094,-0.013,-0.017,-14.1,0.00382996,0.022644,0,0,0,0,0,40.28,732.853,1964454
-0.0194702,-0.0163574,1.01685,-1.15967,-1.2207,36.1328,-0.015,-0.01,-14.65,0.00382996,0.0226288,0,0,0,0,0,40.28,732.873,1964469
-0.0109863,0.0045166,1.01086,-0.427246,-1.2207,35.5835,-0.013,0.011,-15.73,0.00382996,0.0226288,0,0,0,0,0,40.28,732.893,1964499
-0.00164795,0.0126953,0.994812,0.854492,-1.0376,34.9121,-0.006,0.021,-16.26,0.00382996,0.0226593,0,0,0,0,0,40.28,732.913,1964514
0.00994873,-0.0130615,0.997253,1.70898,-0.976562,35.2783,0.011,0,-16.79,0.00382996,0.0226898,0,0,0,0,0,40.28,732.934,1964529
-0.00445557,-0.0361938,1.05103,1.34277,-1.09863,35.9497,0.004,-0.026,-17.32,0.00382996,0.0227203,0,0,0,0,0,40.28,732.954,1964545
-0.0113525,-0.0115967,0.989624,-0.366211,-1.40381,37.0483,-0.009,-0.005,-18.42,0.00382996,0.0227051,0,0,0,0,0,40.28,732.973,1964574
-0.0106812,-0.0171509,1.00323,-1.09863,-1.2207,36.5601,-0.007,-0.01,-18.96,0.00382996,0.0227051,0,0,0,0,0,40.28,732.994,1964589
-0.0107422,0.0247803,1.01733,-1.83105,-1.15967,36.8652,-0.022,0.029,-20.08,0.00379944,0.0227203,0,0,0,0,0,40.28,733.016,1964619
0.00708008,0.0250244,0.970215,-0.488281,-1.64795,36.8042,-0.006,0.035,-20.63,0.00375366,0.0227661,0,0,0,0,0,40.28,733.033,1964634
0.00970459,-0.00598145,1.02991,0.0610352,-1.40381,36.8652,0.006,0.007,-21.18,0.00370789,0.0228577,0,0,0,0,0,40.28,733.054,1964649
0.00579834,-0.0350342,1.00153,0.976562,-1.46484,37.2314,0.014,-0.021,-22.28,0.00360107,0.0228577,0,0,0,0,0,40.28,733.073,1964679
0.0102539,-0.0245972,1.02954,0.12207,-1.15967,37.7197,0.013,-0.009,-22.85,0.0035553,0.0228271,0,0,0,0,0,40.28,733.093,1964694
-0.0286865,-0.0258789,1.02136,-0.854492,-0.854492,37.9028,-0.021,-0.026,-23.42,0.00350952,0.0227814,0,0,0,0,0,40.28,733.113,1964709
0.00683594,0.0010376,1.02594,-0.671387,-0.793457,38.0859,0,0.013,-24.56,0.00341797,0.0226135,0,0,0,0,0,40.28,733.133,1964739
-0.0129395,0.00250244,1.00153,0.12207,-1.0376,36.8652,-0.018,0.006,-25.12,0.00341797,0.0226135,0,0,0,0,0,40.28,733.153,1964754
0.00170898,-0.020752,0.996765,1.28174,-1.09863,36.6821,0.004,-0.009,-25.67,0.00341797,0.0226135,0,0,0,0,0,40.28,733.173,1964769
-0.0134277,-0.0516968,1.03918,0.732422,-1.34277,37.2314,0.004,-0.043,-26.78,0.00341797,0.022583,0,0,0,0,0,40.28,733.193,1964799
-0.00378418,0.00286865,0.989746,0.0610352,-1.46484,37.9639,-0.011,0.008,-27.35,0.00341797,0.0225372,0,0,0,0,0,40.28,733.213,1964814
-0.0197144,-0.0473022,0.989685,-1.15967,-1.28174,38.269,-0.001,-0.042,-27.92,0.00341797,0.0224609,0,0,0,0,0,40.28,733.236,1964829
-0.0045166,-0.0403442,1.05328,-1.2207,-1.40381,38.5742,0.007,-0.028,-28.5,0.00341797,0.0223389,0,0,0,0,0,40.28,733.253,1964845
-0.00976562,-0.00952148,0.977417,0.0610352,-1.46484,38.4521,-0.011,-0.004,-29.66,0.00341797,0.0221863,0,0,0,0,0,40.28,733.273,1964874
0.0136108,0.0151367,1.00104,1.46484,-1.64795,38.3301,-0.003,0.027,-30.23,0.00341797,0.0222168,0,0,0,0,0,40.28,733.294,1964889
0.00219727,-0.0202026,1.02161,1.34277,-1.46484,38.7573,0.004,-0.008,-30.81,0.00341797,0.0222321,0,0,0,0,0,40.28,733.313,1964905
-0.00952148,-0.0114136,0.998779,-0.12207,-1.28174,40.7715,-0.01,-0.008,-32.6,0.00341797,0.0222473,0,0,0,0,0,40.28,733.35,1964950
0.00366211,0.0425415,1.03473,-0.549316,-0.610352,40.1001,-0.029,0.044,-33.82,0.00340271,0.0222778,0,0,0,0,0,40.28,733.375,1964980
0.00201416,-0.015625,1.00964,-0.183105,-0.976562,39.3677,0.001,-0.005,-34.42,0.00337219,0.0223236,0,0,0,0,0,40.28,733.393,1964995
-6.10352e-05,-0.0117798,1.01062,0.427246,-0.549316,39.0015,-0.002,-0.003,-35,0.00334167,0.0223541,0,0,0,0,0,40.28,733.413,1965010
0.00213623,0.0140381,1.03143,0.793457,-0.671387,38.0859,-0.015,0.018,-35.58,0.00334167,0.0223541,0,0,0,0,0,40.28,733.433,1965025
-0.0102539,-0.0144653,0.989258,-0.366211,-1.34277,37.0483,-0.008,-0.012,-36.7,0.00334167,0.0223541,0,0,0,0,0,40.28,733.453,1965055
-0.00543213,-0.0558472,1.01337,-2.13623,-1.09863,37.1704,0.019,-0.041,-37.25,0.00334167,0.0223236,0,0,0,0,0,40.28,733.474,1965070
-0.0258789,-0.00476074,0.99353,-0.427246,-1.34277,35.7666,-0.027,-0.013,-38.35,0.00328064,0.0222931,0,0,0,0,0,40.28,733.494,1965100
-0.00390625,-0.0114746,0.976501,0.854492,-2.13623,35.3394,-0.005,-0.005,-38.88,0.0032196,0.0222931,0,0,0,0,0,40.28,733.513,1965115
0.0201416,-0.0152588,1.03644,1.34277,-1.77002,35.1562,0.014,0.006,-39.42,0.0032196,0.0222931,0,0,0,0,0,40.28,733.533,1965130
0.00201416,-0.0200195,1.01703,2.01416,-1.95312,38.147,0.003,-0.009,-40.52,0.0032196,0.0222473,0,0,0,0,0,40.28,733.553,1965160
0.0142822,-0.0368652,1.02051,0.244141,-1.40381,38.5132,0.023,-0.014,-41.1,0.00323486,0.0222015,0,0,0,0,0,40.28,733.574,1965175
-0.00317383,-0.0146484,1.00665,-0.244141,-1.52588,39.6118,-0.004,-0.008,-41.69,0.00326538,0.0222015,0,0,0,0,0,40.28,733.594,1965190
0.00305176,0.00921631,1.03802,-0.793457,-0.549316,39.6118,-0.015,0.013,-42.28,0.00328064,0.0222015,0,0,0,0,0,40.28,733.612,1965205
0.0043335,-0.0175171,1.005,-0.0610352,-1.15967,39.3677,0.003,-0.006,-43.46,0.00328064,0.0222626,0,0,0,0,0,40.28,733.632,1965235
-0.00231934,0.0219116,1.01672,0.0610352,-0.793457,38.9404,-0.028,0.017,-44.05,0.00326538,0.0223083,0,0,0,0,0,40.28,733.653,1965250
0.00378418,-0.0012207,1.02234,0.427246,-0.732422,38.3911,-0.008,0.004,-44.63,0.0032196,0.0223083,0,0,0,0,0,40.28,733.672,1965265
-0.0272827,-0.0349121,1.00757,0.244141,-1.15967,39.6729,-0.005,-0.041,-45.8,0.00317383,0.0222778,0,0,0,0,0,40.28,733.692,1965295
-0.0154419,-0.0167847,1.0058,-0.427246,-1.2207,40.1001,-0.01,-0.02,-46.41,0.00317383,0.0222015,0,0,0,0,0,40.28,733.712,1965310
-0.00524902,-0.00970459,1.03076,-1.0376,-1.28174,39.7949,-0.008,-0.007,-47.01,0.00317383,0.02211,0,0,0,0,0,40.28,733.733,1965325
0.0137939,0.0179443,1.01221,0,-2.01416,38.9404,-0.016,0.024,-48.19,0.00309753,0.0221252,0,0,0,0,0,40.28,733.752,1965355
0.00231934,-0.0204468,1.0274,0.0610352,-1.40381,39.0625,0.004,-0.009,-48.77,0.0030365,0.022171,0,0,0,0,0,40.27,733.772,1965370
0.0140991,0.00866699,1.02032,0.549316,-1.28174,39.7949,-0.01,0.017,-49.37,0.0030365,0.0222015,0,0,0,0,0,40.27,733.792,1965385
0.0100098,0.00976562,1.00641,-0.854492,-1.15967,40.9546,-0.014,0.015,-50.58,0.00308228,0.0222626,0,0,0,0,0,40.27,733.813,1965415
0.00524902,0.0010376,1.00952,-0.732422,-0.671387,40.4663,-0.011,0.005,-51.19,0.00308228,0.0222931,0,0,0,0,0,40.27,733.833,1965430
0.00128174,-0.00140381,1.00482,-0.12207,-0.549316,40.3442,-0.011,0.001,-51.8,0.00308228,0.0222931,0,0,0,0,0,40.27,733.853,1965445
-0.00311279,0.0130615,1.01801,1.28174,-0.915527,38.5742,-0.025,0.006,-52.99,0.00306702,0.0222931,0,0,0,0,0,40.27,733.873,1965475
-0.0238647,-0.0299683,0.987305,0.854492,-0.671387,38.7573,-0.002,-0.036,-53.56,0.0030365,0.0222778,0,0,0,0,0,40.27,733.893,1965490
0.00823975,-0.00604248,1.04211,1.28174,-0.915527,39.0625,-0.003,0.003,-54.15,0.00299072,0.0222321,0,0,0,0,0,40.27,733.913,1965505
-0.0198364,0.0144043,0.989563,-0.793457,-1.40381,40.6494,-0.036,-0.007,-55.35,0.00297546,0.0220642,0,0,0,0,0,40.27,733.934,1965535
-0.0020752,-0.0289307,1.01123,-1.34277,-0.976562,39.917,0.009,-0.017,-55.94,0.00294495,0.0219421,0,0,0,0,0,40.27,733.953,1965550
0.0022583,0.0415649,0.981873,0.549316,-2.13623,38.6963,-0.047,0.024,-57.12,0.00279236,0.0217896,0,0,0,0,0,40.27,733.976,1965580
0.00842285,-0.00927734,1.0238,1.83105,-1.46484,38.6353,-0.001,0.001,-57.71,0.00265503,0.0217438,0,0,0,0,0,40.27,733.993,1965595
0.0234985,-0.0144043,1.03943,1.95312,-1.15967,39.2456,0.011,0.01,-58.28,0.00265503,0.0217438,0,0,0,0,0,40.27,734.013,1965610
-0.0124512,-0.0307617,1.01691,0.549316,-1.40381,40.4663,0.006,-0.028,-58.89,0.00265503,0.0217285,0,0,0,0,0,40.27,734.033,1965625
0.00195312,-0.0396118,1.01117,-0.915527,-0.427246,40.8936,0.021,-0.019,-60.11,0.00267029,0.0216217,0,0,0,0,0,40.27,734.055,1965655
-0.00311279,0.0111694,1.01447,-1.0376,-0.976562,40.8325,-0.025,0,-60.72,0.00267029,0.0216217,0,0,0,0,0,40.27,734.073,1965670
0.00531006,0.00384521,0.994141,-0.976562,-1.2207,40.5273,-0.014,0.004,-61.34,0.00265503,0.0216217,0,0,0,0,0,40.27,734.093,1965685
-0.00421143,-0.00158691,1.01086,0.854492,-1.52588,40.8936,-0.014,-0.006,-62.56,0.00250244,0.0216217,0,0,0,0,0,40.27,734.113,1965715
-0.0111694,-0.00592041,1.01123,1.0376,-1.34277,41.4429,-0.013,-0.015,-63.18,0.00238037,0.0216217,0,0,0,0,0,40.27,734.133,1965730
-0.00610352,-0.0143433,1.00909,-0.244141,-1.34277,42.4194,-0.003,-0.014,-64.43,0.00238037,0.0216217,0,0,0,0,0,40.27,734.157,1965760
-0.00366211,0.00756836,1,-0.610352,-1.46484,41.4429,-0.022,-0.003,-65.07,0.00236511,0.0216217,0,0,0,0,0,40.27,734.173,1965775
0.0155029,-0.0397949,1.03235,-1.09863,-1.28174,38.0249,0.028,-0.005,-65.65,0.00234985,0.0216217,0,0,0,0,0,40.27,734.193,1965790
0.0181885,0.0824585,1.00696,-0.183105,-1.64795,34.3018,-0.082,0.045,-66.19,0.00230408,0.0216522,0,0,0,0,0,40.27,734.213,1965806
0.0204468,-0.015564,1.03119,1.70898,-0.488281,27.4048,0.008,0.007,-67.09,0.0019989,0.0217743,0,0,0,0,0,40.27,734.233,1965835
0.0078125,0.00482178,1.04352,1.77002,-0.671387,24.1089,-0.014,0.003,-67.46,0.0019989,0.0217743,0,0,0,0,0,40.27,734.253,1965850
-0.0117188,-0.00183105,1.01422,2.01416,-0.488281,23.4985,-0.014,-0.017,-67.81,0.0019989,0.0217743,0,0,0,0,0,40.27,734.273,1965866
-0.000244141,-0.0267334,1.02411,1.83105,0,20.5688,0.013,-0.016,-68.48,0.0019989,0.0217743,0,0,0,0,0,40.28,734.293,1965895
-0.0145874,-0.00927734,1.00983,0.915527,-0.366211,20.6299,-0.007,-0.023,-68.79,0.0019989,0.021759,0,0,0,0,0,40.28,734.313,1965910
-0.000793457,0.000427246,1.00366,0.671387,-0.427246,21.6064,-0.01,-0.006,-69.11,0.0019989,0.0217133,0,0,0,0,0,40.28,734.333,1965926
-0.0130615,-0.00311279,1.02576,1.15967,-0.488281,22.8882,-0.011,-0.019,-69.78,0.0019989,0.0216522,0,0,0,0,0,40.28,734.353,1965955
-0.00012207,0.00390625,1.01514,1.28174,-0.549316,23.7427,-0.013,-0.005,-70.14,0.0019989,0.0216522,0,0,0,0,0,40.28,734.373,1965970
0.00183105,-0.00140381,1.00354,1.77002,-0.671387,23.9868,-0.006,-0.005,-70.5,0.0019989,0.0216522,0,0,0,0,0,40.28,734.393,1965986
0.00109863,-0.00726318,1.01538,1.83105,-0.732422,26.001,0,-0.008,-71.24,0.0019989,0.0216522,0,0,0,0,0,40.28,734.413,1966015
0.00494385,-0.0115356,1.01569,2.01416,-0.732422,26.9165,0.004,-0.006,-71.64,0.0019989,0.0216522,0,0,0,0,0,40.28,734.433,1966030
0.00799561,-0.0012207,1.0127,1.58691,-0.427246,26.9165,-0.003,0,-72.05,0.0019989,0.0216522,0,0,0,0,0,40.28,734.454,1966046
0.00274658,-0.00469971,1.02148,1.46484,-0.549316,27.5879,-0.001,-0.006,-72.87,0.0019989,0.0216522,0,0,0,0,0,40.28,734.473,1966075
-0.000915527,0.00390625,1.00739,1.58691,-0.244141,27.5879,-0.01,-0.007,-73.28,0.0019989,0.0216522,0,0,0,0,0,40.28,734.493,1966090
-0.00262451,0.000793457,1.00024,1.89209,-0.610352,27.4658,-0.007,-0.01,-73.7,0.0019989,0.0216522,0,0,0,0,0,40.28,734.513,1966106
-0.00726318,0.0231934,1.01453,2.62451,-0.549316,24.7192,-0.028,-0.009,-74.48,0.00198364,0.0216522,0,0,0,0,0,40.28,734.535,1966135
0.00244141,-0.0118408,1.00739,3.11279,-0.549316,23.6816,0.008,-0.009,-74.85,0.00193787,0.0216522,0,0,0,0,0,40.28,734.553,1966150
-0.0010376,-0.0103149,1.01434,3.41797,-0.549316,23.6816,0.007,-0.012,-75.2,0.00192261,0.0216522,0,0,0,0,0,40.28,734.573,1966166
-0.00634766,-0.0308228,1.02509,2.50244,-0.854492,23.6816,0.027,-0.023,-75.91,0.00193787,0.0215759,0,0,0,0,0,40.28,734.593,1966195
-0.00134277,0.0377808,0.994446,2.13623,-0.671387,23.1323,-0.037,-0.001,-76.25,0.00195312,0.0214996,0,0,0,0,0,40.28,734.614,1966210
-0.00622559,0.012207,1.00903,0.488281,-0.183105,22.8271,-0.013,-0.013,-76.6,0.00193787,0.0214996,0,0,0,0,0,40.28,734.634,1966226
0.0133057,0.0510254,1.01123,-0.427246,-0.610352,23.1323,-0.046,0.014,-77.29,0.0018158,0.0214996,0,0,0,0,0,40.28,734.653,1966255
0.00543213,0.027832,1.00244,-0.244141,-0.610352,23.6206,-0.025,0.001,-77.65,0.00167847,0.0214996,0,0,0,0,0,40.28,734.674,1966270
-0.00292969,0.038208,1.03497,-0.0610352,-0.427246,23.2544,-0.037,-0.005,-77.99,0.00149536,0.0214996,0,0,0,0,0,40.28,734.694,1966286
0.0122681,0.0183105,1.00104,-0.12207,-0.671387,19.8975,-0.013,0.005,-78.66,0.00102234,0.0214996,0,0,0,0,0,40.28,734.714,1966315
-0.015625,-0.00415039,1.01166,-1.58691,-0.12207,15.2588,0.002,-0.026,-78.91,0.000762939,0.0214844,0,0,0,0,0,40.28,734.734,1966330
0.00341797,0.0304565,1.02893,-2.31934,-0.427246,12.7563,-0.028,-0.001,-79.12,0.000488281,0.0214539,0,0,0,0,0,40.28,734.755,1966346
-0.0098877,0.0310669,1.00128,-0.305176,-0.183105,7.44629,-0.031,-0.014,-79.4,-0.000167847,0.0214233,0,0,0,0,0,40.28,734.774,1966376
0.0198975,-0.00946045,1.01447,0.488281,-0.183105,6.40869,0.014,0.007,-79.51,-0.000534058,0.0214233,0,0,0,0,0,40.29,734.793,1966391
-0.00750732,-0.0509644,1.0155,0.427246,-0.244141,6.95801,0.049,-0.027,-79.61,-0.000869751,0.0214081,0,0,0,0,0,40.29,734.813,1966406
0.00579834,0.0206299,1.02423,1.34277,-0.0610352,5.7373,-0.017,-0.001,-79.8,-0.0015564,0.0213165,0,0,0,0,0,40.29,734.847,1966436
0.00256348,0.00183105,0.989014,-0.0610352,-0.0610352,7.20215,0,-0.007,-80,-0.00221252,0.0213165,0,0,0,0,0,40.29,734.863,1966466
0.00256348,0.00183105,0.989014,-0.0610352,-0.0610352,7.20215,0,-0.007,-80,-0.00221252,0.0213165,0,0,0,0,0,40.29,734.874,1966466
0.000244141,-0.00427246,1.03558,-0.549316,-0.12207,9.94873,0.005,-0.01,-80.26,-0.00253296,0.0213165,0,0,0,0,0,40.29,734.894,1966496
0.00842285,0.0114136,0.997375,-0.366211,-0.366211,10.8643,-0.008,0,-80.42,-0.00253296,0.0213165,0,0,0,0,0,40.29,734.913,1966511
0.0012207,-6.10352e-05,1.03204,0.244141,-0.0610352,12.207,0.001,-0.008,-80.77,-0.00253296,0.0213165,0,0,0,0,0,40.29,734.947,1966541
-0.0111694,0.00299072,1.0033,0,0.305176,7.9956,-0.002,-0.02,-81.07,-0.00257874,0.0213165,0,0,0,0,0,40.29,734.976,1966571
0.00646973,0.0252075,1.02832,-0.366211,-0.12207,5.79834,-0.022,0,-81.17,-0.00262451,0.0213013,0,0,0,0,0,40.29,734.993,1966586
0.0114136,0.00512695,1.01135,0.732422,0.0610352,-1.89209,0,0.002,-81.2,-0.00286865,0.021286,0,0,0,0,0,40.29,735.013,1966616
-0.0145874,-0.00109863,1.01184,0,0,-2.99072,0.001,-0.024,-81.16,-0.00286865,0.0212708,0,0,0,0,0,40.29,735.032,1966631
0.00964355,0.00201416,1.00757,-0.549316,0.12207,-5.18799,0.002,0,-81.11,-0.00286865,0.0212402,0,0,0,0,0,40.29,735.052,1966646
-0.00488281,0.0189819,1.02484,0.244141,-0.0610352,-4.39453,-0.016,-0.01,-80.94,-0.00296021,0.0212097,0,0,0,0,0,40.29,735.079,1966676
0.0139771,0.0233765,1.0191,1.52588,-0.12207,-4.57764,-0.017,0.008,-80.87,-0.00305176,0.0212097,0,0,0,0,0,40.29,735.092,1966691
-0.00463867,-0.0166016,1.00238,0.793457,-0.0610352,-3.66211,0.019,-0.016,-80.82,-0.00305176,0.0212097,0,0,0,0,0,40.29,735.112,1966706
0.0045166,0.0214233,1.02496,-0.915527,-0.0610352,-0.0610352,-0.017,0,-80.78,-0.00299072,0.0211487,0,0,0,0,0,40.29,735.134,1966736
-0.00653076,0.026062,1.00641,-0.732422,-0.12207,1.2207,-0.023,-0.01,-80.79,-0.00297546,0.0211029,0,0,0,0,0,40.29,735.152,1966751
0.00878906,-0.00183105,1.01898,-0.244141,-0.366211,1.64795,0.006,0,-80.82,-0.00297546,0.0211029,0,0,0,0,0,40.29,735.173,1966766
-0.00439453,0.00616455,1.00653,-0.610352,-0.183105,0.305176,-0.003,-0.011,-80.85,-0.00297546,0.0211029,0,0,0,0,0,40.29,735.193,1966796
0.00762939,-0.000366211,1.02155,-0.610352,-0.12207,-0.427246,0.004,0,-80.84,-0.00297546,0.0211029,0,0,0,0,0,40.29,735.213,1966811
0.00109863,-0.00158691,1.00586,0,0,-0.671387,0.004,-0.007,-80.82,-0.00297546,0.0211029,0,0,0,0,0,40.29,735.235,1966841
0.0078125,-0.0057373,1.02515,0,0.12207,-0.366211,0.009,-0.001,-80.82,-0.00297546,0.0211029,0,0,0,0,0,40.29,735.253,1966856
0.000732422,-0.00183105,1.01318,0.183105,0,0.0610352,0.004,-0.007,-80.82,-0.00297546,0.0211029,0,0,0,0,0,40.29,735.276,1966871
-0.00256348,0.00335693,1.01166,0.488281,-0.0610352,0.488281,0,-0.009,-80.82,-0.00297546,0.0211029,0,0,0,0,0,40.29,735.293,1966886
-0.0174561,0.0114746,1.0224,0.549316,0.0610352,0.488281,-0.011,-0.023,-80.84,-0.00297546,0.0210876,0,0,0,0,0,40.27,735.312,1966916
0.0088501,0.0163574,1.01031,0.427246,-0.305176,0.12207,-0.011,0.003,-80.85,-0.00297546,0.0210571,0,0,0,0,0,40.27,735.333,1966931
-0.00445557,0.00683594,1.00952,0.366211,-0.0610352,-0.244141,-0.003,-0.01,-80.84,-0.00297546,0.0210114,0,0,0,0,0,40.27,735.353,1966946
-0.000915527,0.013916,1.01648,0.305176,-0.12207,-0.0610352,-0.01,-0.006,-80.84,-0.00297546,0.0210114,0,0,0,0,0,40.27,735.372,1966976
0.00231934,0.0130615,1.00903,-0.12207,-0.0610352,0.12207,-0.008,-0.003,-80.84,-0.00297546,0.0210114,0,0,0,0,0,40.27,735.393,1966991
-0.00128174,0.00915527,1.02069,-0.244141,-0.0610352,0.366211,-0.005,-0.007,-80.84,-0.00297546,0.0210114,0,0,0,0,0,40.27,735.413,1967006
0.00335693,0.0114746,1.01569,-0.427246,-0.0610352,-0.183105,-0.006,-0.002,-80.84,-0.00297546,0.0210114,0,0,0,0,0,40.27,735.433,1967036
-0.00274658,0.00299072,1.01636,-0.366211,0.0610352,-0.305176,0,-0.009,-80.84,-0.00297546,0.0210114,0,0,0,0,0,40.27,735.453,1967051
-0.00238037,0.00506592,1.01385,-0.427246,-0.0610352,-0.183105,-0.001,-0.008,-80.84,-0.00297546,0.0210114,0,0,0,0,0,40.27,735.473,1967066
-0.00445557,0.000244141,1.01843,-0.244141,-0.12207,0,0.002,-0.011,-80.84,-0.00297546,0.0210114,0,0,0,0,0,40.27,735.494,1967096
0.00170898,0.00140381,1.01666,-0.244141,-0.12207,0,0.002,-0.004,-80.84,-0.00297546,0.0210114,0,0,0,0,0,40.27,735.514,1967111
0.000427246,-0.00158691,1.0177,0,0,-0.12207,0.005,-0.006,-80.84,-0.00297546,0.0210114,0,0,0,0,0,40.27,735.534,1967126
-0.00115967,0.00335693,1.01477,0.305176,0,0.12207,0,-0.007,-80.84,-0.00297546,0.0210114,0,0,0,0,0,40.27,735.553,1967156
0.00390625,0.00268555,1.01318,0.305176,-0.183105,0,0.001,-0.002,-80.84,-0.00297546,0.0210114,0,0,0,0,0,40.27,735.575,1967171
0.000671387,0.00653076,1.01605,0.427246,0,0.0610352,-0.002,-0.004,-80.84,-0.00297546,0.0210114,0,0,0,0,0,40.27,735.593,1967186
-0.000244141,0.0126343,1.01477,0.305176,0,0.0610352,-0.008,-0.004,-80.84,-0.00297546,0.0210114,0,0,0,0,0,40.27,735.612,1967216
0.000305176,0.0102539,1.01361,0.12207,-0.0610352,-0.0610352,-0.005,-0.004,-80.84,-0.00297546,0.0210114,0,0,0,0,0,40.27,735.633,1967231
-0.00109863,0.0103149,1.01837,0.0610352,0.0610352,0.12207,-0.006,-0.005,-80.84,-0.00297546,0.0210114,0,0,0,0,0,40.27,735.652,1967247
-6.10352e-05,-0.0956421,0.995239,-1.52588,-0.0610352,0.183105,0.098,-0.021,-80.85,-0.00291443,0.0209961,0,0,0,0,0,40.27,735.672,1967276
-0.0022583,-0.139221,1.00244,-6.83594,0,1.77002,0.138,-0.029,-80.87,-0.00270081,0.0209351,0,0,0,0,0,40.27,735.693,1967291
-0.00567627,0.0894165,0.977722,-12.9395,0.244141,-1.15967,-0.094,0.004,-80.87,-0.00198364,0.0208588,0,0,0,0,0,40.27,735.719,1967321
-0.0129395,0.0178223,1.04108,-10.7422,0.305176,-1.15967,-0.028,-0.013,-80.85,-0.00170898,0.0208588,0,0,0,0,0,40.27,735.734,1967336
-0.0481567,0.0965576,1.09833,-4.39453,1.28174,-2.0752,-0.114,-0.035,-80.82,-0.00154114,0.0208282,0,0,0,0,0,40.27,735.753,1967351
0.024353,-0.0855103,1.01947,-2.74658,0.671387,-0.976562,0.078,0.007,-80.8,-0.00140381,0.0207825,0,0,0,0,0,40.27,735.772,1967367
-0.0147705,-0.0455322,1.02814,0.366211,0.183105,-0.183105,0.03,-0.024,-80.81,-0.000778198,0.0206299,0,0,0,0,0,40.27,735.794,1967396
0.0505371,-0.0369263,0.99939,1.34277,-0.549316,0.183105,0.032,0.041,-80.81,-0.000366211,0.0205536,0,0,0,0,0,40.28,735.812,1967411
-0.0229492,-0.143982,0.995361,2.38037,-0.244141,1.52588,0.126,-0.048,-80.83,0.00012207,0.020462,0,0,0,0,0,40.28,735.833,1967427
0.0346069,-0.0342407,1.03455,-1.09863,0,-0.0610352,0.024,0.026,-80.86,0.00146484,0.0201874,0,0,0,0,0,40.28,735.853,1967456
-0.019043,-0.0648804,0.973206,-0.305176,-0.0610352,-0.671387,0.047,-0.031,-80.85,0.00221252,0.02005,0,0,0,0,0,40.28,735.872,1967471
0.0141602,0.0611572,1.00714,-0.0610352,0.0610352,-1.52588,-0.073,0.022,-80.81,0.00393677,0.0196838,0,0,0,0,0,40.28,735.898,1967501
-0.00891113,-0.000427246,0.998596,2.99072,-0.183105,-1.15967,-0.015,-0.01,-80.79,0.00476074,0.019516,0,0,0,0,0,40.28,735.913,1967516
-0.00604248,-0.100403,1.03186,3.84521,-0.0610352,-0.427246,0.084,-0.023,-80.78,0.00561523,0.0193176,0,0,0,0,0,40.28,735.934,1967531
-0.00848389,-0.09375,1.05627,0.610352,-0.305176,-0.427246,0.075,-0.025,-80.77,0.0065918,0.0190887,0,0,0,0,0,40.28,735.953,1967547
0.0106201,0.0906372,0.91217,-1.46484,-1.89209,-1.09863,-0.101,0.023,-80.76,0.00840759,0.0186462,0,0,0,0,0,40.28,735.972,1967576
0.00732422,0.0161133,0.984619,0.12207,-0.976562,-1.2207,-0.029,0.007,-80.74,0.00917053,0.0184631,0,0,0,0,0,40.28,735.994,1967591
0.0369263,0.052002,1.04889,0.244141,-1.09863,-0.549316,-0.06,0.042,-80.73,0.00985718,0.0183105,0,0,0,0,0,40.28,736.013,1967607
0.00152588,0.0599365,1.01923,2.19727,-0.427246,-2.80762,-0.072,0.008,-80.66,0.0111389,0.0180817,0,0,0,0,0,40.28,736.033,1967636
0.00402832,-0.0404053,1.03546,2.19727,0.0610352,-2.56348,0.027,-0.005,-80.62,0.011734,0.0180817,0,0,0,0,0,40.28,736.053,1967651
0.00305176,-0.133545,0.972351,-3.17383,0.488281,-1.89209,0.118,-0.021,-80.59,0.0124207,0.0180511,0,0,0,0,0,40.28,736.073,1967667
0.0326538,0.172363,1.02557,-3.35693,-1.58691,-1.89209,-0.182,0.059,-80.51,0.0136414,0.0180664,0,0,0,0,0,40.28,736.093,1967696
0.0324707,-0.0812378,0.908447,-2.99072,-1.09863,-0.854492,0.07,0.017,-80.5,0.0140839,0.0181427,0,0,0,0,0,40.28,736.112,1967711
-0.0280151,-0.0133057,0.917603,-0.610352,-0.366211,-0.915527,-0.008,-0.03,-80.48,0.0145721,0.018219,0,0,0,0,0,40.28,736.133,1967727
-0.00463867,-0.0625,0.985962,1.83105,-0.549316,-0.976562,0.043,-0.016,-80.48,0.0153503,0.0184021,0,0,0,0,0,40.28,736.153,1967756
0.000732422,-0.0765991,0.982971,2.19727,-0.244141,-0.854492,0.058,-0.012,-80.47,0.0157928,0.0184021,0,0,0,0,0,40.28,736.173,1967772
0.00653076,0.0377808,1.04022,0.732422,0.305176,-1.77002,-0.054,0.011,-80.44,0.0162201,0.0184021,0,0,0,0,0,40.28,736.193,1967787
0.0422974,0.00561523,1.01642,0,-0.305176,-2.31934,-0.015,0.041,-80.38,0.0169525,0.0184326,0,0,0,0,0,40.28,736.212,1967817
-0.0256348,-0.129578,1.01825,-3.05176,0.610352,-2.50244,0.105,-0.048,-80.34,0.0173645,0.0184631,0,0,0,0,0,40.28,736.233,1967832
-0.00219727,0.0276489,0.987793,-3.54004,0.12207,-1.89209,-0.046,0.002,-80.31,0.0178223,0.0184479,0,0,0,0,0,40.28,736.253,1967847
-0.0413208,-0.124817,1.07361,-1.40381,0.671387,-0.183105,0.093,-0.061,-80.27,0.0186615,0.0184174,0,0,0,0,0,40.28,736.273,1967877
-0.0482788,-0.0389404,0.979065,1.40381,1.0376,-0.915527,0.009,-0.054,-80.27,0.0191803,0.0183105,0,0,0,0,0,40.28,736.293,1967892
0.0140381,-0.0205688,1.00635,3.2959,0.0610352,-0.793457,0.002,0.01,-80.26,0.0191803,0.0181732,0,0,0,0,0,40.28,736.313,1967907
-0.00726318,-0.026123,0.990234,-0.671387,-0.671387,-1.52588,0.004,-0.011,-80.23,0.0192413,0.0181732,0,0,0,0,0,40.3,736.333,1967937
0.0256348,0.0192261,0.944336,-1.34277,-0.549316,-2.38037,-0.033,0.028,-80.2,0.0192566,0.0181885,0,0,0,0,0,40.3,736.353,1967952
0.00878906,-0.0463867,1.08453,-0.244141,1.09863,-2.74658,0.025,0.001,-80.16,0.0192719,0.018219,0,0,0,0,0,40.3,736.373,1967967
0.00335693,0.00390625,0.926147,1.09863,0.183105,-3.35693,-0.021,0.004,-80.07,0.0192719,0.0182495,0,0,0,0,0,40.3,736.393,1967997
-0.0195923,0.222168,0.927795,4.94385,-0.915527,-3.66211,-0.239,0.019,-80.02,0.0190887,0.0182495,0,0,0,0,0,40.3,736.413,1968012
-0.00177002,-0.16272,1.14807,2.56348,1.46484,-0.854492,0.14,-0.029,-80,0.0188446,0.0182495,0,0,0,0,0,40.3,736.434,1968027
-0.00634766,-0.0960693,0.99939,2.56348,0.12207,-1.52588,0.078,-0.022,-79.95,0.0184021,0.0182495,0,0,0,0,0,40.3,736.453,1968057
-0.0159302,0.0425415,1.0578,2.0752,0.488281,-1.09863,-0.06,-0.007,-79.92,0.0181885,0.0182495,0,0,0,0,0,40.3,736.473,1968072
-0.0108643,-0.0532837,1.00171,1.09863,-0.427246,-2.01416,0.036,-0.019,-79.9,0.0179596,0.018219,0,0,0,0,0,40.3,736.493,1968087
0.0261841,0.0345459,0.99762,1.46484,-0.915527,-3.23486,-0.042,0.032,-79.86,0.0177307,0.0182037,0,0,0,0,0,40.3,736.512,1968102
0.027832,0.0352783,1.01453,2.2583,-0.671387,-2.13623,-0.042,0.034,-79.8,0.0171814,0.0181427,0,0,0,0,0,40.3,736.533,1968132
0.0303345,-0.0442505,1.01123,2.44141,-0.366211,-4.45557,0.037,0.021,-79.75,0.0168915,0.0181427,0,0,0,0,0,40.3,736.553,1968147
0.0706177,0.0493164,1.01221,2.62451,0.183105,-2.56348,-0.046,0.078,-79.68,0.0162964,0.0181274,0,0,0,0,0,40.3,736.573,1968177
0.027771,-0.0367432,0.997925,2.38037,-0.427246,-4.88281,0.031,0.019,-79.61,0.0159607,0.0181732,0,0,0,0,0,40.3,736.593,1968192
-0.071167,0.0247803,0.994385,2.92969,0.488281,-2.86865,-0.046,-0.065,-79.55,0.015625,0.0182037,0,0,0,0,0,40.3,736.614,1968207
0.00665283,-0.0119019,1.04059,2.92969,0.305176,-4.08936,0.005,0.003,-79.46,0.0149384,0.0182648,0,0,0,0,0,40.3,736.633,1968237
-0.109009,0.0142212,1.02936,1.95312,0.732422,-1.77002,-0.04,-0.104,-79.42,0.0145721,0.0182495,0,0,0,0,0,40.3,736.652,1968252
0.0748901,0.0407715,0.99707,2.92969,0,-1.34277,-0.031,0.081,-79.42,0.0141602,0.018219,0,0,0,0,0,40.3,736.673,1968267
-0.0875854,0.0494995,0.990906,2.44141,-0.244141,-1.0376,-0.069,-0.077,-79.35,0.0133209,0.0182037,0,0,0,0,0,40.3,736.692,1968297
0.0452881,0.00384521,1.02332,2.80762,0.366211,-0.671387,0.001,0.045,-79.34,0.0128479,0.0181427,0,0,0,0,0,40.3,736.717,1968312
0.0230713,0.00811768,1.0274,2.31934,-1.0376,-2.44141,-0.006,0.023,-79.31,0.0128479,0.0181274,0,0,0,0,0,40.3,736.733,1968327
0.0552368,0.0354614,1.04004,1.2207,-0.183105,0.549316,-0.025,0.06,-79.29,0.0126953,0.0180664,0,0,0,0,0,40.3,736.754,1968357
-0.000915527,-0.0355225,0.971191,0.183105,-1.0376,-1.95312,0.033,-0.008,-79.28,0.0125885,0.0180817,0,0,0,0,0,40.3,736.773,1968372
-0.0651855,0.00976562,0.955261,-1.77002,-0.12207,0.488281,-0.022,-0.063,-79.27,0.0124817,0.0180359,0,0,0,0,0,40.3,736.793,1968387
-0.0136108,0.041748,1.01465,-1.15967,0.732422,-2.62451,-0.044,-0.006,-79.26,0.0121613,0.0179443,0,0,0,0,0,40.3,736.813,1968417
-0.0465698,-0.0406494,0.956726,-1.64795,0.0610352,-1.95312,0.03,-0.054,-79.22,0.0119629,0.0178528,0,0,0,0,0,40.26,736.833,1968432
0.0410767,0.0796509,1.06342,-1.15967,1.15967,-0.793457,-0.071,0.054,-79.21,0.011734,0.0177765,0,0,0,0,0,40.26,736.853,1968447
0.0410767,0.0796509,1.06342,-1.15967,1.15967,-0.793457,-0.071,0.054,-79.21,0.011734,0.0177765,0,0,0,0,0,40.26,736.873,1968447
0.0410767,0.0796509,1.06342,-1.15967,1.15967,-0.793457,-0.071,0.054,-79.21,0.011734,0.0177765,0,0,0,0,0,40.26,736.893,1968447
-0.00512695,-0.00762939,0.994568,-0.732422,0.305176,-1.2207,0.005,-0.006,-79.06,0.0105133,0.0175934,0,0,0,0,0,40.26,736.913,1968517
0.00408936,0.0440674,1.03693,0,0.12207,-0.488281,-0.043,0.012,-78.97,0.00904846,0.0171509,0,0,0,0,0,40.26,736.933,1968537
0.00305176,-0.0842896,1.02686,-0.793457,-1.58691,-2.2583,0.082,-0.013,-78.94,0.00854492,0.016983,0,0,0,0,0,40.26,736.953,1968552
-0.0143433,0.0467529,0.980652,-0.0610352,-0.854492,-0.915527,-0.05,-0.005,-78.92,0.00805664,0.016983,0,0,0,0,0,40.26,736.973,1968567
0.0307007,0.0424194,1.01373,-1.09863,-1.15967,-1.77002,-0.037,0.037,-78.91,0.00704956,0.0170135,0,0,0,0,0,40.26,736.993,1968597
-0.00756836,0.00604248,1.0127,-1.0376,-0.671387,-0.427246,-0.009,-0.007,-78.9,0.00650024,0.0170746,0,0,0,0,0,40.26,737.013,1968612
0.0217896,0.0369263,1.02155,-1.2207,0.915527,0.305176,-0.034,0.028,-78.9,0.00593567,0.0171356,0,0,0,0,0,40.26,737.033,1968627
0.000305176,0.0388794,0.999756,-1.34277,-0.671387,-1.34277,-0.041,0.007,-78.88,0.004776,0.0173187,0,0,0,0,0,40.26,737.053,1968657
-0.0140381,-0.0336914,0.998962,-1.64795,1.0376,-0.793457,0.027,-0.02,-78.87,0.00418091,0.017395,0,0,0,0,0,40.26,737.073,1968672
0.0510864,0.0205688,1.05273,-1.28174,-0.12207,-2.99072,-0.014,0.054,-78.84,0.00358582,0.0175171,0,0,0,0,0,40.26,737.093,1968688
-0.046936,0.00811768,0.962463,-0.915527,0.244141,-1.40381,-0.021,-0.044,-78.77,0.00358582,0.0177765,0,0,0,0,0,40.26,737.113,1968717
0.043335,-0.00799561,1.02216,-1.52588,-0.305176,-2.74658,0.012,0.041,-78.74,0.0035553,0.0178986,0,0,0,0,0,40.26,737.133,1968732
-0.0211792,-0.0137329,0.993164,-1.0376,-0.915527,-2.44141,0.004,-0.023,-78.69,0.0035553,0.0180206,0,0,0,0,0,40.26,737.153,1968748
0.0252686,-0.0272827,1.02191,-1.83105,-0.12207,-1.52588,0.026,0.02,-78.65,0.00357056,0.0182037,0,0,0,0,0,40.26,737.177,1968777
0.00946045,0.0441284,1.03394,-1.95312,-1.46484,-2.0752,-0.047,0.018,-78.61,0.0035553,0.0183258,0,0,0,0,0,40.26,737.193,1968792
-0.0355835,-0.0139771,0.989502,-2.62451,-0.671387,-0.732422,0,-0.036,-78.59,0.00352478,0.0184174,0,0,0,0,0,40.26,737.213,1968808
0.0432129,-0.0315552,0.997681,-1.77002,-1.77002,-2.56348,0.032,0.036,-78.53,0.00331116,0.0186615,0,0,0,0,0,40.26,737.233,1968837
-0.024353,0.0449219,0.97876,-0.976562,-0.0610352,-1.28174,-0.056,-0.014,-78.51,0.00318909,0.0188293,0,0,0,0,0,40.26,737.253,1968852
0.0297852,-0.0129395,1.04834,-1.83105,1.09863,-3.2959,0.01,0.027,-78.47,0.00302124,0.0189819,0,0,0,0,0,40.26,737.273,1968868
-0.0241089,-0.00689697,0.973389,-1.58691,1.09863,-2.74658,-0.006,-0.024,-78.37,0.00286865,0.0194092,0,0,0,0,0,40.26,737.292,1968897
0.00695801,-0.0178833,1.02637,-2.56348,1.28174,-3.11279,0.009,0.004,-78.32,0.00286865,0.0196228,0,0,0,0,0,40.26,737.313,1968912
0.0313721,0.0161133,1.0293,-2.74658,0.183105,-3.84521,-0.019,0.035,-78.27,0.00286865,0.0198517,0,0,0,0,0,40.26,737.333,1968928
0.0161133,-0.0206909,1.04401,-3.60107,1.28174,-3.05176,0.012,0.014,-78.17,0.00286865,0.0202789,0,0,0,0,0,40.29,737.353,1968957
-0.00427246,0.0212402,1.03015,-3.96728,0,-3.84521,-0.033,0.003,-78.11,0.00285339,0.0202789,0,0,0,0,0,40.29,737.374,1968972
-0.0145264,0.00158691,0.983643,-3.35693,0,-3.35693,-0.016,-0.01,-78.06,0.00280762,0.0202789,0,0,0,0,0,40.29,737.396,1968988
0.0360107,0.157654,0.964722,-3.2959,-1.58691,-3.11279,-0.16,0.071,-77.97,0.00256348,0.0203552,0,0,0,0,0,40.29,737.414,1969017
-0.0579834,-0.0776367,0.95636,-0.244141,0.183105,-2.50244,0.05,-0.069,-77.92,0.00231934,0.0204315,0,0,0,0,0,40.29,737.437,1969032
0.0819702,0.0852661,0.962769,-0.610352,-0.183105,-1.15967,-0.079,0.101,-77.9,0.00204468,0.0205231,0,0,0,0,0,40.29,737.453,1969048
0.010498,0.0421143,1.0437,1.89209,0.549316,-0.488281,-0.053,0.023,-77.88,0.00126648,0.0209351,0,0,0,0,0,40.29,737.478,1969077
0.0136719,-0.0515747,1.06201,0.610352,1.09863,-0.732422,0.038,0.006,-77.86,0.000839233,0.0211792,0,0,0,0,0,40.29,737.493,1969092
-0.0366211,0.00238037,1.01428,-0.183105,0.244141,0.793457,-0.024,-0.03,-77.87,0.000411987,0.0213928,0,0,0,0,0,40.29,737.514,1969108
-0.0161743,-0.0219727,1.03845,0.244141,1.28174,0.549316,0.003,-0.015,-77.89,-0.000473022,0.0217896,0,0,0,0,0,40.29,737.537,1969137
-0.0466309,0.10553,0.969177,-0.305176,-1.15967,0.12207,-0.126,-0.018,-77.9,-0.00100708,0.0217896,0,0,0,0,0,40.29,737.554,1969152
0.0057373,0.0287476,1.05768,0.732422,-0.305176,-0.915527,-0.041,0.017,-77.89,-0.00166321,0.0217896,0,0,0,0,0,40.29,737.575,1969168
0.0153809,0.00463867,0.970581,-0.305176,-1.58691,-1.15967,-0.014,0.02,-77.86,-0.00311279,0.0218048,0,0,0,0,0,40.29,737.593,1969198
0.000488281,0.0131836,0.969604,1.0376,-0.488281,-1.95312,-0.025,0.007,-77.84,-0.00389099,0.0218353,0,0,0,0,0,40.29,737.614,1969213
0.0593872,0.0859985,0.99646,-0.854492,-0.915527,-1.28174,-0.084,0.081,-77.79,-0.00535583,0.0218811,0,0,0,0,0,40.29,737.639,1969243
-0.0429688,-0.013855,1.03552,1.70898,0.183105,-2.62451,-0.009,-0.04,-77.76,-0.00614929,0.0219574,0,0,0,0,0,40.29,737.652,1969258
-0.03302,-0.072876,1.08209,0.305176,0.671387,-1.0376,0.05,-0.042,-77.74,-0.00692749,0.0219727,0,0,0,0,0,40.29,737.675,1969273
0.0407715,0.00970459,0.92572,0.549316,-0.183105,-1.15967,-0.012,0.046,-77.72,-0.00767517,0.0219879,0,0,0,0,0,40.29,737.693,1969288
-0.0345459,0.164612,0.968567,5.98144,-0.12207,-1.28174,-0.18,0.006,-77.7,-0.00854492,0.0220337,0,0,0,0,0,40.29,737.713,1969303
-0.000732422,0.0827026,0.94458,1.70898,-0.549316,-1.77002,-0.091,0.021,-77.67,-0.0102234,0.0220032,0,0,0,0,0,40.29,737.733,1969333
0.00189209,-0.0653687,1.05188,0,0.549316,-0.610352,0.052,-0.006,-77.66,-0.0110626,0.0219727,0,0,0,0,0,40.29,737.755,1969348
-0.0219727,0.0145874,1.00085,0,0.305176,-2.50244,-0.03,-0.013,-77.63,-0.0118866,0.0219727,0,0,0,0,0,40.29,737.772,1969363
0.0429077,-0.0233765,1.01147,0.305176,-0.0610352,-2.01416,0.021,0.041,-77.58,-0.0135193,0.0220032,0,0,0,0,0,40.29,737.795,1969393
-0.0325928,-0.0327148,1.01105,-0.793457,-0.976562,-1.95312,0.014,-0.034,-77.55,-0.0143127,0.0220337,0,0,0,0,0,40.29,737.813,1969408
0.0143433,0.0223389,1.01184,1.64795,-0.610352,-1.89209,-0.028,0.023,-77.51,-0.0158844,0.0221558,0,0,0,0,0,40.29,737.833,1969438
-0.0985718,-0.00750732,1.08063,0.12207,0.12207,-0.793457,-0.024,-0.092,-77.48,-0.0167084,0.022171,0,0,0,0,0,40.29,737.852,1969453
0.0447998,0.0370483,0.974243,0.793457,-0.12207,-0.732422,-0.035,0.056,-77.48,-0.0175629,0.0221863,0,0,0,0,0,40.29,737.872,1969468
-0.0737915,0.000305176,1.07495,-0.549316,0.671387,-0.854492,-0.026,-0.066,-77.44,-0.0192413,0.0222321,0,0,0,0,0,40.29,737.893,1969498
0.0524292,0.0472412,0.995422,0.610352,1.09863,-2.38037,-0.043,0.067,-77.42,-0.0201263,0.0222321,0,0,0,0,0,40.29,737.912,1969513
0.0250854,0.105774,0.93457,1.58691,-1.09863,-3.72314,-0.106,0.052,-77.37,-0.0211029,0.0223236,0,0,0,0,0,40.29,737.933,1969528
0.0169067,0.0217896,0.969055,2.19727,0.732422,-1.83105,-0.024,0.026,-77.32,-0.0231934,0.0225525,0,0,0,0,0,40.29,737.952,1969558
0.0300903,-0.0343628,1.02789,2.38037,-0.854492,-2.99072,0.032,0.026,-77.28,-0.024231,0.0227203,0,0,0,0,0,40.29,737.972,1969573
-0.0732422,0.00305176,1.03778,1.2207,-0.244141,-0.12207,-0.026,-0.065,-77.26,-0.0252838,0.0228424,0,0,0,0,0,40.29,737.993,1969588
0.00183105,-0.0326538,1.01727,0.915527,-1.52588,-1.52588,0.026,0,-77.25,-0.0274048,0.0230713,0,0,0,0,0,40.29,738.014,1969618
-0.0786743,0.0460205,1.0448,0.915527,-0.0610352,-0.183105,-0.068,-0.061,-77.24,-0.0285034,0.0231628,0,0,0,0,0,40.29,738.032,1969633
0.0700684,0.0199585,0.975098,2.0752,-0.854492,-1.2207,-0.008,0.077,-77.24,-0.0296478,0.0232544,0,0,0,0,0,40.29,738.053,1969648
0.0198975,-0.0255737,0.986511,1.83105,-1.2207,-2.92969,0.025,0.017,-77.2,-0.030777,0.0234222,0,0,0,0,0,40.29,738.072,1969663
0.0950928,0.0158081,1.00403,1.95312,0.0610352,-2.56348,0.002,0.1,-77.15,-0.0330658,0.0237274,0,0,0,0,0,40.29,738.093,1969693
0.020813,-0.0272217,0.995483,1.64795,-0.488281,-3.35693,0.028,0.017,-77.1,-0.0341949,0.0239716,0,0,0,0,0,40.29,738.114,1969708
-0.0748901,0.00109863,1.0451,0.488281,1.58691,-1.40381,-0.02,-0.069,-77.07,-0.0353241,0.0241852,0,0,0,0,0,40.29,738.133,1969723
0.00219727,-0.000366211,1.04523,0.671387,-0.305176,-3.90625,-0.001,0.005,-76.99,-0.0364838,0.0246582,0,0,0,0,0,40.29,738.153,1969753
-0.0964966,-0.0430908,1.0376,0.732422,1.58691,-0.854492,0.017,-0.099,-76.96,-0.0364838,0.0248566,0,0,0,0,0,40.29,738.173,1969768
-0.00457764,-0.0541992,1.05579,1.34277,-0.671387,-2.92969,0.05,-0.013,-76.91,-0.0364838,0.0252075,0,0,0,0,0,40.29,738.194,1969798
-0.074585,0.0220947,1.02985,1.15967,0.366211,0.366211,-0.039,-0.063,-76.9,-0.0364838,0.0253448,0,0,0,0,0,40.29,738.214,1969813
0.0340576,-0.0217896,0.991272,1.15967,-1.0376,-0.854492,0.028,0.032,-76.9,-0.0364838,0.0254669,0,0,0,0,0,40.29,738.232,1969828
-0.0599976,-0.0286255,1.03778,0.244141,0.183105,0.671387,0.013,-0.061,-76.86,-0.0364532,0.0257111,0,0,0,0,0,40.29,738.253,1969858
0.071228,0.0187988,1.02484,0.488281,-1.28174,-1.95312,-0.002,0.076,-76.85,-0.0364532,0.0258331,0,0,0,0,0,40.29,738.273,1969873
-0.00836182,-0.019043,1.04749,0.244141,-0.732422,-1.64795,0.016,-0.01,-76.82,-0.0364532,0.0259857,0,0,0,0,0,40.29,738.293,1969888
0.0806274,-0.00909424,1.0011,1.52588,-0.610352,-2.80762,0.027,0.078,-76.78,-0.0365295,0.0262909,0,0,0,0,0,40.29,738.313,1969918
-0.0151367,-0.0333252,1.05212,1.0376,0.183105,-2.86865,0.029,-0.02,-76.73,-0.0365295,0.0265045,0,0,0,0,0,40.29,738.333,1969933
-0.046814,0.0259399,1.0174,1.46484,1.77002,-2.38037,-0.035,-0.037,-76.69,-0.0365448,0.0266724,0,0,0,0,0,40.29,738.355,1969948
-0.0317383,-0.0378418,1.02771,1.40381,0.610352,-3.66211,0.031,-0.038,-76.57,-0.0365448,0.0271301,0,0,0,0,0,40.3,738.373,1969978
-0.0775146,0.0439453,0.989624,1.28174,1.34277,-2.80762,-0.058,-0.062,-76.53,-0.0365601,0.027298,0,0,0,0,0,40.3,738.393,1969993
0.0835571,0.00360107,1.005,1.2207,-0.0610352,-5.5542,0.019,0.084,-76.46,-0.0365906,0.0274811,0,0,0,0,0,40.3,738.414,1970008
-0.0509644,0.0230713,1.02814,0.671387,0.549316,-2.50244,-0.03,-0.041,-76.36,-0.0366058,0.0278015,0,0,0,0,0,40.3,738.433,1970038
0.0494385,0.00286865,0.999207,0.854492,-0.305176,-4.94385,0.012,0.051,-76.3,-0.0366211,0.0279236,0,0,0,0,0,40.3,738.458,1970053
-0.0231323,-0.0196533,0.97583,0.488281,-0.488281,-3.11279,0.017,-0.024,-76.23,-0.0366364,0.0280609,0,0,0,0,0,40.3,738.473,1970069
0.0612793,0.00012207,1.00116,1.77002,0.488281,-5.18799,0.019,0.061,-76.13,-0.0367279,0.0283203,0,0,0,0,0,40.3,738.496,1970098
-0.0211792,-0.0168457,0.993408,1.77002,0.549316,-2.44141,0.016,-0.022,-76.07,-0.0367737,0.0284882,0,0,0,0,0,40.3,738.513,1970113
0.0409546,0.0456543,1.01044,1.89209,0.183105,-2.44141,-0.029,0.053,-76.04,-0.0368347,0.0286713,0,0,0,0,0,40.3,738.533,1970129
-0.064209,-0.00549316,0.997131,2.99072,0.854492,-1.0376,-0.003,-0.06,-75.98,-0.0369263,0.0290375,0,0,0,0,0,40.3,738.553,1970158
0.0117798,0.0106812,1.01093,2.44141,0.244141,-0.427246,0,0.017,-75.97,-0.0369263,0.0291595,0,0,0,0,0,40.3,738.573,1970173
-0.0261841,-0.0135498,0.978394,2.86865,-0.183105,-1.2207,0.014,-0.025,-75.96,-0.0369263,0.0292664,0,0,0,0,0,40.3,738.593,1970189
0.0479736,0.00817871,1.00061,2.99072,-0.793457,-0.12207,0.013,0.051,-75.98,-0.0369263,0.0294037,0,0,0,0,0,40.3,738.615,1970218
-0.00213623,-0.00738525,1.02246,3.66211,-0.671387,0.244141,0.017,-0.001,-75.98,-0.0369263,0.0294952,0,0,0,0,0,40.3,738.637,1970233
-0.019104,0.0179443,1.03363,3.54004,0.793457,1.0376,-0.01,-0.011,-75.99,-0.0369263,0.0295868,0,0,0,0,0,40.3,738.653,1970249
0.0715332,0.0332031,0.992981,4.69971,0.244141,-1.2207,-0.002,0.079,-75.99,-0.0369263,0.0297089,0,0,0,0,0,40.3,738.673,1970263
-0.0136719,0.0140381,1.06519,5.06592,1.58691,0.305176,-0.001,-0.008,-75.97,-0.0368805,0.0300598,0,0,0,0,0,40.3,738.693,1970293
0.0285034,0.0361328,1.04602,5.49316,0.183105,-2.19727,-0.011,0.037,-75.96,-0.03685,0.0302429,0,0,0,0,0,40.3,738.713,1970309
-0.0144043,0.0310059,1.01691,5.85937,1.0376,0.244141,-0.013,-0.005,-75.94,-0.0367584,0.0305328,0,0,0,0,0,40.3,738.733,1970338
0.0151978,-0.0234985,1.04858,6.04248,0.0610352,-2.38037,0.048,0.009,-75.92,-0.0366821,0.0305328,0,0,0,0,0,40.3,738.754,1970353
-0.0718994,0.0395508,0.985596,7.08008,0.366211,-0.427246,-0.033,-0.059,-75.9,-0.0366058,0.0305023,0,0,0,0,0,40.3,738.773,1970369
0.0274048,0.0768433,1.08337,6.5918,-0.488281,-2.0752,-0.039,0.044,-75.85,-0.0365143,0.0304413,0,0,0,0,0,40.3,738.793,1970398
-0.0782471,0.00970459,1.07043,5.00488,0.732422,-1.09863,0,-0.074,-75.84,-0.036499,0.0304108,0,0,0,0,0,40.3,738.814,1970413
0.0508423,0.0415039,0.91864,2.19727,-0.854492,-0.366211,-0.002,0.058,-75.83,-0.036499,0.030365,0,0,0,0,0,40.3,738.834,1970429
0.00305176,0.0452881,0.960327,-0.244141,-0.793457,2.31934,-0.016,0.012,-75.85,-0.036499,0.0303802,0,0,0,0,0,40.3,738.853,1970443
-0.0100708,0.053772,0.960754,-2.01416,0.366211,1.0376,-0.026,0.001,-75.89,-0.0368958,0.0305176,0,0,0,0,0,40.26,738.884,1970489
-0.0100708,0.053772,0.960754,-2.01416,0.366211,1.0376,-0.026,0.001,-75.89,-0.0368958,0.0305176,0,0,0,0,0,40.26,738.894,1970489
-0.0565186,0.0940552,1.04004,-1.40381,0.854492,0.183105,-0.075,-0.033,-75.89,-0.0373383,0.0306854,0,0,0,0,0,40.26,738.913,1970518
0.0199585,0.0725098,1.00537,-1.58691,1.40381,1.0376,-0.037,0.036,-75.9,-0.037674,0.0307922,0,0,0,0,0,40.26,738.933,1970533
0.0519409,0.0298462,1.03381,-1.2207,0.305176,-0.183105,0.012,0.056,-75.91,-0.0380096,0.0309448,0,0,0,0,0,40.26,738.953,1970549
-0.046875,0.003479,0.988342,-1.34277,0.549316,-0.366211,0.012,-0.045,-75.9,-0.0380096,0.0311279,0,0,0,0,0,40.26,738.972,1970563
-0.00842285,0.116577,1.10034,-2.0752,0.610352,-1.64795,-0.085,0.02,-75.9,-0.0381012,0.0314484,0,0,0,0,0,40.26,738.993,1970593
-0.0776367,0.0365601,1.01617,-1.95312,0.549316,-0.427246,-0.027,-0.065,-75.89,-0.038269,0.031601,0,0,0,0,0,40.26,739.012,1970609
0.00439453,-0.0332031,1.02106,-3.60107,-1.09863,0.671387,0.06,-0.002,-75.9,-0.0384064,0.0316925,0,0,0,0,0,40.26,739.032,1970624
-0.05896,0.0527344,1.02008,-2.01416,-0.610352,-0.366211,-0.04,-0.042,-75.87,-0.0386353,0.031662,0,0,0,0,0,40.26,739.053,1970654
0.0317993,0.095459,1.07544,-1.77002,-0.305176,-0.366211,-0.058,0.055,-75.87,-0.0388336,0.0316315,0,0,0,0,0,40.26,739.073,1970669
0.00482178,-0.0415649,0.988403,-0.183105,0.244141,-1.34277,0.065,-0.005,-75.81,-0.0393829,0.0317688,0,0,0,0,0,40.26,739.096,1970699
0.0460205,0.0501709,1.00751,-0.671387,0.488281,-0.244141,-0.013,0.057,-75.81,-0.0396271,0.0319061,0,0,0,0,0,40.26,739.112,1970714
-0.00317383,-0.0631714,0.974487,-1.89209,-0.0610352,-3.54004,0.083,-0.018,-75.77,-0.0398254,0.0320587,0,0,0,0,0,40.26,739.133,1970729
-0.0291138,0.0578003,1.0354,-1.83105,1.77002,-1.0376,-0.039,-0.013,-75.74,-0.0399933,0.032196,0,0,0,0,0,40.26,739.153,1970744
0.00146484,0.0135498,0.960083,-3.11279,-0.610352,-2.2583,0.007,0.006,-75.7,-0.0402679,0.032196,0,0,0,0,0,40.26,739.175,1970774
-0.0507812,0.0336304,1.03479,-1.64795,0.732422,-0.915527,-0.023,-0.038,-75.68,-0.0404053,0.0321655,0,0,0,0,0,40.26,739.194,1970789
-0.0349121,-0.00170898,0.989014,-0.0610352,-1.2207,-1.0376,0.013,-0.031,-75.65,-0.0406189,0.0319672,0,0,0,0,0,40.26,739.213,1970819
-0.0426025,-0.0250244,1.03326,0,-0.854492,0.244141,0.034,-0.044,-75.64,-0.0406647,0.0317993,0,0,0,0,0,40.26,739.233,1970834
-0.010437,0.027832,1.0368,-0.976562,-1.77002,-0.488281,-0.008,0,-75.65,-0.0407104,0.031601,0,0,0,0,0,40.26,739.252,1970849
0.010437,-0.032959,1.03003,-1.15967,-0.610352,0.488281,0.054,0.004,-75.66,-0.0407715,0.031601,0,0,0,0,0,40.26,739.285,1970879
-0.0300293,-0.0321655,0.976257,-1.70898,-0.244141,0.793457,0.041,-0.035,-75.66,-0.0407715,0.031662,0,0,0,0,0,40.26,739.307,1970909
0.0579224,0,1.03363,-1.77002,0.488281,0.366211,0.032,0.058,-75.67,-0.0407104,0.0317078,0,0,0,0,0,40.26,739.327,1970924
-0.0198975,0.0455933,1.01135,0.732422,1.15967,-0.427246,-0.031,-0.006,-75.65,-0.0405121,0.0318298,0,0,0,0,0,40.26,739.351,1970954
-0.027771,-0.0246582,0.953491,-0.549316,-0.366211,-2.01416,0.033,-0.031,-75.61,-0.04039,0.0320129,0,0,0,0,0,40.28,739.385,1970984
-0.027771,-0.0246582,0.953491,-0.549316,-0.366211,-2.01416,0.033,-0.031,-75.61,-0.04039,0.0320129,0,0,0,0,0,40.28,739.393,1970984
0.0162964,0.0342407,1.01434,-1.15967,0.12207,-1.0376,-0.011,0.027,-75.6,-0.040329,0.0321503,0,0,0,0,0,40.28,739.413,1971014
-0.0231934,-0.0257568,0.940125,-1.46484,-0.915527,-1.70898,0.035,-0.026,-75.58,-0.0403137,0.0322266,0,0,0,0,0,40.28,739.432,1971029
-0.00415039,0.0501099,1.04962,-1.15967,0.305176,-0.244141,-0.031,0.012,-75.57,-0.0402832,0.0323029,0,0,0,0,0,40.28,739.453,1971044
-0.0358276,0.083374,1.008,-0.793457,0.12207,-1.64795,-0.073,-0.01,-75.53,-0.0401764,0.0323029,0,0,0,0,0,40.28,739.473,1971074
0.0151367,-0.0501099,1.06104,-0.610352,0.671387,-0.366211,0.069,0.005,-75.52,-0.0401154,0.0323029,0,0,0,0,0,40.28,739.494,1971089
0.0269165,-0.0273438,0.96936,-1.28174,-0.244141,-2.92969,0.048,0.022,-75.48,-0.0399933,0.0323181,0,0,0,0,0,40.28,739.512,1971104
0.0541382,-0.122925,0.971863,-1.15967,0.244141,-0.366211,0.147,0.025,-75.42,-0.0395966,0.0323792,0,0,0,0,0,40.28,739.533,1971134
-0.0424805,-0.000793457,0.984802,-0.732422,-0.427246,-2.0752,0.005,-0.037,-75.39,-0.0392456,0.0324097,0,0,0,0,0,40.28,739.552,1971149
-0.0228882,-0.00262451,1.06299,-1.2207,1.58691,0.183105,0.012,-0.017,-75.37,-0.0388947,0.0322723,0,0,0,0,0,40.28,739.573,1971179
-0.0307617,0.057251,1.00525,-0.12207,0.244141,-1.0376,-0.048,-0.01,-75.35,-0.0389099,0.0321655,0,0,0,0,0,40.28,739.594,1971194
-0.022644,0.00488281,1.02313,0.671387,0.183105,-0.183105,0.004,-0.015,-75.34,-0.0389709,0.0321655,0,0,0,0,0,40.28,739.613,1971209
-0.0195312,-0.00213623,1.03571,-0.183105,0.305176,0,0.012,-0.014,-75.35,-0.0390167,0.0321655,0,0,0,0,0,40.28,739.633,1971224
-0.0176392,0.0133667,1.00842,-0.305176,-0.183105,0.732422,-0.002,-0.008,-75.36,-0.039032,0.0321655,0,0,0,0,0,40.28,739.653,1971254
-0.0172729,0.0418091,1.02252,-1.0376,0.305176,0,-0.03,0,-75.36,-0.0390472,0.0321655,0,0,0,0,0,40.28,739.673,1971269
0.0360718,-0.0372314,0.964539,-1.2207,-0.305176,0.854492,0.059,0.03,-75.37,-0.0390472,0.032196,0,0,0,0,0,40.28,739.693,1971284
-0.0356445,0.00866699,1.0011,-0.854492,-0.305176,-0.427246,-0.003,-0.027,-75.38,-0.039032,0.0322723,0,0,0,0,0,40.28,739.713,1971314
-0.0344849,0.0090332,1.00458,-0.12207,0.793457,1.0376,-0.003,-0.025,-75.39,-0.039032,0.0322571,0,0,0,0,0,40.28,739.733,1971329
-0.0180054,0.0363159,1.01471,0.0610352,-0.305176,-0.488281,-0.025,-0.002,-75.39,-0.0389252,0.0322266,0,0,0,0,0,40.28,739.754,1971359
-0.0137329,-0.00445557,1.01428,0.610352,0.427246,0.854492,0.015,-0.008,-75.4,-0.0388641,0.0322266,0,0,0,0,0,40.28,739.783,1971374
0.0196533,0.0220337,1.0506,-0.12207,0.305176,-0.12207,-0.001,0.03,-75.4,-0.0388641,0.0322418,0,0,0,0,0,40.28,739.793,1971389
-0.00915527,0.0101318,0.999512,0,-0.488281,0.915527,0.001,0,-75.41,-0.0388031,0.0322571,0,0,0,0,0,40.28,739.822,1971419
-0.0202637,-0.00531006,1.01398,-1.09863,-0.854492,-1.34277,0.014,-0.015,-75.41,-0.0387421,0.0322571,0,0,0,0,0,40.28,739.834,1971434
-0.0123291,0.0372925,1.03271,0.427246,-0.549316,-0.305176,-0.024,0.003,-75.39,-0.038559,0.0322571,0,0,0,0,0,40.28,739.866,1971464
-0.012146,-0.0122681,1.06433,-0.427246,-0.549316,-2.01416,0.023,-0.008,-75.37,-0.0384674,0.0322571,0,0,0,0,0,40.28,739.875,1971479
-0.00524902,-0.00799561,0.973328,0.12207,0,-0.183105,0.019,-0.001,-75.36,-0.0383606,0.0322571,0,0,0,0,0,40.26,739.893,1971494
0.00708008,0.125427,1.08942,0.12207,1.15967,-0.366211,-0.104,0.044,-75.35,-0.0382996,0.0322876,0,0,0,0,0,40.26,739.913,1971510
-0.0472412,0.0651245,1.07355,-0.12207,2.01416,-1.52588,-0.06,-0.022,-75.34,-0.0383606,0.0323334,0,0,0,0,0,40.26,739.933,1971524
0.0220337,0.00183105,1.04193,-1.46484,0.427246,-0.671387,0.017,0.028,-75.33,-0.0383759,0.0324707,0,0,0,0,0,40.26,739.953,1971554
-0.0337524,0.0700684,0.995972,-0.183105,0.305176,-1.77002,-0.063,-0.008,-75.3,-0.0383911,0.0325775,0,0,0,0,0,40.26,739.973,1971570
-0.0378418,0.0158691,1.06311,-0.549316,0.854492,0.0610352,-0.01,-0.025,-75.3,-0.0384369,0.0327148,0,0,0,0,0,40.26,739.996,1971599
-0.0158081,0.0244141,0.974976,0.671387,-0.305176,0.305176,-0.014,-0.002,-75.3,-0.0384369,0.0327301,0,0,0,0,0,40.26,740.013,1971614
-0.0393677,0.0424194,1.01587,1.34277,-0.793457,2.0752,-0.037,-0.02,-75.32,-0.0384827,0.0327454,0,0,0,0,0,40.26,740.033,1971630
-0.0300903,-0.0249634,0.988159,0.0610352,-1.89209,0.427246,0.03,-0.029,-75.34,-0.0385132,0.0327148,0,0,0,0,0,40.26,740.053,1971644
-0.0159912,0.0614624,1.0907,0.610352,-0.183105,1.09863,-0.048,0.006,-75.37,-0.0385742,0.0326691,0,0,0,0,0,40.26,740.073,1971674
-0.00115967,6.10352e-05,1.00403,0.732422,-1.28174,-0.12207,0.013,0.004,-75.37,-0.0386353,0.0326691,0,0,0,0,0,40.26,740.096,1971690
0.0249023,-0.0645142,1.034,-0.183105,0.183105,-0.183105,0.083,0.012,-75.37,-0.0386353,0.0326691,0,0,0,0,0,40.26,740.113,1971719
-0.00744629,0.0323486,1.04413,-0.427246,-0.183105,-1.58691,-0.018,0.005,-75.36,-0.0385437,0.0326691,0,0,0,0,0,40.26,740.133,1971734
-0.0172119,0.0107422,0.981445,-0.549316,0.671387,-0.488281,0,-0.009,-75.34,-0.0385437,0.0326691,0,0,0,0,0,40.26,740.153,1971750
-0.0045166,0.046875,1.01251,-0.732422,-0.854492,-1.70898,-0.032,0.012,-75.3,-0.038559,0.0327148,0,0,0,0,0,40.26,740.173,1971779
-0.0267944,0.00897217,1.01447,0.732422,0.244141,-1.58691,-0.001,-0.018,-75.28,-0.0385895,0.0327301,0,0,0,0,0,40.26,740.199,1971794
-0.0227051,0.00866699,1.06348,0,0.183105,-2.38037,0,-0.014,-75.25,-0.0386353,0.0327301,0,0,0,0,0,40.26,740.213,1971810
-0.0441284,-0.00762939,1.00793,0.854492,-0.671387,-1.34277,0.01,-0.039,-75.2,-0.0386353,0.0326385,0,0,0,0,0,40.26,740.236,1971839
-0.00610352,0.0114136,1.0874,0.0610352,-0.671387,-1.83105,0.002,0.002,-75.17,-0.0386353,0.032547,0,0,0,0,0,40.26,740.253,1971854
0.00689697,-0.0291138,0.976379,0.549316,-1.34277,-1.34277,0.043,0.003,-75.15,-0.0386047,0.032547,0,0,0,0,0,40.26,740.273,1971870
0.010498,0.00250244,1.03015,0.915527,-1.2207,-1.0376,0.014,0.015,-75.14,-0.0385284,0.032547,0,0,0,0,0,40.26,740.293,1971884
0.0144653,-0.0795898,0.983704,1.15967,-0.549316,-0.305176,0.094,-0.002,-75.1,-0.0382843,0.032547,0,0,0,0,0,40.26,740.313,1971914
0.0239868,0.0401611,1.04272,1.28174,0.244141,-0.244141,-0.017,0.037,-75.1,-0.0380707,0.0325775,0,0,0,0,0,40.26,740.333,1971930
-0.0103149,0.0443115,0.991943,2.19727,0.793457,-0.793457,-0.03,0.005,-75.06,-0.0375671,0.0326385,0,0,0,0,0,40.26,740.354,1971959
0.0321045,-0.11615,0.975403,1.28174,-0.549316,-1.77002,0.135,0.004,-75.04,-0.0372314,0.0326385,0,0,0,0,0,40.26,740.376,1971974
-0.0098877,0.00341797,0.920959,0,-1.28174,-1.52588,0.008,-0.004,-75.02,-0.0368042,0.0326385,0,0,0,0,0,40.26,740.394,1971990
-0.0322876,0.00366211,1.0545,0.488281,0.671387,-1.40381,0.004,-0.025,-74.99,-0.0359802,0.0325623,0,0,0,0,0,40.28,740.413,1972019
0.017395,0.0793457,1.0105,-0.0610352,-0.671387,-1.77002,-0.056,0.042,-74.97,-0.0355988,0.0325317,0,0,0,0,0,40.28,740.434,1972035
0.000305176,0.0895386,1.04016,1.15967,0.488281,-2.01416,-0.07,0.028,-74.94,-0.0353088,0.032547,0,0,0,0,0,40.28,740.453,1972050
-0.0479736,-0.00848389,1.03607,0.12207,0,-2.92969,0.012,-0.043,-74.91,-0.0350647,0.032547,0,0,0,0,0,40.28,740.472,1972065
0.00561523,-0.0393066,1.02277,0.732422,0.671387,-1.70898,0.056,0,-74.85,-0.0350342,0.0325775,0,0,0,0,0,40.28,740.492,1972095
-0.00708008,0.00708008,1.01349,0.488281,0.244141,-3.23486,0.008,0,-74.81,-0.0349426,0.0325775,0,0,0,0,0,40.28,740.515,1972110
-0.0232544,0.00854492,1.04547,0.183105,1.15967,-2.38037,0.003,-0.015,-74.77,-0.0348511,0.0325775,0,0,0,0,0,40.28,740.533,1972125
0.00299072,0.0341797,0.934875,-0.12207,0.244141,-1.34277,-0.016,0.016,-74.72,-0.0348511,0.0325775,0,0,0,0,0,40.28,740.552,1972155
-0.0262451,-0.00115967,0.969727,0.0610352,0.488281,-0.610352,0.01,-0.02,-74.7,-0.0348511,0.0325775,0,0,0,0,0,40.28,740.572,1972170
-0.0256958,-0.0133057,1.08563,-1.34277,1.40381,-0.12207,0.024,-0.022,-74.7,-0.0348358,0.032547,0,0,0,0,0,40.28,740.593,1972185
-0.013855,-0.00201416,1.01495,0.549316,-0.366211,-0.610352,0.015,-0.008,-74.69,-0.034729,0.0325012,0,0,0,0,0,40.28,740.612,1972215
-0.0442505,-0.0153198,1.06494,-0.854492,0,-0.0610352,0.021,-0.04,-74.69,-0.0346527,0.0324554,0,0,0,0,0,40.28,740.632,1972230
0.0234985,0.043396,0.993652,0.427246,-0.0610352,0.610352,-0.018,0.039,-74.69,-0.0345764,0.0324097,0,0,0,0,0,40.28,740.654,1972245
-0.0310059,0.0100708,0.998291,-0.244141,0.12207,0.183105,-0.001,-0.021,-74.7,-0.0345154,0.0323639,0,0,0,0,0,40.28,740.673,1972275
0.026001,0.0101929,0.998474,0,0.12207,0.488281,0.013,0.033,-74.7,-0.0345154,0.0323334,0,0,0,0,0,40.28,740.693,1972290
-0.0288696,-0.09198,1.06647,-0.671387,0.427246,-0.305176,0.098,-0.046,-74.7,-0.0344391,0.0323029,0,0,0,0,0,40.28,740.713,1972305
0.00720215,0.0366211,1.03064,-1.0376,-0.12207,0.976562,-0.016,0.022,-74.73,-0.0340881,0.0321655,0,0,0,0,0,40.28,740.733,1972335
-0.053772,0.0375977,1.08185,-1.40381,0.610352,-0.12207,-0.033,-0.034,-74.73,-0.0339355,0.0321045,0,0,0,0,0,40.28,740.752,1972350
0.0108032,0.0100098,0.968323,-0.854492,0.12207,0.793457,0.008,0.019,-74.74,-0.0337982,0.0320282,0,0,0,0,0,40.28,740.773,1972365
-0.0357056,0.0517578,1.06476,-0.183105,0.183105,-0.183105,-0.042,-0.013,-74.73,-0.0335693,0.0320282,0,0,0,0,0,40.28,740.793,1972395
0.0229492,0.0210571,1.00812,-1.09863,0.488281,0.183105,0.001,0.034,-74.74,-0.033493,0.0320435,0,0,0,0,0,40.28,740.813,1972410
-0.0269775,0.170593,1.10327,-0.427246,1.77002,-1.15967,-0.155,0.026,-74.73,-0.0335236,0.0321045,0,0,0,0,0,40.28,740.833,1972425
0.0169678,-0.000793457,0.943298,-1.0376,-0.854492,-0.549316,0.019,0.022,-74.71,-0.0337524,0.0323334,0,0,0,0,0,40.28,740.853,1972455
-0.0377808,-0.00439453,1.10925,-1.70898,0.183105,-1.70898,0.01,-0.03,-74.69,-0.0337524,0.0324554,0,0,0,0,0,40.28,740.873,1972470
-0.0032959,-0.0931396,0.954041,-2.01416,-0.0610352,0.0610352,0.102,-0.02,-74.68,-0.0336761,0.032547,0,0,0,0,0,40.28,740.893,1972485
-0.0452271,-0.0318604,1.0965,-1.28174,0.610352,-1.15967,0.033,-0.044,-74.65,-0.0333557,0.0326996,0,0,0,0,0,40.26,740.914,1972515
0.0171509,0.0256958,0.974243,-1.09863,0.488281,-1.09863,-0.007,0.03,-74.64,-0.0331573,0.0327454,0,0,0,0,0,40.26,740.933,1972530
-0.0109863,-0.00256348,1.01971,-0.732422,0.244141,-2.13623,0.012,-0.003,-74.61,-0.032959,0.0328217,0,0,0,0,0,40.26,740.952,1972545
0.000427246,-0.0289917,0.970825,0.549316,0.0610352,-0.427246,0.04,0,-74.58,-0.0326385,0.0328217,0,0,0,0,0,40.26,740.972,1972575
-0.0547485,0.00946045,1.08667,-0.183105,-0.183105,0.0610352,-0.009,-0.041,-74.57,-0.0324707,0.0327911,0,0,0,0,0,40.26,740.994,1972590
-0.00769043,-0.0155029,0.96582,-0.366211,-1.0376,1.15967,0.025,-0.003,-74.61,-0.032196,0.0326691,0,0,0,0,0,40.26,741.018,1972620
-0.0368042,-0.00360107,1.1026,-1.64795,-1.0376,1.89209,0.007,-0.027,-74.63,-0.0320587,0.0325775,0,0,0,0,0,40.26,741.033,1972635
0.0171509,0.0574951,0.951416,-0.732422,-1.0376,1.83105,-0.039,0.039,-74.67,-0.0319214,0.0325012,0,0,0,0,0,40.26,741.055,1972650
-0.00195312,-0.0241699,1.01337,-0.976562,-1.0376,0.549316,0.035,0,-74.68,-0.0317993,0.0324402,0,0,0,0,0,40.26,741.073,1972665
0.0296631,0.0167847,0.942139,0.183105,-0.793457,0,0.003,0.039,-74.71,-0.0316467,0.0323029,0,0,0,0,0,40.26,741.093,1972695
0.024292,-0.022583,1.00415,0.488281,-0.244141,-0.793457,0.04,0.024,-74.69,-0.0316162,0.0322723,0,0,0,0,0,40.26,741.113,1972710
-0.0214844,-0.0109253,1.02148,-0.488281,-0.976562,-1.52588,0.016,-0.017,-74.68,-0.0315552,0.0322571,0,0,0,0,0,40.26,741.133,1972725
-0.00689697,-0.0170288,1.07867,-0.549316,0.488281,-2.50244,0.026,-0.004,-74.62,-0.0314484,0.0322723,0,0,0,0,0,40.26,741.153,1972755
-0.0322876,0.0245972,0.996033,-0.915527,-0.0610352,-1.0376,-0.021,-0.017,-74.6,-0.0314026,0.0322723,0,0,0,0,0,40.26,741.173,1972770
-0.00506592,0.00897217,0.966797,-0.488281,-0.732422,-2.01416,0,0.004,-74.58,-0.0313568,0.0322723,0,0,0,0,0,40.26,741.193,1972785
-0.0310059,0.0289307,0.987854,-0.366211,-0.793457,-1.28174,-0.025,-0.014,-74.54,-0.03125,0.0322113,0,0,0,0,0,40.26,741.213,1972815
-0.0142822,-0.0487671,0.988037,-0.0610352,-1.28174,-1.34277,0.054,-0.019,-74.52,-0.0311737,0.032135,0,0,0,0,0,40.26,741.234,1972830
-0.0150146,0.0241699,1.05994,-0.915527,-0.488281,-0.854492,-0.016,0,-74.51,-0.0310669,0.032135,0,0,0,0,0,40.26,741.253,1972845
0.0020752,0.00939941,0.99884,-0.244141,-1.34277,-2.50244,0.001,0.011,-74.44,-0.0309753,0.032135,0,0,0,0,0,40.26,741.273,1972875
-0.00842285,0.0360107,1.00787,-0.915527,-0.732422,-1.70898,-0.026,0.008,-74.41,-0.0309906,0.032135,0,0,0,0,0,40.26,741.293,1972890
-0.017334,0.00561523,1.07745,-0.427246,-0.0610352,-1.64795,0,-0.008,-74.34,-0.0310059,0.032135,0,0,0,0,0,40.26,741.316,1972920
-0.0186157,-0.0106812,0.961487,-0.183105,0.12207,-1.64795,0.014,-0.014,-74.32,-0.0310059,0.032135,0,0,0,0,0,40.26,741.333,1972935
-0.0498047,0.0131226,1.09521,-0.183105,0.915527,-1.0376,-0.015,-0.037,-74.27,-0.0309296,0.0321198,0,0,0,0,0,40.26,741.363,1972965
-0.0498047,0.0131226,1.09521,-0.183105,0.915527,-1.0376,-0.015,-0.037,-74.27,-0.0309296,0.0321198,0,0,0,0,0,40.26,741.374,1972965
0.0354614,-0.0164185,0.966309,-0.244141,-0.488281,-1.64795,0.034,0.036,-74.23,-0.0308228,0.0319824,0,0,0,0,0,40.26,741.393,1972995
-0.0505371,0.0143433,1.05829,-0.610352,0.549316,-0.0610352,-0.017,-0.037,-74.22,-0.0307465,0.0319061,0,0,0,0,0,40.26,741.413,1973011
0.0217285,0.00457764,1.0307,-0.305176,-0.671387,-1.64795,0.01,0.029,-74.18,-0.0306854,0.0317688,0,0,0,0,0,40.27,741.44,1973040
-0.0515137,0.0420532,1.01605,-0.732422,-0.244141,-0.610352,-0.045,-0.03,-74.16,-0.0307007,0.031723,0,0,0,0,0,40.27,741.453,1973055
0.0010376,0.074585,0.976013,-0.244141,0.305176,-1.83105,-0.063,0.028,-74.09,-0.0307312,0.0316772,0,0,0,0,0,40.27,741.501,1973100
0.06073,-0.0379028,0.992126,0.793457,-0.183105,-2.74658,0.061,0.055,-74.05,-0.0307465,0.0317535,0,0,0,0,0,40.27,741.513,1973115
-0.0336304,0.012207,1.03656,0.793457,0.732422,-1.15967,-0.011,-0.021,-74.02,-0.0307159,0.0318604,0,0,0,0,0,40.27,741.533,1973131
-0.0383911,-0.00708008,0.946899,0.610352,0.183105,-0.671387,0.004,-0.031,-74.02,-0.0307007,0.0319214,0,0,0,0,0,40.27,741.553,1973145
-0.057251,0.010437,1.05304,-0.183105,0.915527,1.2207,-0.016,-0.043,-74,-0.0307007,0.0319672,0,0,0,0,0,40.27,741.573,1973175
0.0098877,0.00469971,0.975891,0.183105,-0.610352,-0.488281,0.007,0.019,-74.01,-0.0307007,0.0319366,0,0,0,0,0,40.27,741.594,1973191
-0.0482178,-0.0202026,1.01422,-0.0610352,-0.366211,-1.89209,0.015,-0.043,-73.97,-0.0307007,0.0319061,0,0,0,0,0,40.27,741.614,1973205
0.0647583,-0.0352783,1.01654,-0.12207,-0.793457,-0.305176,0.061,0.06,-73.98,-0.0307312,0.0318756,0,0,0,0,0,40.27,741.634,1973235
-0.0524902,0.0193481,1.0484,0.610352,0.366211,-1.46484,-0.023,-0.036,-73.95,-0.0307159,0.0319214,0,0,0,0,0,40.27,741.653,1973251
0.0194092,-0.00939941,0.985168,0.488281,0.244141,0.366211,0.023,0.023,-73.96,-0.0306854,0.0319366,0,0,0,0,0,40.27,741.674,1973265
-0.0357056,-0.015564,1.03699,0.305176,0.305176,-0.183105,0.014,-0.03,-73.93,-0.0305481,0.0321198,0,0,0,0,0,40.27,741.694,1973295
0.0280151,0.0484009,0.974731,0.427246,-0.305176,0.488281,-0.029,0.047,-73.95,-0.0304718,0.0322113,0,0,0,0,0,40.27,741.713,1973311
-0.0351562,0.0561523,1.04431,-0.488281,0.549316,1.46484,-0.053,-0.009,-73.95,-0.0303192,0.0323334,0,0,0,0,0,40.27,741.735,1973340
0.036377,-0.00665283,0.966675,-0.854492,-0.12207,0.305176,0.025,0.041,-73.96,-0.0302582,0.0323944,0,0,0,0,0,40.27,741.753,1973355
-0.0863647,0.0496826,1.06696,-1.09863,0.183105,-0.0610352,-0.061,-0.06,-73.96,-0.0302277,0.0324402,0,0,0,0,0,40.27,741.774,1973371
0.0227661,-0.0698853,1.00867,-1.09863,-0.915527,-0.305176,0.082,0.01,-73.97,-0.030304,0.0325012,0,0,0,0,0,40.27,741.8,1973400
-0.0166016,0.0967407,1.0354,0,0.12207,0,-0.088,0.019,-73.97,-0.0303497,0.0325623,0,0,0,0,0,40.27,741.813,1973415
0.0178833,-0.00439453,0.976624,0.305176,-0.12207,-0.12207,0.018,0.023,-73.97,-0.030426,0.0326691,0,0,0,0,0,40.27,741.837,1973431
-0.00482178,0.00341797,1.03668,0.671387,-0.915527,-1.46484,0.004,0.004,-73.95,-0.030426,0.0327759,0,0,0,0,0,40.27,741.853,1973446
0.0440063,0.00390625,0.98822,-0.12207,0.183105,-0.793457,0.017,0.051,-73.94,-0.0305023,0.03302,0,0,0,0,0,40.27,741.874,1973476
-0.0630493,-0.0424194,1.01453,-0.549316,0.610352,-1.95312,0.032,-0.064,-73.91,-0.0305176,0.0331421,0,0,0,0,0,40.27,741.893,1973491
0.0458984,-0.0438843,1.01654,-1.70898,0.366211,-2.86865,0.063,0.04,-73.87,-0.0305481,0.0334015,0,0,0,0,0,40.27,741.915,1973521
-0.0495605,0.0567017,1.06592,-0.854492,0.549316,-1.40381,-0.059,-0.022,-73.84,-0.0305634,0.0335693,0,0,0,0,0,40.26,741.933,1973536
-0.00872803,0.0358276,0.990601,-0.488281,0.305176,-1.34277,-0.028,0.01,-73.83,-0.0306244,0.0337372,0,0,0,0,0,40.26,741.953,1973551
-0.0348511,-0.00769043,1.02362,0.427246,-0.549316,-1.77002,0.006,-0.026,-73.8,-0.0307159,0.0338898,0,0,0,0,0,40.26,741.972,1973566
0.00872803,0.0221558,0.973816,0.0610352,-1.34277,-0.366211,-0.01,0.023,-73.82,-0.0307922,0.0340729,0,0,0,0,0,40.26,741.993,1973596
-0.0480957,-0.0794067,1.04309,-0.12207,-1.58691,0.183105,0.071,-0.059,-73.81,-0.0307465,0.0341492,0,0,0,0,0,40.26,742.012,1973611
-0.0230713,0.0244141,1.00323,-0.732422,-0.610352,3.2959,-0.022,-0.006,-73.85,-0.0306702,0.0341644,0,0,0,0,0,40.26,742.034,1973626
-0.02771,0.0205078,1.07037,-0.366211,-0.793457,0.793457,-0.019,-0.012,-73.88,-0.0305023,0.0342712,0,0,0,0,0,40.26,742.052,1973656
0.0281982,0.0204468,0.976562,-0.0610352,-0.427246,0.488281,-0.004,0.04,-73.89,-0.030426,0.0343475,0,0,0,0,0,40.26,742.073,1973671
0.0454102,0.00683594,0.989075,0.305176,-0.610352,-2.0752,0.013,0.052,-73.87,-0.030426,0.0345001,0,0,0,0,0,40.26,742.093,1973686
0.00933838,0.0127563,0.989502,-0.915527,0.427246,-2.31934,-0.002,0.019,-73.82,-0.0303345,0.034668,0,0,0,0,0,40.26,742.113,1973716
-0.00317383,-0.00244141,1.06714,-0.732422,0.488281,-3.17383,0.008,0.004,-73.78,-0.0302887,0.034668,0,0,0,0,0,40.26,742.133,1973731
-0.0643311,-0.0256958,1.02393,-1.70898,1.58691,-0.793457,0.013,-0.061,-73.76,-0.0302887,0.0346375,0,0,0,0,0,40.26,742.152,1973746
-0.0188599,-0.026001,1.04724,-1.40381,-0.610352,-2.01416,0.025,-0.017,-73.71,-0.0302734,0.0344696,0,0,0,0,0,40.26,742.173,1973776
-0.0501099,0.074585,1.00305,0.671387,-0.183105,-0.244141,-0.079,-0.018,-73.7,-0.0303192,0.0344696,0,0,0,0,0,40.26,742.193,1973791
0.022644,0.0252686,0.98468,2.74658,-1.77002,-2.56348,-0.01,0.036,-73.68,-0.0304108,0.0344849,0,0,0,0,0,40.26,742.213,1973806
-0.0310059,0.0509033,1.04578,4.88281,-0.366211,-0.549316,-0.046,-0.008,-73.64,-0.0307465,0.0345917,0,0,0,0,0,40.26,742.233,1973836
0.0427856,-0.0280762,0.968506,4.5166,-1.46484,-1.46484,0.05,0.038,-73.62,-0.0309296,0.0346527,0,0,0,0,0,40.26,742.253,1973851
-0.0501709,0.0264893,0.972717,0.549316,-1.0376,-0.366211,-0.028,-0.035,-73.6,-0.0311127,0.034729,0,0,0,0,0,40.26,742.273,1973866
0.0250854,0.0388184,1.00031,-3.479,-0.0610352,-0.854492,-0.019,0.04,-73.61,-0.0314331,0.0348816,0,0,0,0,0,40.26,742.297,1973896
-0.0610962,0.00512695,1.0567,-3.90625,0.183105,-0.671387,-0.011,-0.051,-73.59,-0.0316162,0.0349731,0,0,0,0,0,40.26,742.313,1973911
-0.00958252,0.0670776,1.04364,-3.11279,2.31934,1.09863,-0.056,0.015,-73.61,-0.0318298,0.0350342,0,0,0,0,0,40.26,742.333,1973926
-0.0281982,-0.000305176,1.01715,0.488281,0,-2.31934,0.002,-0.021,-73.56,-0.0324249,0.0352325,0,0,0,0,0,40.26,742.353,1973956
-0.0299072,-0.0314941,1.02734,0.12207,0.244141,0.366211,0.032,-0.031,-73.56,-0.0326996,0.0353088,0,0,0,0,0,40.26,742.373,1973971
0.0175171,0.0857544,0.9953,1.15967,0.244141,-1.0376,-0.066,0.047,-73.55,-0.0330048,0.0353851,0,0,0,0,0,40.26,742.393,1973986
-0.0567017,0.0100098,1.04883,2.50244,-0.549316,-1.70898,-0.012,-0.045,-73.49,-0.033371,0.0355988,0,0,0,0,0,40.26,742.413,1974016
-0.00476074,0.0280762,1.02521,2.68555,0.12207,-0.610352,-0.014,0.008,-73.48,-0.033371,0.0356598,0,0,0,0,0,40.26,742.433,1974031
0.0102539,-0.00994873,0.945312,0.549316,-0.244141,-0.488281,0.025,0.011,-73.47,-0.033371,0.0357361,0,0,0,0,0,40.28,742.452,1974046
-0.0267334,0.0144653,1.0354,-1.58691,0.488281,-0.671387,-0.007,-0.016,-73.46,-0.0334015,0.0357361,0,0,0,0,0,40.28,742.473,1974076
-0.000183105,-0.00219727,1.00702,-1.83105,-0.427246,0.488281,0.014,0.004,-73.46,-0.0334015,0.0357361,0,0,0,0,0,40.28,742.492,1974091
0.0274048,0.0715332,0.992981,-1.28174,0.183105,0.0610352,-0.047,0.051,-73.47,-0.0334167,0.0357819,0,0,0,0,0,40.28,742.513,1974106
6.10352e-05,-0.112122,0.984436,-0.549316,-0.0610352,-0.244141,0.12,-0.026,-73.44,-0.0335083,0.0358582,0,0,0,0,0,40.28,742.532,1974136
-0.0131836,0.013855,1.00146,-0.976562,0.183105,0.366211,-0.004,-0.003,-73.44,-0.033432,0.0358734,0,0,0,0,0,40.28,742.555,1974151
-0.0126953,0.0139771,1.03778,-1.40381,1.2207,-1.09863,-0.003,-0.002,-73.43,-0.033371,0.0358734,0,0,0,0,0,40.28,742.573,1974166
-0.00811768,0.00402832,1.00171,0.671387,-0.183105,-0.366211,0.006,0,-73.41,-0.0332947,0.0358734,0,0,0,0,0,40.28,742.593,1974196
-0.0324097,0.0568848,1.03137,2.38037,0.0610352,-1.2207,-0.049,-0.009,-73.39,-0.0332794,0.0358734,0,0,0,0,0,40.28,742.613,1974211
-0.00561523,0.0404053,0.99884,4.3335,-0.427246,2.62451,-0.023,0.011,-73.43,-0.0334167,0.0358734,0,0,0,0,0,40.28,742.638,1974241
-0.0256348,0.0339966,0.997375,2.80762,-0.610352,1.89209,-0.022,-0.01,-73.46,-0.0335388,0.0358734,0,0,0,0,0,40.28,742.656,1974256
-0.0127563,0.0285645,1.00311,-0.0610352,-0.732422,1.2207,-0.013,0,-73.48,-0.0336761,0.0358734,0,0,0,0,0,40.28,742.673,1974271
0.00128174,-0.0126343,0.979919,-3.17383,-0.854492,-0.0610352,0.029,0.001,-73.49,-0.0337982,0.0358734,0,0,0,0,0,40.28,742.693,1974286
