raw_accel_x,raw_accel_y,raw_accel_z,world_accel_x,world_accel_y,yaw,left_encoder_rate,right_encoder_rate,fpga time,navx time
0.0234375,-0.00683594,1.01373,-0.001,0.001,-32.79,0,0,786.374,9019583
0.0237427,-0.00897217,1.02026,0,0,-32.79,0,0,786.392,9019598
0.0222778,-0.00952148,1.02545,-0.001,-0.001,-32.79,0,0,786.412,9019628
0.0247803,-0.00964355,1.01068,0,0,-32.79,0,0,786.432,9019643
0.0256348,-0.0103149,1.01819,0.001,0,-32.79,0,0,786.452,9019658
0.026001,-0.0115967,1.01508,0.002,0,-32.79,0,0,786.472,9019688
0.0239868,-0.00775146,1.01672,-0.001,0.001,-32.79,0,0,786.492,9019703
0.0229492,-0.00750732,1.01263,-0.001,0,-32.79,0,0,786.513,9019718
0.024292,-0.0100098,1.01532,0,0,-32.79,0,0,786.535,9019748
0.022583,-0.010376,1.01813,0,-0.001,-32.79,0,0,786.552,9019763
0.0219116,-0.0055542,1.01294,-0.003,0.001,-32.79,0,0,786.572,9019778
0.0237427,-0.00738525,1.01562,-0.001,0.001,-32.79,0,0,786.592,9019808
0.024231,-0.0111694,1.01154,0.001,-0.001,-32.79,0,0,786.612,9019823
0.0248413,-0.0101318,1.01825,0,0,-32.79,0,0,786.632,9019838
0.0221558,-0.00958252,1.02356,-0.001,-0.001,-32.79,0,0,786.652,9019868
0.0264893,-0.00775146,1.0166,0.001,0.002,-32.79,0,0,786.673,9019883
0.0236206,-0.0101318,1.01312,0,0,-32.79,0,0,786.694,9019913
0.0217896,-0.00848389,1.0116,-0.002,0,-32.79,0,0,786.713,9019928
0.0240479,-0.00994873,1.02063,0,0,-32.79,0,0,786.732,9019943
0.0239258,-0.0123291,1.0174,0.001,-0.002,-32.79,0,0,786.752,9019958
0.0237427,-0.00683594,1.01416,-0.001,0.002,-32.79,0,0,786.772,9019988
0.0214233,-0.0098877,1.02167,-0.002,-0.001,-32.79,0,0,786.792,9020003
0.0238647,-0.00732422,1.01886,-0.001,0.001,-32.79,0,0,786.814,9020033
0.0266724,-0.010437,1.01404,0.002,0,-32.79,0,0,786.832,9020048
0.0220337,-0.010376,1.01495,-0.001,-0.001,-32.79,0,0,786.852,9020063
0.0240479,-0.00634766,1.02167,-0.001,0.002,-32.79,0,0,786.873,9020078
0.0224609,-0.00842285,1.01794,-0.001,0,-32.79,0,0,786.893,9020108
0.0220947,-0.00598145,1.01135,-0.003,0.001,-32.79,0,0,786.912,9020123
0.0234985,-0.00872803,1.01355,0,0,-32.79,0,0,786.932,9020138
0.0263062,-0.0109863,1.01965,0.002,0,-32.79,0,0,786.952,9020168
0.0252075,-0.010498,1.01672,0.001,0,-32.79,0,0,786.972,9020183
0.0247803,-0.0111694,1.01117,0.001,-0.001,-32.79,0,0,786.992,9020198
0.0247803,-0.00689697,1.00873,0,0.002,-32.79,0,0,787.015,9020228
0.0245972,-0.0101318,1.01862,0,0,-32.78,0,0,787.033,9020243
0.0238647,-0.0088501,1.0047,0,0,-32.78,0,0,787.053,9020258
0.0236206,-0.00964355,1.01208,0,0,-32.78,0,0,787.073,9020288
0.0215454,-0.00891113,1.01532,-0.002,-0.001,-32.78,0,0,787.096,9020303
0.0245972,-0.0065918,1.02002,-0.001,0.002,-32.78,0,0,787.112,9020318
0.0257568,-0.00732422,1.02106,0,0.002,-32.78,0,0,787.132,9020348
0.0257568,-0.00732422,1.02106,0,0.002,-32.78,0,0,787.152,9020348
0.0257568,-0.00732422,1.02106,0,0.002,-32.78,0,0,787.172,9020348
0.0257568,-0.00732422,1.02106,0,0.002,-32.78,0,0,787.195,9020348
0.0230713,-0.0065918,1.0119,-0.002,0.001,-32.78,0,0,787.212,9020429
0.0252075,-0.00976562,1.02277,0.001,0,-32.78,0,0,787.233,9020439
0.0239258,-0.00695801,1.01666,-0.001,0.001,-32.78,0,0,787.252,9020468
0.0246582,-0.00939941,1.0163,0,0,-32.78,0,0,787.272,9020483
0.024292,-0.00769043,1.00891,0,0.001,-32.78,0,0,787.292,9020499
0.0220337,-0.00775146,1.01312,-0.002,0,-32.78,0,0,787.311,9020528
0.0265503,-0.0090332,1.01855,0.001,0.001,-32.78,0,0,787.332,9020543
0.0265503,-0.00695801,1.01373,0,0.003,-32.78,0,0,787.354,9020559
0.0231323,-0.00823975,1.01752,-0.001,0,-32.78,0,0,787.373,9020588
0.0232544,-0.00878906,1.01044,0,0,-32.78,0,0,787.393,9020603
0.0241089,-0.00891113,1.01978,0,0,-32.78,0,0,787.412,9020619
0.0240479,-0.0078125,1.01636,0,0.001,-32.78,0,0,787.432,9020648
0.0236816,-0.0088501,1.01495,0,0,-32.78,0,0,787.452,9020663
0.0210571,-0.0103149,1.01715,-0.002,-0.002,-32.78,0,0,787.472,9020679
0.0270996,-0.010376,1.01746,0.003,0,-32.78,0,0,787.492,9020708
0.0245361,-0.0088501,1.01514,0,0,-32.78,0,0,787.514,9020723
0.0220337,-0.00994873,1.01465,-0.001,-0.001,-32.78,0,0,787.532,9020739
0.0254517,-0.0120239,1.01331,0.002,-0.001,-32.78,0,0,787.561,9020768
0.0222778,-0.0108032,1.01843,0,-0.002,-32.78,0,0,787.572,9020783
0.0250854,-0.00976562,1.01746,0.001,0,-32.78,0,0,787.594,9020813
0.0254517,-0.0067749,1.01776,0,0.002,-32.78,0,0,787.612,9020828
0.0215454,-0.00616455,1.01361,-0.003,0.001,-32.78,0,0,787.635,9020843
0.022644,-0.00891113,1.0163,-0.001,0,-32.78,0,0,787.652,9020859
0.026001,-0.00646973,1.01697,0,0.003,-32.78,0,0,787.672,9020888
0.0217896,-0.0108643,1.01251,0,-0.002,-32.78,0,0,787.692,9020903
0.0238037,-0.0100098,1.02307,0,0,-32.78,0,0,787.713,9020919
0.0253906,-0.0106812,1.02283,0.001,0,-32.78,0,0,787.734,9020948
0.0227051,-0.0107422,1.01715,0,-0.001,-32.78,0,0,787.753,9020963
0.0231934,-0.012085,1.01343,0,-0.002,-32.78,0,0,787.771,9020979
0.0250854,-0.00866699,1.01953,0,0.001,-32.78,0,0,787.792,9021008
0.0200195,-0.00854492,1.01685,-0.003,-0.001,-32.78,0,0,787.812,9021023
0.0240479,-0.00909424,1.01465,0,0,-32.78,0,0,787.834,9021039
0.0247803,-0.00842285,1.01721,0,0.001,-32.78,0,0,787.851,9021069
0.0223389,-0.00830078,1.01373,-0.001,0,-32.78,0,0,787.873,9021084
0.0252686,-0.010376,1.01752,0.001,0,-32.78,0,0,787.892,9021099
0.0232544,-0.0112305,1.02179,0,-0.002,-32.78,0,0,787.914,9021129
0.0236816,-0.00500488,1.01532,-0.002,0.003,-32.78,0,0,787.932,9021144
0.0241089,-0.00946045,1.01996,0,0,-32.79,0,0,787.952,9021159
0.0221558,-0.00787354,1.02399,-0.002,0,-32.78,0,0,787.972,9021189
0.0240479,-0.00854492,1.01575,0,0,-32.78,0,0,787.993,9021204
0.0239258,-0.0119629,1.01355,0.001,-0.002,-32.79,0,0,788.014,9021219
0.0253296,-0.00756836,1.01471,0,0.002,-32.78,0,0,788.034,9021249
0.0233154,-0.010437,1.01239,0,-0.001,-32.78,0,0,788.052,9021264
0.0263672,-0.00634766,1.01483,0,0.003,-32.78,0,0,788.072,9021279
0.022522,-0.00695801,1.01703,-0.002,0.001,-32.78,0,0,788.093,9021309
0.0236206,-0.0078125,1.01141,0,0.001,-32.79,0,0,788.113,9021324
0.0253296,-0.00744629,1.01538,0,0.002,-32.79,0,0,788.132,9021339
0.024353,-0.0101929,1.01245,0,0,-32.79,0,0,788.152,9021369
0.0217285,-0.00848389,1.01257,-0.002,0,-32.79,0,0,788.173,9021384
0.0211792,-0.00872803,1.01361,-0.002,-0.001,-32.79,0,0,788.192,9021399
0.0216064,-0.00744629,1.01648,-0.002,0,-32.79,0,0,788.212,9021429
0.0251465,-0.00933838,1.01477,0.001,0,-32.79,0,0,788.232,9021444
0.026062,-0.00915527,1.01428,0.001,0.001,-32.79,0,0,788.252,9021459
0.0255127,-0.0102539,1.0141,0.001,0,-32.79,0,0,788.272,9021489
0.0236816,-0.00799561,1.01392,0,0,-32.79,0,0,788.292,9021504
0.0253906,-0.0117798,1.02032,0.002,-0.001,-32.79,0,0,788.313,9021519
0.0216064,-0.00872803,1.01532,-0.002,0,-32.78,0,0,788.333,9021549
0.0246582,-0.0108032,1.01367,0.001,0,-32.79,0,0,788.353,9021564
0.0233154,-0.0090332,1.01569,0,0,-32.79,0,0,788.372,9021579
0.0221558,-0.0126953,1.01715,0,-0.003,-32.79,0,0,788.391,9021609
0.0235596,-0.00750732,1.01593,-0.001,0.001,-32.79,0,0,788.413,9021624
0.022644,-0.0109253,1.01959,0,-0.002,-32.79,0,0,788.431,9021639
0.0256958,-0.00909424,1.01727,0.001,0.001,-32.79,0,0,788.453,9021669
0.0234985,-0.00775146,1.01605,-0.001,0.001,-32.79,0,0,788.471,9021684
0.0244751,-0.00769043,1.01392,0,0.001,-32.79,0,0,788.492,9021699
0.022583,-0.00878906,1.01385,-0.001,0,-32.79,0,0,788.513,9021729
0.0238647,-0.00640869,1.01642,-0.001,0.002,-32.79,0,0,788.535,9021744
0.0256348,-0.0088501,1.0119,0.001,0.001,-32.79,0,0,788.552,9021759
0.0233154,-0.00762939,1.01648,-0.001,0.001,-32.79,0,0,788.572,9021789
0.0203857,-0.00933838,1.01392,-0.002,-0.001,-32.79,0,0,788.593,9021804
0.0233154,-0.00811768,1.0144,-0.001,0,-32.79,0,0,788.613,9021819
0.0227661,-0.0101929,1.01019,0,-0.001,-32.79,0,0,788.635,9021849
0.0241699,-0.0131226,1.01685,0.002,-0.003,-32.79,0,0,788.654,9021864
0.0258789,-0.0112305,1.01599,0.002,0,-32.79,0,0,788.674,9021894
0.0230103,-0.0111694,1.01807,0,-0.002,-32.79,0,0,788.693,9021909
0.0255737,-0.00946045,1.01697,0.001,0,-32.79,0,0,788.712,9021924
0.0255127,-0.00939941,1.0144,0.001,0,-32.79,0,0,788.734,9021939
0.0238647,-0.00750732,1.0166,0,0.001,-32.79,0,0,788.752,9021969
0.0230103,-0.00756836,1.01538,-0.001,0.001,-32.79,0,0,788.772,9021984
0.0250854,-0.00927734,1.0108,0.001,0,-32.79,0,0,788.792,9021999
0.0199585,-0.0167236,1.01471,0,-0.008,-32.79,0,0,788.812,9022029
-0.0230103,0.127991,0.984009,-0.112,0.089,-32.79,54.3553,0,788.841,9022060
-0.0230103,0.127991,0.984009,-0.112,0.089,-32.79,35.5648,0,788.852,9022060
-0.00518799,0.108887,0.974182,-0.085,0.081,-32.77,28.5644,-33.7547,788.873,9022089
0.0319824,0.110901,1.01764,-0.055,0.101,-32.77,37.3074,-56.3687,788.892,9022104
0.103638,0.0290527,0.983337,0.05,0.07,-32.78,48.2347,-76.7457,788.912,9022120
0.067688,0.0609131,1.04303,0.002,0.076,-32.78,57.003,-87.7555,788.932,9022149
0.0540771,0.0786133,1.00171,-0.017,0.083,-32.78,60.6327,-106,788.952,9022164
-0.0217896,0.0385132,1.01111,-0.059,0.008,-32.78,129.439,-121.836,788.972,9022180
0.0812988,0.0934448,1.05908,-0.001,0.107,-32.77,128.351,-144.702,788.993,9022209
0.0437622,0.0455322,0.976746,-0.006,0.046,-32.77,147.206,-153.557,789.012,9022224
-0.0274048,0.072876,1.03314,-0.08,0.03,-32.77,152.065,-159.432,789.033,9022240
0.0594482,0.0585327,1.02698,0,0.063,-32.77,198.817,-164.779,789.052,9022269
-0.0174561,0.143677,0.97467,-0.108,0.093,-32.76,199.023,-207.829,789.072,9022284
0.0725098,0.02771,1.07648,0.028,0.041,-32.75,202.887,-217.787,789.095,9022300
0.0219116,0.0558472,1.03973,-0.027,0.037,-32.75,211.625,-223.152,789.112,9022329
0.0933228,0.0111084,1.04688,0.056,0.037,-32.75,264.964,-221.774,789.132,9022344
-0.116089,0.0806274,0.942078,-0.155,-0.015,-32.75,274.168,-224.2,789.152,9022360
0.11731,0.0596924,0.998779,0.052,0.09,-32.74,255.66,-233.91,789.172,9022389
0.0229492,0.0973511,1.00146,-0.047,0.07,-32.74,237.603,-244.01,789.193,9022404
0.0849609,0.059021,0.929382,0.026,0.073,-32.74,297.796,-248.92,789.213,9022420
0.0368652,0.0584717,0.958923,-0.013,0.045,-32.74,300.562,-257.205,789.233,9022449
0.119019,0.00457764,0.987427,0.085,0.043,-32.74,261.056,-281.567,789.252,9022464
0.107727,0.0463257,1.02124,0.052,0.071,-32.73,296.842,-280.619,789.272,9022480
-0.0130005,0.0164185,0.992859,-0.032,-0.018,-32.73,302.838,-302.055,789.292,9022509
0.0716553,0.052063,1.09937,0.018,0.053,-32.73,374.932,-293.94,789.312,9022524
-0.0032959,0.017395,0.90387,-0.023,-0.011,-32.72,345.268,-322.149,789.334,9022540
0.0719604,0.0122681,0.97998,0.041,0.022,-32.71,298.704,-296.498,789.352,9022569
0.048645,0.0413818,1.05792,0.006,0.032,-32.71,334.141,-306.744,789.377,9022584
-0.00549316,0.0032959,0.977417,-0.018,-0.027,-32.7,338.713,-336.106,789.392,9022600
0.0223389,-0.00622559,0.951111,0.01,-0.019,-32.7,341.198,-330.006,789.412,9022629
-0.0101318,0.0875244,1.05853,-0.068,0.038,-32.7,360.017,-289.729,789.432,9022644
0.079834,0.015686,0.906311,0.048,0.03,-32.7,342.659,-351.828,789.452,9022660
0.161316,0.0288086,1.09497,0.108,0.079,-32.69,385.082,-374.399,789.472,9022690
0.0272827,0.0488281,0.991699,-0.013,0.026,-32.69,364.598,-391.022,789.492,9022705
0.00732422,0.0057373,1.02625,-0.007,-0.021,-32.69,405.474,-387.612,789.513,9022720
0.0608521,0.0198364,1.04816,0.029,0.017,-32.68,417.406,-412.635,789.532,9022750
-0.11322,0.0808105,1.10229,-0.151,-0.026,-32.68,383.098,-406.81,789.553,9022765
0.026001,0.0947266,1.07245,-0.04,0.06,-32.67,431.025,-408.338,789.572,9022780
0.0778198,0.0621948,0.887146,0.022,0.065,-32.66,396.416,-379.089,789.592,9022810
0.00494385,0.0349121,1.03693,-0.025,-0.001,-32.66,412.448,-400.89,789.612,9022825
-0.00970459,0.0554199,1.0871,-0.05,0.005,-32.65,433.163,-398.494,789.633,9022840
0.25293,0.079895,0.878784,0.161,0.173,-32.65,386.735,-489.704,789.652,9022870
0.0707397,0.0267944,1.04572,0.034,0.025,-32.65,547.765,-447.117,789.672,9022885
0.202393,0.0349121,0.844727,0.143,0.109,-32.65,392.835,-403.877,789.694,9022900
0.225952,0.00646973,0.983276,0.176,0.093,-32.63,526.801,-471.131,789.713,9022930
0.0513306,0.0377808,1.12061,0.011,0.021,-32.63,457.729,-451.773,789.732,9022945
-0.0309448,-0.0736694,0.699951,0.006,-0.102,-32.63,336.287,-418.305,789.757,9022975
0.188232,0.114868,1.5556,0.08,0.145,-32.63,484.355,-539.433,789.772,9022990
0.0852051,-0.0504761,0.503967,0.094,-0.013,-32.62,509.684,-411.489,789.793,9023005
0.00933838,-0.00646973,1.28833,-0.001,-0.043,-32.62,464.199,-477.829,789.812,9023020
0.141052,0.00463867,0.895813,0.108,0.049,-32.61,446.838,-449.287,789.832,9023050
-0.0119629,-0.0396118,1.06281,0,-0.076,-32.61,428.605,-487.211,789.852,9023065
0.0579834,0.0975952,1.20868,-0.015,0.071,-32.6,543.154,-488.46,789.872,9023080
-0.0964355,0.0857544,1.01392,-0.138,-0.014,-32.6,476.134,-462.61,789.892,9023110
0.12323,0.0978394,1.15564,0.039,0.108,-32.6,500.939,-497.006,789.914,9023125
-0.0152588,-0.00823975,1.14728,-0.019,-0.054,-32.6,548.516,-535.26,789.932,9023140
0.0932007,-0.0292969,1.27856,0.084,-0.018,-32.58,498.567,-593.807,789.953,9023170
0.155396,0.0328369,0.50885,0.108,0.093,-32.58,533.234,-429.71,789.972,9023185
0.0384521,0.0418701,1.40784,-0.002,0.006,-32.57,447.097,-535.877,789.992,9023200
0.0115967,0.0328369,1.41211,-0.022,-0.016,-32.55,484.696,-479.708,790.012,9023230
0.197205,0.0223999,0.847839,0.146,0.095,-32.54,555.201,-526.565,790.032,9023245
0.285339,0.00170898,0.847534,0.231,0.125,-32.54,527.551,-559.409,790.052,9023260
-0.0948486,0.0377808,1.09143,-0.11,-0.057,-32.53,590.162,-562.762,790.073,9023290
-0.09021,-0.0224609,0.85968,-0.072,-0.097,-32.52,605.235,-575.838,790.092,9023305
0.0406494,0.20343,1.02533,-0.083,0.157,-32.53,504.898,-565.659,790.113,9023320
-0.210449,0.0220337,0.907288,-0.198,-0.127,-32.52,559.003,-562.952,790.132,9023350
0.0386963,0.108337,1.36322,-0.038,0.063,-32.52,608.717,-525.527,790.153,9023365
-0.00653076,0.103882,0.828491,-0.069,0.054,-32.51,470.677,-619.233,790.174,9023380
0.0177002,-0.0187378,0.588806,0.019,-0.027,-32.5,558.847,-490.34,790.195,9023410
-0.102478,-0.0113525,1.08881,-0.089,-0.102,-32.5,632.291,-532.694,790.212,9023425
0.0993042,-0.0124512,0.963562,0.082,0.009,-32.49,561.34,-663.878,790.232,9023440
-0.0873413,-0.00622559,1.00177,-0.078,-0.087,-32.49,423.496,-584.112,790.252,9023470
-0.0717773,0.0238647,1.02502,-0.083,-0.054,-32.49,473.889,-599.574,790.272,9023485
0.175171,-0.0519409,0.579407,0.17,0.03,-32.48,568.069,-631.951,790.294,9023500
-0.0843506,0.0224609,1.38525,-0.096,-0.073,-32.46,673.9,-569.379,790.336,9023545
-0.0880737,0.0947876,0.840759,-0.134,0.003,-32.44,587.734,-550.888,790.373,9023590
0.201294,0.0255127,0.966187,0.145,0.096,-32.42,566.235,-568.941,790.413,9023620
-0.107605,-0.00415039,0.652283,-0.096,-0.083,-32.41,628.22,-541.023,790.452,9023665
-0.0401001,-0.00537109,1.10284,-0.044,-0.063,-32.4,570.516,-571.837,790.492,9023710
0.0305786,0.076416,1.03149,-0.031,0.045,-32.39,618.372,-493.693,790.613,9023830
0.256348,-0.0130615,0.497009,0.215,0.108,-32.33,531.816,-445.861,790.773,9023981
0.335205,0.0859985,0.921265,0.223,0.22,-32.3,550.146,-556.963,790.813,9024025
-0.0426025,-0.0321655,1.27515,-0.038,-0.094,-32.29,616.941,-542.02,790.852,9024070
-0.143799,-0.0655518,1.1463,-0.104,-0.171,-32.28,490.304,-617.589,790.893,9024101
-0.0119019,-0.0145874,1.2251,-0.02,-0.06,-32.27,629.307,-571.69,790.934,9024145
-0.0951538,0.0998535,1.09253,-0.15,-0.003,-32.25,688.658,-689.085,790.953,9024161
-0.246826,0.0883179,1.12195,-0.273,-0.095,-32.24,566.203,-690.107,790.993,9024205
0.312012,0.0413208,1.39948,0.221,0.154,-32.21,678.472,-671.231,791.032,9024250
-0.0812378,0.00689697,1.15442,-0.09,-0.076,-32.19,552.212,-573.427,791.072,9024281
0.120483,0.0540771,0.9422,0.058,0.078,-32.16,501.92,-604.759,791.113,9024326
-0.142578,-0.0604248,0.80249,-0.101,-0.153,-32.12,746.38,-614.137,791.152,9024371
0.179443,0.0756836,1.44348,0.088,0.111,-32.12,545.331,-569.363,791.172,9024386
0.0841064,0.112976,1.1795,-0.009,0.1,-32.09,640.533,-612.67,791.214,9024431
0.192932,0.0751343,1.23334,0.102,0.124,-32.08,685.424,-646.684,791.272,9024491
0.301819,-0.102966,1.02698,0.292,0.038,-32.06,595.806,-644.102,791.294,9024506
-0.0587158,0.122131,0.751282,-0.128,0.047,-32.05,557.072,-560.02,791.333,9024551
0.119263,0.0153809,0.867249,0.076,0.047,-32.03,552.288,-606.208,791.372,9024581
-0.067749,0.0199585,1.19617,-0.089,-0.059,-31.99,616.105,-554.662,791.412,9024626
0.105225,-0.0327148,0.924866,0.091,-0.003,-31.96,592.4,-560.554,791.453,9024671
0.0993652,-0.0457153,0.568176,0.098,-0.005,-31.9,617.875,-534.488,791.533,9024746
0.0582275,-0.000427246,1.17816,0.028,-0.01,-31.89,414.044,-625.41,791.554,9024761
0.198547,0.0228882,1.19708,0.133,0.083,-31.66,667.134,-577.651,791.812,9025016
0.0863647,0.00512695,0.74884,0.054,0.025,-31.54,593.243,-600.98,791.993,9025211
0.383179,-0.00732422,0.801575,0.313,0.167,-31.5,665.845,-567.263,792.041,9025256
-0.117188,0.0318604,1.11603,-0.141,-0.071,-31.48,649.245,-497.364,792.073,9025286
0.0795288,-0.0945435,1.12354,0.092,-0.076,-31.47,607.718,-568.473,792.095,9025302
0.55011,-0.0189209,0.728394,0.464,0.246,-31.44,529.325,-449.853,792.132,9025346
-0.0897827,-0.0491333,0.649048,-0.065,-0.109,-31.41,581.987,-646.663,792.172,9025376
-0.113403,-0.0593262,1.24628,-0.095,-0.152,-31.4,680.018,-595.132,792.194,9025406
0.0653076,0.193237,1.36664,-0.076,0.152,-31.39,590.667,-575.54,792.232,9025451
-0.16687,-0.0560913,1.00208,-0.138,-0.168,-31.31,553.22,-632.451,792.352,9025571
0.254028,-0.0307007,1.00031,0.209,0.071,-31.24,555.833,-615.385,792.474,9025691
0.020813,0.0241699,0.786194,-0.013,0.004,-31.23,565.179,-638.264,792.513,9025722
0.0566406,-0.107178,1.01392,0.079,-0.096,-31.23,603.464,-602.029,792.553,9025766
0.0797119,0.0704346,0.954041,0.007,0.069,-31.24,540.877,-562.572,792.573,9025782
0.0202637,0.0377197,0.804016,-0.022,0.015,-31.23,565.02,-537.793,792.634,9025842
0.012207,0.0387573,1.00104,-0.034,0.006,-31.23,643.087,-537.086,792.672,9025886
0.259399,-0.0378418,0.682068,0.224,0.079,-31.23,572.328,-528.667,792.692,9025902
0.195984,-0.100952,0.958374,0.196,-0.016,-31.2,666.556,-581.869,792.732,9025947
-0.139343,-0.127991,0.85907,-0.074,-0.209,-31.2,507.885,-483.138,792.772,9025977
-0.0630493,-0.0883789,1.2254,-0.039,-0.144,-31.19,595.628,-498.194,792.795,9026007
-0.162415,-0.0124512,1.10565,-0.16,-0.124,-31.24,334.208,-568.602,792.832,9026052
-0.0701904,-0.100403,0.890869,-0.032,-0.144,-31.27,493.206,-376.308,792.872,9026082
0.0126343,-0.0465088,0.993408,0.007,-0.056,-31.28,461.053,-435.208,792.894,9026112
-0.0341187,-0.0812378,0.958862,-0.012,-0.108,-31.28,418.533,-453.504,792.933,9026142
0.163208,-0.0655518,0.766602,0.151,0.013,-31.31,398.129,-423.899,792.973,9026187
0.110718,-0.135803,1.13892,0.133,-0.08,-31.3,408.488,-346.135,792.994,9026202
-0.0475464,-0.0830078,0.906799,-0.023,-0.112,-31.31,323.269,-387.913,793.025,9026232
0.055603,-0.0119019,1.10266,0.02,0,-31.33,312.437,-319.315,793.073,9026292
0.0681763,-0.0491943,1.11108,0.049,-0.024,-31.33,340.368,-325.235,793.094,9026307
-0.0234375,-0.0293579,0.957458,-0.036,-0.048,-31.36,259.592,-269.796,793.214,9026427
0.0667725,-0.0784912,1.05743,0.062,-0.044,-31.36,237.369,-243.968,793.233,9026442
0.151062,-0.0496826,1.09045,0.117,0.025,-31.37,238.336,-213.245,793.272,9026487
0.0726318,-0.0608521,1.05737,0.057,-0.024,-31.37,213.76,-224.384,793.293,9026502
0.0351562,-0.0478516,0.994568,0.02,-0.03,-31.39,170.304,-193.864,793.333,9026547
0.0217896,-0.06604,0.967285,0.019,-0.052,-31.4,175.486,-147.932,793.373,9026577
0.0819702,-0.0564575,1.01453,0.063,-0.011,-31.39,144.72,-162.504,793.392,9026607
0.0396729,-0.0475464,1.00378,0.023,-0.025,-31.4,118.145,-141.304,793.432,9026637
0.0322876,-0.0827637,0.994934,0.034,-0.057,-31.4,119.461,-107.943,793.472,9026682
0.0111694,-0.0493774,1.0614,-0.003,-0.04,-31.4,94.5466,-92.7089,793.493,9026697
0.0268555,-0.0678711,0.996094,0.02,-0.046,-31.42,70.2477,-75.5729,793.533,9026742
0.0550537,-0.0507202,0.990479,0.035,-0.015,-31.41,49.5925,-48.088,793.574,9026787
0.0140991,-0.0444336,1.0379,-0.004,-0.031,-31.41,37.0351,-39.577,793.592,9026802
0.0257568,-0.0487061,0.999756,0.008,-0.028,-31.41,24.3872,-25.8166,793.633,9026847
0.0550537,-0.036499,0.991455,0.026,-0.001,-31.42,24.3872,-25.8166,793.672,9026877
0.0248413,0.017395,1.01117,-0.026,0.027,-31.41,-3.12461,3.61611,793.773,9026983
0.0374146,0.0168457,1.01849,-0.015,0.032,-31.42,-12.6794,11.5157,793.813,9027027
0.0213623,-0.00799561,1.03156,-0.016,0.002,-31.43,-24.644,16.1642,793.854,9027072
0.0712891,0.0263062,1.02472,0.008,0.057,-31.42,-18.5986,26.2047,793.874,9027087
0.0304565,0.0582275,1.0332,-0.041,0.062,-31.42,-17.7149,18.887,793.912,9027117
0.000671387,0.0250854,0.972839,-0.047,0.017,-31.44,-22.1803,12.0346,793.953,9027163
0.0205078,0.0391235,0.99292,-0.037,0.038,-31.43,-15.2294,10.494,793.974,9027192
0.0519409,0.0124512,1.01508,0.002,0.031,-31.43,-11.0548,9.8642,794.012,9027223
0.0661621,-0.03125,0.998596,0.038,0.001,-31.43,-13.1874,12.5127,794.052,9027267
0.0188599,0.0149536,1.01733,-0.026,0.015,-31.43,-17.0031,16.2803,794.073,9027283
0.0856934,0.00421143,1.00214,0.036,0.041,-31.43,-33.3462,35.1829,794.132,9027343
-0.0509033,0.0175781,1.02142,-0.088,-0.017,-31.43,-43.9713,38.3271,794.154,9027372
0.0877075,0.0269165,1.01691,0.025,0.062,-31.43,-48.7874,46.8695,794.192,9027403
0.104553,-0.00640869,1.02972,0.056,0.042,-31.43,-57.4495,123.413,794.215,9027432
0.0840454,-0.0983276,1.06238,0.084,-0.044,-31.42,-88.4115,89.275,794.254,9027463
0.0765991,-0.0631714,1.07538,0.058,-0.016,-31.44,-119.871,133.175,794.292,9027507
0.0805054,-0.125427,0.968811,0.097,-0.066,-31.43,-178.371,165.113,794.332,9027538
0.0412598,-0.112122,0.968567,0.056,-0.073,-31.43,-162.138,186.078,794.353,9027568
0.0987549,-0.0527954,1.05878,0.069,0.008,-31.43,-208.601,203.867,794.392,9027598
0.0186768,-0.0507202,1.09222,-0.001,-0.03,-31.43,-212.906,234.14,794.433,9027643
0.0898438,-0.0430908,1.00836,0.057,0.013,-31.42,-242.175,237.561,794.454,9027673
0.146179,-0.0263062,1.10712,0.092,0.058,-31.42,-285.641,251.354,794.492,9027703
-0.0221558,-0.0714722,1.19403,-0.031,-0.066,-31.42,-314.06,304.488,794.533,9027748
-0.0232544,-0.0349121,1.00134,-0.044,-0.036,-31.41,-265.647,284.815,794.553,9027763
-0.0067749,-0.0421753,0.926941,-0.023,-0.034,-31.41,-347.639,321.187,794.593,9027808
0.0234375,-0.0599365,1.11322,0.003,-0.034,-31.39,-367.897,345.358,794.713,9027928
-0.072998,-0.0227661,0.929504,-0.09,-0.053,-31.39,-364.226,336.281,794.734,9027943
0.134094,-0.00671387,0.907288,0.079,0.067,-31.38,-301.223,338.995,794.772,9027988
-0.0136719,-0.0316162,0.922546,-0.034,-0.03,-31.37,-355.177,386.757,794.813,9028018
0.053833,0.0221558,1.03326,-0.008,0.05,-31.37,-343.407,348.111,794.834,9028048
0.170166,0.0178833,1.02393,0.092,0.106,-31.37,-364.578,351.685,794.877,9028093
-0.0460205,-0.0192871,1.00488,-0.071,-0.038,-31.36,-301.896,311.027,794.911,9028123
0.191345,0.0202637,1.05518,0.109,0.118,-31.35,-364.405,385.141,794.933,9028153
0.00787354,0.053894,1.24066,-0.072,0.051,-31.35,-336.168,335.632,794.972,9028183
0.109558,-0.0289307,1.18939,0.059,0.032,-31.34,-389.924,393.453,795.012,9028228
0.0665283,0.00946045,0.80896,0.017,0.042,-31.33,-379.622,390.442,795.035,9028243
0.216248,0.034668,1.11029,0.119,0.14,-31.31,-363.135,368.942,795.072,9028288
0.0368042,-0.0189819,0.925476,0.002,0,-31.32,-394.586,364.677,795.092,9028303
-0.0231323,0.027832,0.941956,-0.074,0.008,-31.29,-401.373,376.974,795.132,9028348
0.195496,0.0933228,0.930176,0.08,0.174,-31.27,-353.976,355.025,795.254,9028468
-0.0227051,0.0206909,1.10181,-0.076,-0.002,-31.26,-292.018,330.202,795.292,9028498
-0.0661011,-0.027832,0.884155,-0.078,-0.064,-31.26,-396.597,352.56,795.332,9028544
0.0717773,0.0435791,1.14471,-0.008,0.065,-31.25,-401.51,353.163,795.373,9028588
0.144226,0.00341797,0.970032,0.082,0.07,-31.25,-343.489,348.111,795.412,9028618
-0.0574341,-0.00909424,1.09076,-0.088,-0.045,-31.25,-375.115,383.311,795.453,9028664
-0.100769,-0.0297852,1.0274,-0.112,-0.084,-31.25,-411.946,428.715,795.492,9028708
0.144348,0.03302,1.07239,0.063,0.095,-31.24,-388.048,414.705,795.612,9028828
0.0292358,0.0231934,0.968567,-0.026,0.028,-31.24,-453.371,467.017,795.634,9028844
-0.0123901,0.0020752,0.931152,-0.049,-0.01,-31.24,-438.299,497.884,795.673,9028888
0.213501,0.055603,0.98468,0.114,0.152,-31.23,-423.837,435.986,795.713,9028933
-0.0773315,-0.00836182,1.18909,-0.108,-0.054,-31.23,-456.548,421.257,795.752,9028964
-0.0481567,-0.0359497,0.946411,-0.06,-0.062,-31.24,-424.935,440.694,795.781,9028993
-0.263306,-0.00927734,1.07361,-0.262,-0.151,-31.23,-426.303,396.865,795.814,9029024
0.034668,0.0661011,0.809814,-0.035,0.069,-31.23,-460.914,417.232,795.854,9029068
0.0911865,0.0388794,0.928406,0.021,0.075,-31.24,-444.879,467.869,795.893,9029098
-0.0010376,-0.0806274,0.907593,0.005,-0.075,-31.23,-373.734,438.577,795.915,9029128
-0.00585938,-0.0267944,1.09454,-0.033,-0.032,-31.22,-519.292,461.862,795.952,9029158
-0.0185547,-0.0360107,1.38928,-0.048,-0.047,-31.22,-407.573,456.642,795.992,9029204
-0.207581,0.0792236,1.34235,-0.267,-0.048,-31.23,-575.705,399.608,796.015,9029234
0.0767212,0.0320435,1.02887,0.011,0.06,-31.23,-534.817,469.109,796.052,9029264
0.167236,-0.022644,0.968018,0.119,0.06,-31.22,-475.59,497.562,796.095,9029309
0.208679,0.00927734,0.955872,0.139,0.109,-31.21,-484.637,471.52,796.114,9029324
0.00317383,0.00775146,1.03992,-0.039,0,-31.22,-433.99,479.375,796.152,9029369
-0.199463,0.0183716,1.09155,-0.218,-0.096,-31.22,-482.428,507.099,796.192,9029399
0.0910034,0.0998535,0.982666,-0.008,0.124,-31.23,-509.23,402.39,796.232,9029444
0.250488,0.0809326,0.925354,0.14,0.191,-31.22,-451.641,549.617,796.254,9029459
0.141052,-0.0802612,1.11133,0.124,-0.005,-31.23,-527.649,586.562,796.292,9029504
0.0431519,-0.0220337,1.07166,0.012,-0.006,-31.27,-396.416,481.313,796.449,9029654
-0.0900879,0.00140381,1.19403,-0.117,-0.057,-31.28,-497.896,557.429,796.508,9029714
-0.142761,-0.0571289,0.978333,-0.123,-0.131,-31.29,-468.461,568.359,796.653,9029864
-0.107666,0.00445557,1.01135,-0.125,-0.06,-31.3,-460.702,522.111,796.693,9029909
-0.0239258,0.0686035,1.05164,-0.087,0.037,-31.31,-441.618,613.271,796.732,9029939
0.0339355,0.02771,0.76532,-0.009,0.034,-31.32,-506.984,580.99,796.753,9029969
-0.0877686,-0.0389404,0.95166,-0.084,-0.086,-31.31,-445.038,508.725,796.793,9029999
-0.039978,-0.053772,0.43512,-0.019,-0.07,-31.32,-520.589,520.034,796.832,9030044
-0.208679,-0.0216675,1.6084,-0.215,-0.14,-31.33,-551.055,541.565,796.853,9030059
0.196289,0.0588379,1.07428,0.105,0.143,-31.33,-481.684,484.086,796.892,9030104
0.0644531,0.0830688,0.933533,-0.052,0.148,-31.33,-472.534,512.807,796.932,9030149
0.0182495,-0.00793457,0.876038,-0.004,-0.005,-31.35,-487.08,560.193,797.173,9030374
0.0874634,-0.0217285,1.06775,0.056,0.017,-31.35,-520.305,525.693,797.413,9030629
0.0791626,-0.000610352,0.995544,0.04,0.032,-31.35,-484.978,496.648,797.436,9030645
0.0506592,-0.0991821,0.80188,0.072,-0.065,-31.35,-536.337,448.049,797.473,9030689
-0.560852,-0.149719,1.44562,-0.44,-0.431,-31.35,-571.151,476.508,797.513,9030719
0.038208,0.0681152,1.13507,-0.033,0.067,-31.34,-511.156,500.038,797.736,9030945
0.133789,0.0367432,1.02777,0.067,0.091,-31.34,-481.047,538.401,797.772,9030990
-0.110168,-0.0374146,0.885498,-0.098,-0.097,-31.33,-419.199,498.107,797.794,9031005
0.209473,0.0415039,1.19202,0.125,0.131,-31.32,-437.292,503.132,797.834,9031050
-0.0723267,0.0198364,1.10144,-0.101,-0.031,-31.31,-495.479,502.917,797.875,9031080
0.0354004,0.0667725,0.916077,-0.028,0.066,-31.31,-441.404,486.251,797.894,9031110
0.0177002,-0.0253906,0.811279,0.006,-0.02,-31.32,-426.985,503.918,797.932,9031140
0.0550537,-0.0248413,0.930908,0.035,-0.001,-31.3,-416.788,453.556,797.972,9031185
0.175659,0.0545654,1.3103,0.088,0.125,-31.29,-580.316,446.229,797.994,9031200
-0.0176392,-0.0546265,0.891602,-0.009,-0.063,-31.3,-477.042,511.051,798.032,9031245
0.0304565,-0.0603638,0.842041,0.036,-0.043,-31.3,-518.766,528.443,798.074,9031290
0.0725708,-0.0457153,0.959106,0.061,-0.008,-31.3,-552.975,512.873,798.094,9031305
0.039978,-0.00872803,0.821533,0.018,0.007,-31.3,-578.469,500.1,798.133,9031350
-0.18219,0.0248413,0.932739,-0.191,-0.08,-31.3,-459,481.522,798.173,9031380
0.101562,-0.0898438,1.24323,0.102,-0.033,-31.29,-305.385,520.616,798.194,9031410
-0.0290527,-0.0262451,1.07721,-0.038,-0.045,-31.29,-559.253,530.701,798.232,9031440
0.0529785,0.0423584,1.06055,-0.004,0.055,-31.3,-507.202,542.432,798.259,9031470
0.10553,0.0466309,0.988281,0.039,0.087,-31.29,-608.939,489.872,798.305,9031515
0.0285645,-0.0444336,0.992737,0.021,-0.03,-31.29,-552.578,579.022,798.333,9031545
-0.0444336,-0.0964966,0.913574,-0.011,-0.112,-31.28,-557.569,444.494,798.372,9031590
0.0524292,-0.0343628,1.12769,0.032,-0.009,-31.28,-516.729,488.556,798.393,9031605
-0.184326,0.0373535,1.0368,-0.204,-0.07,-31.27,-516.409,613.459,798.441,9031650
0.0466309,0.00109863,0.947083,0.013,0.019,-31.27,-591.558,423.855,798.457,9031665
0.0443726,-0.0300903,0.853333,0.03,-0.008,-31.27,-526.011,449.004,798.494,9031710
0.0852661,-0.0614014,1.02679,0.077,-0.015,-31.27,-513.875,541.14,798.533,9031740
-0.139282,0.0532227,0.862305,-0.17,-0.033,-31.26,-500.075,512.033,798.573,9031785
0.0383911,0.0526733,0.862305,-0.017,0.057,-31.26,-494.768,522.098,798.592,9031800
0.200134,0.0453491,1.12897,0.118,0.133,-31.25,-470.898,540.219,798.632,9031846
0.00628662,-0.041687,0.866211,0.004,-0.039,-31.25,-419.895,445.226,798.672,9031890
0.117371,0.0245972,0.958679,0.062,0.074,-31.26,-504.643,403.34,798.694,9031906
-0.639099,-0.115906,1.4104,-0.52,-0.441,-31.25,-531.802,361.821,798.733,9031950
0.0280151,0.0645752,1.03607,-0.034,0.061,-31.26,-481.394,496.931,798.771,9031980
0.0765381,0.0720825,0.933777,0.005,0.094,-31.3,-468.9,452.735,798.992,9032206
0.0753784,-0.0401001,1.01239,0.06,-0.003,-31.3,-450.106,432.386,799.013,9032220
0.0828247,-0.0484009,1.03851,0.071,-0.006,-31.3,-504.096,450.989,799.052,9032266
-0.012146,0.0444336,1.07574,-0.059,0.023,-31.31,-394.586,443.439,799.082,9032295
-0.142578,-0.0299072,0.96344,-0.13,-0.106,-31.32,-438.001,438.606,799.112,9032326
-0.139587,0.0145874,1.09607,-0.153,-0.067,-31.33,-394.314,528.569,799.153,9032370
-0.00488281,0.0164795,0.928162,-0.035,0.004,-31.33,-442.968,492.866,799.192,9032400
0.153442,-0.0407104,0.929932,0.129,0.039,-31.33,-440.538,445.782,799.214,9032431
0.0368042,0.0663452,1.08972,-0.03,0.069,-31.33,-286.936,448.873,799.253,9032461
-0.124023,0.0170898,1.09753,-0.142,-0.055,-31.35,-476.406,414.173,799.292,9032506
0.017334,0.0336914,1.09796,-0.029,0.031,-31.35,-449.893,496.685,799.313,9032521
-0.140808,0.126282,1.33521,-0.219,0.025,-31.37,-329.837,459.897,799.351,9032566
-0.0699463,0.027832,1.04272,-0.099,-0.021,-31.36,-404.547,420.566,799.392,9032611
-0.0501709,0.0953979,0.93219,-0.114,0.046,-31.36,-424.097,374.076,799.414,9032626
-0.210999,0.135254,1.06482,-0.275,-0.005,-31.36,-336.344,366.046,799.453,9032671
0.18457,0.105347,1.02423,0.081,0.172,-31.34,-295.268,308.062,799.495,9032701
0.15802,0.0761108,0.908875,0.077,0.133,-31.35,-296.257,254.172,799.523,9032731
-0.0158691,0.0621338,1.12781,-0.067,0.025,-31.34,-237.411,265.234,799.554,9032761
0.0197754,0.0151978,1.12482,-0.011,0.001,-31.34,-222.032,193.947,799.594,9032806
-0.031311,0.095459,0.986877,-0.092,0.044,-31.34,-177.722,190.894,799.633,9032851
0.0198364,0.0993652,1.03571,-0.05,0.072,-31.34,-148.724,142.074,799.672,9032881
0.00793457,0.0614624,0.991638,-0.038,0.032,-31.33,-109.366,107.969,799.713,9032926
0.0169678,0.0619507,0.991089,-0.03,0.035,-31.34,-78.1049,88.4009,799.752,9032971
0.0409546,0.0583496,1.04095,-0.007,0.042,-31.33,-58.901,60.1104,799.792,9033001
0.03479,0.0820923,1.02045,-0.024,0.058,-31.34,-36.236,37.7171,799.833,9033046
0.0129395,0.0551758,1.04944,-0.028,0.022,-31.33,-23.5131,24.7285,799.873,9033091
0.029541,0.0411377,1.00037,-0.006,0.02,-31.33,-23.5131,24.7285,799.896,9033106
0.0167236,-0.0147705,1.01538,0.011,-0.034,-31.34,-23.5131,24.7285,799.931,9033151
0.0338745,-0.0262451,1.0105,0.031,-0.034,-31.34,0,0,799.972,9033181
0.022522,-0.03125,1.01233,0.023,-0.043,-31.34,2.8918,0,800.012,9033226
-0.0422974,0.246399,1.02747,-0.163,0.15,-30.83,534.003,-246.121,800.213,9033421
-0.00799561,0.179382,1.0332,-0.095,0.105,-30.54,682.571,-286.755,800.252,9033467
-0.0157471,0.253235,0.910706,-0.135,0.166,-30.19,653.04,-366.099,800.292,9033511
-0.423828,0.125305,1.10522,-0.421,-0.16,-29.93,897.585,-423.855,800.333,9033541
0.199707,0.185242,1.18774,0.093,0.193,-29.54,896.539,-497.636,800.372,9033587
0.122925,0.0836792,0.629822,0.071,0.097,-29.4,864.977,-410.341,800.395,9033601
0.147705,0.199707,1.07977,0.045,0.182,-28.93,900.009,-613.685,800.435,9033647
0.0012207,0.0535889,1.3114,-0.006,-0.03,-28.54,908.513,-516.262,800.472,9033676
-0.356628,0.0686035,0.787964,-0.335,-0.154,-27.92,1001.5,-443.066,800.512,9033721
-0.0963745,-0.0354004,0.985413,-0.051,-0.136,-27.46,810.307,-535.561,800.532,9033751
-0.665771,0.165894,1.01831,-0.652,-0.219,-27,1234.34,-558.02,800.575,9033781
0.13446,0.19696,1.27924,0.053,0.153,-26.5,1208.09,-494.022,800.593,9033811
-0.212402,0.101013,1.28052,-0.212,-0.085,-25.99,892.22,-740.056,800.634,9033841
-0.0836182,-0.0198975,0.799377,-0.056,-0.107,-25.22,1060.5,-527.621,800.672,9033887
0.566223,-0.0110474,1.34723,0.54,0.138,-24.96,925.155,-676.384,800.693,9033901
-0.0563354,-0.0250854,0.739868,-0.033,-0.096,-24.28,885.897,-555.741,800.732,9033947
0.15741,-0.00109863,0.81073,0.153,0.006,-23.6,758.495,-738.607,800.773,9033991
0.463379,-0.000976562,1.02515,0.435,0.112,-23.4,980.825,-845.737,800.794,9034007
0.0247803,-0.0114746,0.726624,0.034,-0.049,-23.01,987.216,-767.666,800.832,9034036
0.150269,-0.0136719,0.845337,0.15,-0.01,-22.53,986.534,-763.388,800.872,9034082
0.108704,0.0108643,0.908203,0.1,-0.007,-22.29,1036.22,-862.18,800.893,9034112
0.344727,0.106934,1.1369,0.284,0.156,-22.08,801.122,-803.213,800.932,9034142
-0.027771,0.000488281,1.40466,-0.023,-0.096,-21.88,967.867,-773.066,800.973,9034187
-0.342163,0.0333862,1.10413,-0.332,-0.162,-21.74,823.215,-782.136,801.013,9034232
0.350647,-0.0955811,0.566589,0.361,0.006,-21.69,975.182,-817.561,801.032,9034247
0.266479,-0.0356445,0.718933,0.26,0.022,-21.6,798.085,-745.545,801.072,9034277
0.366638,-0.0408325,0.809143,0.354,0.05,-21.54,907.853,-780.945,801.1,9034307
0.11084,0.0281982,0.758911,0.089,0.025,-21.5,687.356,-898.109,801.134,9034352
0.185486,-0.0372314,1.06354,0.181,-0.024,-21.47,721.033,-790.358,801.172,9034382
0.0757446,-0.11853,1.35144,0.106,-0.154,-21.45,729.927,-721.917,801.193,9034412
-0.289124,-0.0197754,1.25348,-0.268,-0.188,-21.42,526.87,-829.703,801.232,9034442
0.200745,-0.104797,1.31854,0.217,-0.092,-21.36,863.931,-839.631,801.272,9034487
-0.180176,-0.0163574,0.320618,-0.164,-0.096,-21.35,828.397,-789.11,801.294,9034502
-0.204834,0.052002,1.16315,-0.219,-0.084,-21.29,852.915,-742.446,801.34,9034547
-0.0088501,0.165161,1.16278,-0.077,0.093,-21.21,896.298,-623.655,801.373,9034592
0.176392,-0.0302734,1.12891,0.164,-0.02,-21.14,930.06,-676.43,801.412,9034622
0.0344238,-0.124817,0.885071,0.066,-0.147,-21.08,837.907,-676.933,801.453,9034667
0.0877075,0.0906372,1.16882,0.035,0.059,-21.06,718.133,-831.601,801.475,9034682
-0.295654,0.119324,0.902527,-0.33,-0.037,-21.01,662.471,-719.916,801.514,9034727
0.252625,0.0802002,0.83844,0.196,0.125,-20.97,727.934,-772.082,801.552,9034757
0.286438,-0.0764771,0.976807,0.282,-0.014,-20.94,838.399,-812.975,801.574,9034787
-0.33136,-0.0292969,0.845947,-0.311,-0.184,-20.9,879.275,-688.066,801.612,9034817
0.0457153,-0.0537109,1.32654,0.043,-0.094,-20.87,847.35,-673.764,801.636,9034847
-0.0266113,-0.00457764,1.0658,-0.047,-0.055,-20.02,751.795,-796.305,802.335,9035552
0.0172119,0.148926,1.02844,-0.058,0.105,-19.97,773.335,-695.628,802.389,9035597
0.365845,0.0845337,1.39142,0.283,0.149,-19.94,768.758,-770.357,802.413,9035628
0.0402222,-0.045166,0.775879,0.034,-0.056,-19.78,530.912,-768.905,802.552,9035763
0.0375366,0.0551758,0.938721,-0.006,0.031,-19.73,925.497,-758.61,802.593,9035808
0.258179,-0.09021,0.169495,0.269,-0.004,-19.69,855.615,-654.729,802.632,9035838
0.0584106,0.136353,1.25348,-0.021,0.104,-19.65,720.825,-732.44,802.655,9035868
-0.365479,0.0509033,0.80658,-0.381,-0.102,-19.62,737.98,-550.237,802.693,9035913
0.281067,0.0673828,0.903442,0.22,0.127,-19.6,787.371,-785.145,802.733,9035943
-0.0552368,-0.0169678,1.00122,-0.073,-0.067,-19.57,764.117,-770.594,802.772,9035988
-0.0331421,0.0858765,1.32428,-0.095,0.026,-19.55,721.215,-704.771,802.812,9036018
0.12561,-0.00469971,1.03851,0.092,0.003,-19.53,774.833,-743.937,802.834,9036048
0.178406,-0.12262,0.837646,0.186,-0.083,-19.5,762.515,-847.206,802.874,9036078
-0.274231,-0.0543823,0.813232,-0.261,-0.168,-19.48,816.76,-763.884,802.914,9036123
0.281555,0.000366211,0.938904,0.242,0.063,-19.42,654.857,-757.633,802.954,9036168
-0.0725708,-0.0827026,0.77832,-0.06,-0.126,-19.37,721.137,-753.125,802.994,9036213
0.0891113,-0.0412598,1.09326,0.07,-0.041,-19.34,782.687,-666.134,803.032,9036243
-0.0383911,-0.0309448,1.01367,-0.051,-0.071,-19.34,739.044,-680.318,803.052,9036258
-0.194824,-0.00213623,1.04962,-0.209,-0.094,-19.27,625.645,-696.573,803.093,9036303
0.0411377,-0.0281982,1.04633,0.021,-0.04,-19.23,688.682,-624.629,803.132,9036348
-0.256714,-0.0197754,0.894226,-0.26,-0.126,-19.22,688.8,-721.033,803.172,9036378
0.0950317,-0.0791626,0.697327,0.098,-0.061,-19.22,778.331,-710.252,803.193,9036408
0.229919,0.0466309,1.09961,0.173,0.092,-19.21,646.747,-718.571,803.232,9036438
0.167664,-0.0559082,1.03027,0.15,-0.019,-19.19,628.003,-581.92,803.376,9036588
-0.0200806,-0.141907,1.19287,-0.004,-0.163,-19.2,395.523,-557.398,803.412,9036618
0.359924,-0.281067,0.968262,0.401,-0.157,-19.29,527.009,-438.818,803.452,9036663
-0.0789185,-0.0236206,1.1626,-0.1,-0.056,-19.36,460.829,-408.789,803.492,9036709
0.0219116,-0.00909424,1.06104,-0.008,-0.007,-19.36,495.319,-420.062,803.533,9036738
0.131348,-0.0946045,0.589233,0.137,-0.049,-19.37,380.771,-437.531,803.553,9036769
0.116882,-0.100647,0.930481,0.115,-0.06,-19.35,364.206,-402.317,803.592,9036798
-0.019104,-0.145752,0.756104,0.006,-0.145,-19.38,379.248,-362.266,803.632,9036843
0.0406494,-0.0280762,0.966675,0.017,-0.014,-19.37,301.382,-328.165,803.672,9036889
0.140015,-0.0770874,1.03894,0.125,-0.025,-19.38,317.239,-356.347,803.712,9036918
0.0321045,-0.0535889,1.12317,0.013,-0.037,-19.39,335.334,-313.617,803.752,9036963
-0.000671387,-0.0438843,0.986206,-0.017,-0.039,-19.39,292.03,-272.491,803.773,9036978
0.0452881,-0.106812,1.08704,0.041,-0.081,-19.39,214.546,-255.526,803.814,9037023
0.09375,-0.0685425,0.909424,0.08,-0.028,-19.41,202.073,-212.325,803.873,9037083
0.0117188,-0.0773926,0.970337,0.004,-0.062,-19.41,172.952,-200.88,803.893,9037098
0.0493164,-0.0216064,0.99292,0.02,0.004,-19.43,177.508,-171.023,803.934,9037143
0.0390015,-0.078064,1.02258,0.028,-0.05,-19.43,144.39,-158.214,803.972,9037189
0.00634766,-0.0543213,1.00885,-0.01,-0.035,-19.44,75.9169,-74.1584,804.093,9037309
0.0136719,-0.0350342,1.03113,-0.01,-0.013,-19.44,49.9479,-50.695,804.132,9037339
0.0137939,-0.041687,1.05225,-0.009,-0.018,-19.44,31.6064,-31.5487,804.172,9037384
0.0795898,-0.103821,1.00446,0.074,-0.054,-19.43,27.7665,-24.9083,804.196,9037414
0.0283813,-0.0145874,1.00775,-0.003,0.012,-19.44,27.7665,-24.9083,804.233,9037444
0.036438,-0.00720215,1.00177,0.002,0.021,-19.43,4.35311,-4.46069,804.278,9037489
0.0135498,0.0140991,1.01501,-0.026,0.033,-19.44,-3.78569,3.76956,804.313,9037519
0.0126343,0.0155029,1.00751,-0.027,0.033,-19.44,-6.81491,7.06396,804.333,9037549
0.0143433,0.0213013,1.02026,-0.027,0.038,-19.44,-20.3447,14.7046,804.373,9037594
-0.0324707,-0.0124512,0.988708,-0.06,-0.008,-19.48,-43.3893,19.3759,804.412,9037624
0.0480347,-0.0739746,1.0603,0.034,-0.037,-19.48,-48.4296,18.618,804.432,9037639
0.0112915,-0.0550537,0.989624,-0.004,-0.033,-19.49,-75.6167,45.8845,804.472,9037684
-0.022644,-0.012207,1.01355,-0.051,-0.003,-19.5,-72.6715,73.8269,804.493,9037699
0.0123901,-0.0178223,1.0528,-0.017,0.003,-19.51,-89.4979,88.2807,804.533,9037744
0.0291748,-0.0452881,1.00726,0.008,-0.017,-19.5,-99.1852,107.318,804.572,9037789
0.0690308,-0.0534668,1.00269,0.048,-0.011,-19.52,-115.657,113.711,804.594,9037804
0.0264893,-0.0458984,1.01855,0.005,-0.017,-19.52,-140.051,148.417,804.632,9037849
0.0384521,-0.0606689,0.993591,0.022,-0.028,-19.52,-169.869,168.906,804.672,9037879
0.0693359,-0.0952759,0.937256,0.064,-0.05,-19.51,-165.792,173.394,804.696,9037909
-0.0148926,-0.114563,1.06793,-0.014,-0.092,-19.52,-220.354,243.416,804.735,9037954
0.0529175,-0.0884399,0.991943,0.043,-0.045,-19.51,-226.035,263.546,804.772,9037984
0.0722656,-0.115051,1.0025,0.068,-0.061,-19.51,-282.55,309.665,804.798,9038014
0.0985718,-0.121155,1.1264,0.088,-0.053,-19.52,-355.347,352.852,804.845,9038059
0.00262451,-0.150513,1.05023,0.01,-0.113,-19.52,-393.059,378.086,804.875,9038089
0.0725708,-0.188843,1.04327,0.088,-0.124,-19.52,-392.657,474.721,804.894,9038104
0.0648804,-0.213379,0.874146,0.095,-0.152,-19.51,-422.012,453.165,804.932,9038149
0.0407104,-0.210266,0.890015,0.069,-0.154,-19.5,-531.477,507.988,804.972,9038179
0.148621,-0.0940552,1.23395,0.116,0.007,-19.45,-593.014,761.441,805.012,9038224
-0.0267334,-0.16925,0.992615,-0.013,-0.126,-19.27,-532.623,985.222,805.053,9038269
-0.0259399,-0.129578,0.881897,-0.021,-0.092,-19.2,-492.138,1141.42,805.073,9038284
-0.00439453,-0.0397949,1.34399,-0.049,0.022,-18.9,-707.689,1157.41,805.112,9038330
0.149719,-0.210266,1.24072,0.156,-0.092,-18.64,-679.417,1165.43,805.152,9038359
0.2099,-0.116272,1.21021,0.184,0.014,-18.33,-695.289,1356.39,805.174,9038390
0.246216,-0.00579834,1.32251,0.182,0.134,-17.98,-721.891,1279.84,805.212,9038419
-0.73822,-0.0454712,0.728943,-0.72,-0.228,-17.35,-816.193,1246.81,805.252,9038464
-0.245667,-0.0731201,1.13177,-0.258,-0.083,-16.88,-788.799,1299.55,805.275,9038494
-0.280334,0.0811768,1.24536,-0.339,0.062,-16.41,-743.688,1110.37,805.313,9038524
-0.00360107,-0.0488281,1.05383,-0.03,0.009,-15.66,-808.767,1297.35,805.353,9038570
0.202759,-0.167664,0.811401,0.209,-0.063,-15.16,-877.578,1235.79,805.393,9038599
0.394958,-0.0177612,1.05688,0.348,0.138,-14.34,-859.734,1351.9,805.434,9038644
0.355774,-0.0687256,0.859192,0.33,0.067,-14.08,-788.239,1214.55,805.454,9038659
0.169434,0.0172729,1.27057,0.113,0.124,-13.26,-912.076,1326,805.493,9038704
-0.965942,-0.201233,0.513794,-0.923,-0.368,-11.85,-921.871,1079.68,805.563,9038779
-0.965942,-0.201233,0.513794,-0.923,-0.368,-11.85,-1102.29,1510.69,805.574,9038779
0.587219,-0.0747681,1.65277,0.53,0.132,-11.3,-1071.93,1583.28,805.595,9038810
-0.428833,-0.0230103,1.13855,-0.458,-0.042,-10.75,-918.569,1053.46,805.632,9038839
0.46405,0.152161,1.86145,0.362,0.328,-9.93,-871.118,1066.33,805.672,9038884
-0.0234375,-0.0203857,0.627563,-0.044,0.005,-9.45,-967.82,815.029,805.713,9038930
-0.0703735,0.126221,1.1908,-0.139,0.14,-9.67,-901.388,595.026,805.853,9039065
0.213257,0.211243,1.4389,0.114,0.271,-9.94,-712.631,592.329,805.893,9039110
0.367371,-0.0476074,0.730774,0.34,0.028,-10.02,-778.452,498.529,805.914,9039125
-0.19397,0.106995,0.937012,-0.249,0.08,-10.28,-887.587,505.433,805.952,9039170
0.024231,0.126526,1.039,-0.041,0.136,-10.49,-823.282,528.22,805.993,9039200
0.00683594,0.0160522,1.10541,-0.039,0.022,-10.7,-726.665,410.686,806.014,9039230
-0.0888672,0.168091,1.09485,-0.163,0.15,-10.92,-644.621,685.049,806.051,9039260
0.166016,0.0797729,1.06769,0.103,0.108,-11.31,-674.082,729.341,806.093,9039305
0.100525,0.202209,0.950012,0.02,0.215,-11.45,-719.942,596.427,806.113,9039320
0.0662231,0.0489502,0.88208,0.019,0.054,-11.79,-617.055,607.072,806.153,9039365
0.0848999,0.221497,1.2818,-0.012,0.221,-12.09,-601.775,517.143,806.192,9039410
0.0113525,0.0800781,0.942505,-0.041,0.07,-12.17,-590.336,585.875,806.213,9039425
0.0493774,0.0022583,1.05499,0.007,0,-12.44,-699.081,482.614,806.254,9039470
0.0448608,0.0273438,0.846375,0.005,0.025,-12.61,-526.343,452.56,806.292,9039500
0.311951,0.0522461,1.27106,0.245,0.102,-12.8,-603.245,452.909,806.313,9039530
0.106384,-0.00970459,1.26385,0.058,0.018,-15.47,-606.815,722.857,806.793,9040011
-0.101562,0.0308228,1.13129,-0.146,0.003,-15.49,-726.771,775.074,806.832,9040040
0.010376,-0.00195312,0.944153,-0.023,0.003,-15.53,-713.98,588.114,806.872,9040085
0.0141602,-0.0506592,1.01093,-0.008,-0.041,-15.53,-685.848,773.036,806.893,9040100
-0.03125,-0.0933838,1.09229,-0.044,-0.093,-15.55,-714.26,651.317,806.933,9040145
0.104736,0.0393677,1.19318,0.049,0.071,-15.56,-425.188,699.325,806.954,9040160
0.0808105,-0.0321045,0.767578,0.06,-0.003,-15.59,-704.3,738.28,806.992,9040205
-0.131165,-0.0831299,1.24615,-0.146,-0.104,-15.61,-762.311,662.186,807.032,9040251
-0.400452,0.0281982,0.912354,-0.424,-0.073,-15.63,-815.594,789.796,807.054,9040265
0.0328369,0.0601196,1.14081,-0.023,0.077,-15.66,-821.997,853.17,807.092,9040311
0.00506592,-0.12915,1.09387,0.001,-0.112,-15.66,-821.828,873.629,807.132,9040340
0.0773926,-0.13739,0.811768,0.083,-0.102,-15.68,-860.326,733.837,807.173,9040385
-0.0592041,0.00750732,0.65979,-0.081,-0.001,-15.68,-764.351,854.957,807.193,9040400
-0.410645,-0.0506592,0.863647,-0.411,-0.151,-15.7,-744.463,876.732,807.232,9040445
0.0713501,0.0336914,0.804626,0.031,0.06,-15.71,-768.049,705.492,807.254,9040460
0.261475,-0.0159302,0.780273,0.228,0.063,-15.72,-696.549,743.55,807.292,9040505
0.268188,0.121155,0.901245,0.192,0.197,-15.74,-818.833,753.069,807.332,9040551
-0.0395508,-0.0222168,0.72644,-0.059,-0.025,-15.75,-957.579,773.515,807.353,9040565
0.111694,0.141052,0.985291,0.034,0.173,-15.76,-735.727,696.233,807.405,9040626
0.111694,0.141052,0.985291,0.034,0.173,-15.76,-740.384,790.014,807.42,9040626
0.442993,0.0802612,1.49579,0.352,0.207,-15.76,-829.876,818.431,807.452,9040671
-0.107178,0.0443726,1.12665,-0.153,0.02,-15.78,-781.953,692.977,807.493,9040701
0.0275879,0.137939,0.97168,-0.044,0.138,-16.17,-605.822,648.319,807.992,9041211
-0.158203,0.122803,0.99823,-0.219,0.068,-16.25,-514.311,634.86,808.041,9041256
0.103638,0.0913086,0.843994,0.046,0.111,-16.25,-532.396,643.501,808.054,9041271
0.0374756,0.100464,1.2348,-0.03,0.094,-16.2,-487.65,524.7,808.099,9041316
-0.000488281,0.0864868,1.05902,-0.056,0.071,-16.18,-602.011,487.377,808.118,9041331
-0.120117,0.129272,0.863281,-0.177,0.08,-16.18,-552.975,458.411,808.155,9041361
-0.0148315,0.130127,0.460144,-0.063,0.113,-16.14,-545.301,494.438,808.192,9041406
0.217651,0.0222168,1.16876,0.169,0.063,-16.14,-499.825,374.806,808.214,9041421
-0.0728149,-0.0657349,1.06256,-0.081,-0.101,-16.16,-406.331,387.049,808.253,9041466
0.022644,0.218567,1.1557,-0.069,0.195,-16.17,-398.502,490.557,808.292,9041496
0.246643,0.0786743,1.22437,0.183,0.12,-16.17,-348.724,377.743,808.314,9041526
0.0596313,0.0874634,1.23212,0,0.075,-16.17,-403.388,343.041,808.352,9041571
-0.0630493,0.106262,1.07434,-0.117,0.061,-16.17,-353.707,376.967,808.392,9041601
0.012207,0.150818,1.06555,-0.056,0.124,-16.17,-315.015,366.072,808.413,9041632
0.0336304,0.0348511,1.06744,-0.003,0.017,-16.17,-237.389,313.868,808.453,9041661
-0.0735474,0.0824585,1.17859,-0.122,0.029,-16.17,-290.778,249.545,808.494,9041706
0.135559,0.0455933,0.9198,0.095,0.057,-16.17,-242.333,286.944,808.532,9041752
-0.022644,0.0669556,0.955078,-0.063,0.032,-16.16,-269.694,234.173,808.572,9041781
0.0806885,0.0474854,0.873657,0.044,0.043,-16.17,-208.577,227.296,808.6,9041812
0.0136719,0.0917969,1.15625,-0.039,0.058,-16.16,-209.945,179.346,808.633,9041841
0.0802002,0.0299072,1.04785,0.044,0.019,-16.16,-151.627,175.023,808.675,9041886
0.0123291,-0.0179443,1.01453,-0.004,-0.048,-16.16,12.5042,-14.3551,809.092,9042307
0.0163574,-0.0248413,1.01331,0,-0.052,-16.16,10.8258,-12.2357,809.133,9042352
0.0263062,-0.0336304,1.01062,0.013,-0.057,-16.16,10.8258,-10.2945,809.154,9042367
0.209167,-0.0802612,1.06018,0.2,-0.053,-16.14,14.1268,-9.25512,809.192,9042412
0.11908,0.0128784,1.07416,0.089,0.011,-16.15,25.9157,-30.022,809.232,9042442
0.128723,0.0349731,0.932373,0.093,0.039,-16.15,37.8967,-34.0765,809.253,9042457
0.0100708,0.143616,1.13104,-0.048,0.088,-16.06,293.69,-309.416,809.592,9042802
0.0357056,0.0506592,1.15521,0.002,0.003,-16.07,314.13,-346.711,809.614,9042832
0.0437622,0.0443726,1.12531,0.011,0,-16.06,350.619,-373.35,809.652,9042862
0.00775146,0.0704346,1.02539,-0.027,0.018,-16.05,409.065,-369.952,809.692,9042907
0.00592041,0.0916748,1.07471,-0.036,0.035,-16.05,556.313,-489.021,809.713,9042922
-0.0634155,0.0362549,1.01904,-0.085,-0.035,-16.03,475.217,-495.884,809.753,9042967
-0.092041,0.034729,1.13257,-0.115,-0.051,-16.03,556.05,-557.196,809.792,9042997
-0.137695,0.0703735,0.716919,-0.163,-0.008,-16.02,468.099,-398.533,809.814,9043027
0.14563,0.03302,0.68811,0.12,0.034,-16,571.608,-529.269,809.852,9043057
0.0355225,0.00762939,0.812256,0.019,-0.027,-15.96,552.471,-604.339,809.893,9043102
0.0593262,0.100647,1.35419,0.01,0.038,-15.93,518.551,-544.07,809.915,9043132
-0.405151,-0.036499,1.12994,-0.397,-0.209,-15.93,608.254,-576.435,809.953,9043162
-0.0542603,-0.0465088,1.03601,-0.054,-0.117,-15.89,579.912,-584.59,809.993,9043207
0.050354,0.0114136,0.987366,0.03,-0.03,-15.87,572.344,-609.719,810.015,9043222
-0.116699,0.0283813,1.07965,-0.136,-0.066,-15.86,533.504,-613.723,810.052,9043267
0.158936,0.11261,1.33862,0.101,0.074,-15.84,745.268,-644.454,810.092,9043297
0.0927124,0.0775146,0.802246,0.055,0.054,-15.83,574.201,-541.419,810.113,9043327
0.0715332,0.155762,1.07977,0.009,0.107,-15.82,755.373,-589.744,810.153,9043357
-0.191711,0.0935669,1.13818,-0.227,-0.027,-15.81,674.992,-633.352,810.193,9043402
-0.0882568,0.0910645,0.987854,-0.124,0.006,-15.79,742.473,-491.026,810.214,9043433
0.259277,0.0861206,0.978027,0.211,0.096,-15.77,627.077,-677.645,810.254,9043462
0.297058,0.0420532,1.07452,0.259,0.059,-15.75,690.298,-706.914,810.293,9043507
0.318298,0.0674438,0.792664,0.276,0.105,-15.73,631.652,-688.705,810.313,9043522
-0.278992,-0.0976562,1.34863,-0.26,-0.244,-15.71,703.878,-676.682,810.352,9043567
-0.136719,0.133545,1.00696,-0.181,0.034,-15.68,637.572,-597.282,810.394,9043613
0.117676,0.0480957,1.50195,0.08,-0.005,-15.67,793.588,-634.196,810.413,9043627
-0.391418,-0.00939941,1.40845,-0.394,-0.19,-15.67,804.279,-864.566,810.452,9043657
0.226929,0.114807,1.16827,0.172,0.108,-15.61,587.579,-664.209,810.492,9043702
-0.211548,0.0155029,1.17133,-0.223,-0.105,-15.6,831.947,-766.019,810.513,9043717
0.320251,-0.0671997,0.739014,0.316,-0.018,-15.54,925.412,-712.301,810.554,9043762
0.0189819,-0.140137,1.05438,0.039,-0.184,-15.5,788.55,-725.689,810.575,9043793
-0.103088,-0.109253,1.15112,-0.087,-0.192,-15.47,634.337,-699.081,810.612,9043822
-0.125549,-0.0045166,1.01971,-0.134,-0.088,-15.4,714.975,-669.434,810.652,9043868
0.499817,0.0513916,1.01996,0.453,0.13,-15.38,728.651,-773.335,810.677,9043883
0.000366211,-0.046936,1.10413,-0.004,-0.099,-15.33,901.104,-764.789,810.713,9043928
-0.15271,0.057373,0.701721,-0.173,-0.018,-15.31,798.913,-619.79,810.752,9043958
0.0241699,0.0197144,0.962097,0.002,-0.019,-15.28,825.934,-744.103,810.774,9043988
0.086731,0.0279541,0.857788,0.062,0.009,-15.24,694.927,-599.646,810.812,9044018
-0.0542603,0.0444946,1.41913,-0.088,-0.036,-15.21,661.726,-789.983,810.853,9044063
0.195007,0.00537109,1.25098,0.165,-0.001,-15.19,918.021,-730.007,810.873,9044078
-0.184875,0.0179443,0.860718,-0.197,-0.069,-15.17,908.513,-694.035,810.912,9044123
0.0916138,0.00994873,1.26013,0.065,-0.023,-15.12,854.664,-674.65,810.955,9044168
-0.0571289,-0.0354614,0.912659,-0.06,-0.09,-15.11,891.742,-715.589,810.973,9044183
0.00646973,0.0979004,0.763611,-0.032,0.062,-15.05,706.464,-720.643,811.012,9044228
0.0421143,-0.00604248,1.18793,0.021,-0.047,-15,704.424,-744.74,811.057,9044273
-0.0953979,-0.055603,0.940735,-0.095,-0.119,-14.99,702.716,-804.991,811.074,9044288
0.0967407,0.0673218,1.17255,0.055,0.039,-14.97,775.524,-752.7,811.112,9044318
0.00494385,0.0436401,1.35107,-0.027,-0.015,-14.91,910.747,-818.23,811.153,9044363
-0.097168,-0.0880737,1.20758,-0.09,-0.161,-14.87,505.97,-772.111,811.175,9044393
-0.0527954,0.0585327,0.886169,-0.08,0.005,-14.83,872.562,-780.579,811.213,9044423
-0.0559692,0.0516357,1.1593,-0.087,-0.012,-14.79,761.992,-746.714,811.242,9044453
0.11084,0.0209351,0.720276,0.089,0.018,-14.76,748.643,-691.013,811.274,9044483
0.0841675,-0.0596313,0.946533,0.08,-0.073,-14.72,767.961,-754.375,811.312,9044528
0.197937,0.0384521,1.14105,0.162,0.042,-14.69,801.796,-730.46,811.352,9044558
0.474121,-0.138,1.30017,0.465,-0.07,-13.78,1015.69,-632.971,811.877,9045083
0.0255737,0.220947,1.5694,-0.068,0.163,-13.32,815.129,-639.325,812.172,9045383
-0.158386,0.129333,0.904175,-0.208,0.057,-13.23,739.645,-766.078,812.213,9045428
0.0540771,-0.0351562,1.1225,0.028,-0.063,-13.19,718.365,-760.774,812.252,9045458
-0.173828,-0.0332642,0.963684,-0.19,-0.106,-13.14,795.957,-741.07,812.274,9045489
0.290344,-0.0623169,0.953003,0.269,-0.028,-13.11,719.114,-769.616,812.313,9045519
-0.138794,0.0600586,0.812134,-0.173,0,-13.08,835.666,-750.328,812.352,9045564
-0.0720215,-0.0678101,0.652405,-0.075,-0.104,-13.04,788.364,-697.642,812.374,9045594
0.247314,-0.109558,0.880493,0.239,-0.08,-13,909.504,-679.44,812.413,9045624
0.0263062,-0.0401611,0.792297,0.01,-0.06,-12.94,784.375,-828.466,812.452,9045669
0.167847,0.168518,1.27008,0.087,0.159,-12.91,719.994,-809.323,812.473,9045684
-0.0248413,0.010376,0.753906,-0.049,-0.02,-12.83,758.208,-708.316,812.514,9045729
-0.0383911,0.0213623,0.953369,-0.069,-0.019,-12.79,895.616,-739.262,812.553,9045759
0.16272,0.0366821,0.798462,0.127,0.045,-12.75,743.771,-795.767,812.573,9045789
-0.055542,0.0199585,1.09912,-0.091,-0.029,-12.73,822.132,-694.276,812.615,9045834
0.031311,-0.0375977,0.83313,0.014,-0.056,-12.71,742.115,-843.562,812.653,9045864
0.275574,-0.0318604,0.993652,0.248,-0.002,-12.7,704.871,-817.962,812.674,9045894
0.0800171,-0.0788574,0.921631,0.069,-0.088,-12.69,701.681,-765.111,812.713,9045924
-0.0149536,-0.0943604,0.946411,-0.021,-0.121,-12.71,804.473,-726.639,812.752,9045969
0.158386,-0.0305176,0.776428,0.139,-0.015,-12.72,836.365,-751.993,812.772,9045984
-0.114685,-0.0599365,1.2124,-0.134,-0.111,-12.74,670.736,-710.808,812.812,9046029
0.241028,-0.201416,0.720154,0.258,-0.157,-12.75,519.157,-611.696,812.853,9046059
-0.293457,-0.313782,1.37402,-0.259,-0.392,-12.79,533.333,-610.147,812.874,9046089
-0.0647583,-0.126221,1.09204,-0.064,-0.146,-12.86,451.457,-482.114,812.913,9046134
-0.0378418,-0.145203,1.1748,-0.039,-0.157,-12.82,445.871,-417.685,812.954,9046164
-0.183167,-0.0543823,1.02972,-0.199,-0.097,-12.83,497.154,-432.517,812.992,9046209
-0.145264,0.0689087,1.14398,-0.192,0.032,-12.85,435.322,-407.955,813.032,9046239
0.0761108,-0.0609741,1.35681,0.045,-0.044,-12.84,397.235,-426.221,813.054,9046269
-0.0231323,-0.0377197,0.902466,-0.041,-0.042,-12.86,342.859,-322.752,813.093,9046299
0.0548096,-0.0490723,1.05804,0.032,-0.032,-12.89,360.9,-332.928,813.133,9046344
0.0753784,-0.137451,0.921814,0.076,-0.111,-12.92,263.026,-254.56,813.273,9046479
0.052063,0.0110474,0.998291,0.018,0.03,-12.92,245.733,-216.076,813.312,9046524
0.0341797,-0.0625,1.00018,0.016,-0.045,-12.92,230.614,-206.449,813.333,9046539
0.0445557,-0.0576172,1.01959,0.024,-0.034,-12.95,149.707,-155.263,813.452,9046659
0.0159302,-0.0487061,1.00494,-0.004,-0.031,-12.95,154.638,-128.616,813.492,9046704
0.0272217,-0.0437622,1.01385,0.004,-0.022,-12.96,116.604,-102.217,813.532,9046749
0.024231,-0.0751953,1.02887,0.007,-0.053,-12.96,88.645,-112.052,813.572,9046779
0.0395508,-0.0496216,0.994995,0.018,-0.024,-12.96,69.0775,-66.0369,813.614,9046824
-0.0045166,-0.0360107,1.02972,-0.028,-0.02,-12.97,60.6367,-56.9053,813.632,9046839
0.0193481,-0.0484619,1.00555,-0.002,-0.026,-12.97,42.87,-35.3062,813.693,9046899
0.0339355,-0.0424194,1.01556,0.01,-0.016,-12.97,30.1873,-22.8024,813.732,9046944
0.0178833,-0.0200806,1.02692,-0.01,0.002,-12.98,30.1873,-15.5293,813.774,9046989
0.0654297,-0.0117798,1.00537,0.034,0.02,-12.98,30.1873,-15.5293,813.794,9047004
0.0511475,0.0045166,1.03009,0.016,0.033,-12.97,3.91145,-15.5293,813.832,9047049
0.0246582,0.0184937,1.01538,-0.012,0.039,-12.98,-57.0543,0,813.873,9047079
0.0159912,-0.0924683,0.983887,0.004,-0.069,-13,-56.3488,22.4177,813.894,9047109
0.137085,-0.168091,0.935486,0.139,-0.114,-13.04,-112.6,261.599,813.934,9047139
0.181396,-0.257751,0.904907,0.199,-0.171,-13.04,-438.75,1240.08,814.072,9047290
-0.183594,-0.266113,1.00073,-0.158,-0.254,-13.01,-530.969,1311.22,814.112,9047320
0.201904,-0.175171,0.923218,0.198,-0.078,-12.99,-599.179,1160.36,814.134,9047350
-0.0057373,-0.100281,1.34717,-0.039,-0.026,-12.92,-760.659,1202.65,814.174,9047380
0.167969,-0.210022,0.978027,0.169,-0.112,-12.76,-607.423,1159.42,814.212,9047425
0.0545044,-0.072998,1.27594,0.017,0.016,-12.49,-825.764,1261.11,814.254,9047470
0.0769043,-0.111084,1.30615,0.045,-0.013,-12.38,-795.387,1268.39,814.274,9047485
0.171936,-0.150574,0.8302,0.167,-0.059,-11.96,-740.713,1193.82,814.312,9047530
-0.449829,-0.0675659,1.54803,-0.489,-0.06,-11.62,-817.194,1331.38,814.352,9047560
-0.123535,-0.0427856,1.17987,-0.155,0.009,-11.25,-754.29,1194.39,814.374,9047590
-0.420593,-0.1073,1.33362,-0.443,-0.098,-10.85,-831.255,1292.66,814.412,9047620
0.472168,-0.159058,0.78418,0.463,-0.018,-10.43,-1026.85,1326.26,814.442,9047650
-0.495972,-0.13678,0.831421,-0.496,-0.166,-9.99,-814.93,1402.23,814.474,9047680
-0.134216,-0.191101,0.609009,-0.125,-0.169,-9.3,-904.2,1476.34,814.513,9047725
0.134705,0.00567627,0.676086,0.106,0.072,-8.64,-834.62,1412.03,814.552,9047770
-0.113525,-0.0581055,1.10632,-0.146,0,-8.41,-1025.17,1400.85,814.574,9047785
-0.457642,-0.0527954,0.947449,-0.481,-0.051,-7.69,-1034.98,1430.92,814.612,9047830
0.019165,-0.0283813,1.29907,-0.024,0.061,-7.19,-741.867,1415.13,814.653,9047860
-0.459656,-0.0933228,1.06354,-0.484,-0.075,-6.72,-850.521,1318.22,814.674,9047890
-0.213318,0.0126953,0.619202,-0.234,0.03,-6.25,-1054.19,1356.12,814.712,9047920
-0.10376,-0.0200195,0.533508,-0.118,0.005,-5.53,-1147.58,1317.35,814.752,9047965
-0.540405,0.0831299,1.34039,-0.592,0.118,-5.27,-952.653,1271.62,814.773,9047980
0.124573,-0.0802612,0.889648,0.102,-0.012,-4.57,-1044,1305.65,814.812,9048025
-0.143066,0.161133,1.59406,-0.203,0.251,-3.9,-1104.24,1326.52,814.852,9048070
-0.174377,-0.123657,0.707642,-0.189,-0.089,-3.7,-1109.39,1277.71,814.873,9048085
0.287109,-0.0669556,0.988037,0.261,0.011,-3.14,-1164.28,1381.6,814.912,9048130
-0.0043335,-0.0661621,0.949036,-0.029,-0.007,-2.78,-1093.37,1312.94,814.952,9048160
-0.170654,-0.0292358,0.570923,-0.185,-0.002,-2.47,-1315.44,1495.66,814.974,9048190
-0.118042,0.135071,1.27203,-0.159,0.206,-2.14,-1283.86,1284.6,815.012,9048220
0.144592,0.0280151,0.935181,0.117,0.087,-1.74,-1064.4,1372.78,815.053,9048265
0.399353,0.202881,1.11902,0.362,0.279,-1.64,-1339.85,1221.08,815.075,9048280
-0.172302,0.105408,0.925659,-0.202,0.15,-1.46,-1031.62,1101.81,815.112,9048325
-0.152283,0.195862,0.795898,-0.18,0.228,-1.44,-1114.95,1002.91,815.153,9048370
-0.09552,0.203552,1.20099,-0.136,0.251,-1.48,-1063.83,1236.55,815.176,9048385
0.00280762,0.127136,0.996399,-0.031,0.163,-1.54,-1108.28,1103.51,815.213,9048430
-0.371338,0.195496,0.986816,-0.407,0.218,-1.57,-778.786,1057.64,815.252,9048460
0.0410767,0.167786,1.11279,0.001,0.202,-1.62,-872.562,893.655,815.292,9048505
0.301636,0.0769653,0.895508,0.271,0.11,-1.64,-892.698,892.578,815.313,9048520
0.123657,0.198181,1.32745,0.077,0.234,-1.65,-1004.27,817.862,815.357,9048565
0.101868,0.101074,0.86676,0.072,0.122,-1.69,-809.684,950.977,815.392,9048610
-0.0950317,-0.0591431,0.977417,-0.123,-0.052,-1.79,-723.275,736.893,815.632,9048851
0.175903,0.0315552,0.930176,0.146,0.046,-1.8,-724.297,786.535,815.652,9048866
-0.0206299,0.108154,1.1983,-0.059,0.117,-1.82,-727.723,685.448,815.694,9048911
0.0198975,0.0673828,1.09241,-0.014,0.077,-1.83,-798.722,704.3,815.733,9048941
0.154602,0.104553,0.987549,0.122,0.117,-1.85,-733.138,632.231,815.772,9048986
-0.062439,-0.0307617,0.878235,-0.086,-0.027,-1.87,-657.7,686.813,815.813,9049031
-0.00714111,0.086853,0.956299,-0.037,0.092,-1.89,-831.566,754.063,815.852,9049061
0.0129395,-0.0617676,0.905457,-0.011,-0.056,-1.89,-748.783,729.262,815.892,9049106
0.202393,0.0560913,1.28833,0.164,0.069,-1.9,-793.934,522.821,815.914,9049121
0.0708008,0.0545654,1.02228,0.041,0.061,-1.91,-780.153,824.776,815.953,9049166
-0.0154419,0.0618286,1.09503,-0.048,0.065,-1.92,-718.081,706.939,815.992,9049211
0.0640869,0.0786133,1.05731,0.031,0.084,-1.93,-636.72,652.614,816.032,9049241
-0.0195923,-0.119385,1.005,-0.044,-0.117,-1.93,-489.956,700.452,816.074,9049286
0.308594,-0.0599365,0.7005,0.29,-0.048,-1.93,-636.557,679.509,816.112,9049331
-0.21283,0.135376,1.15588,-0.252,0.129,-1.92,-732.762,708.491,816.153,9049361
0.0516357,0.150818,1.02148,0.015,0.151,-1.91,-770.149,666.911,816.177,9049391
-0.0270996,0.00628662,1.0733,-0.058,0.005,-1.96,-679.787,726.006,816.412,9049631
-0.0739136,0.208191,1.45862,-0.121,0.205,-1.98,-493.109,631.054,816.452,9049661
0.317322,-0.0192871,1.01062,0.288,-0.008,-2.01,-663.614,719.476,816.613,9049826
-0.0636597,-0.0147095,1.2655,-0.101,-0.016,-2.01,-756.201,663.68,816.651,9049857
0.301514,0.0657349,0.635498,0.279,0.075,-2.01,-698.617,675.858,816.674,9049886
0.071106,0.0310059,0.844666,0.042,0.032,-1.99,-702.469,641.54,816.713,9049931
0.23645,0.123901,0.772278,0.206,0.13,-1.99,-658.696,649.013,816.753,9049961
0.179077,0.0288086,1.32111,0.133,0.031,-1.97,-519.036,638.264,816.773,9049991
-0.0842285,0.00372314,0.874084,-0.114,-0.002,-1.96,-672.902,556.669,816.814,9050021
-0.192688,0.0377197,1.11127,-0.231,0.026,-1.96,-472.088,657.138,816.853,9050066
0.171814,0.0530396,1.18787,0.127,0.055,-1.95,-610.93,580.821,816.894,9050111
-0.153015,-0.00543213,0.951965,-0.186,-0.013,-1.96,-617.055,584.744,816.914,9050126
0.0133057,0.10376,1.21515,-0.033,0.099,-1.98,-609.385,571.053,816.952,9050171
-0.0281982,0.0250854,1.03809,-0.067,0.019,-2.05,-516.276,597.318,816.996,9050217
-0.0733643,0.0119629,0.948425,-0.107,0.004,-2.07,-638.223,508.195,817.013,9050231
0.424377,-0.0153198,0.34729,0.412,-0.001,-2.08,-538.648,554.785,817.053,9050261
-0.0856934,0.067627,0.950562,-0.123,0.059,-2.12,-615.972,590.005,817.074,9050291
-0.0957642,-0.00805664,0.932251,-0.129,-0.016,-2.16,-623.947,521.676,817.112,9050321
-0.122559,0.106445,0.8302,-0.157,0.096,-2.21,-530.152,570.679,817.152,9050366
0.0910645,0.0157471,1.17798,0.045,0.011,-2.22,-625.528,530.532,817.173,9050381
0.0834961,-0.0372925,1.34308,0.035,-0.043,-2.26,-446.628,491.606,817.212,9050426
-0.071228,-0.0474243,0.887756,-0.103,-0.056,-2.31,-543.139,524.769,817.255,9050472
-0.0884399,-0.00762939,1.13898,-0.131,-0.019,-2.35,-578.737,401.59,817.292,9050502
-0.138672,0.0100098,0.943115,-0.174,-0.003,-2.38,-461.851,489.345,817.313,9050532
0.0452881,0.0622559,0.969666,0.006,0.056,-2.42,-525.21,411.387,817.352,9050562
-0.165344,0.00616455,1.03577,-0.204,-0.009,-2.46,-446.528,504.808,817.392,9050607
0.108582,0.0457764,1.01062,0.068,0.041,-2.48,-364.757,477.19,817.414,9050622
0.146606,0.00378418,0.911072,0.112,0.002,-2.51,-437.934,457.792,817.452,9050667
-0.157776,-0.03125,0.849121,-0.187,-0.045,-2.54,-408.948,432.32,817.492,9050712
0.00421143,0.0383911,0.81366,-0.026,0.031,-2.6,-457.75,411.438,817.592,9050802
0.0543823,-0.0787964,0.518677,0.039,-0.08,-2.62,-496.833,446.16,817.614,9050832
0.312134,0.0372925,1.30292,0.265,0.041,-2.66,-427.451,435.047,817.644,9050862
0.00177002,0.0245972,1.16693,-0.038,0.014,-2.91,-371.561,453.371,817.755,9050967
-0.079895,0.145752,0.917847,-0.116,0.132,-3.01,-360.946,409.744,817.793,9051012
0.233765,0.0808105,0.892151,0.201,0.083,-2.99,-294.998,402.123,817.832,9051042
0.0308838,0.0908203,0.89624,0,0.079,-2.96,-320.359,328.089,817.872,9051087
0.0703735,0.104614,0.983521,0.034,0.093,-2.96,-275.391,284.188,817.893,9051102
0.0771484,0.000549316,0.817261,0.052,-0.008,-2.98,-290.225,319.872,817.932,9051147
0.0145264,0.0716553,0.990295,-0.018,0.054,-3,-266.948,306.415,817.973,9051192
0.0872192,0.0474854,0.83667,0.06,0.036,-3.01,-267.373,243.454,817.993,9051207
0.0141602,0.0957031,1.06854,-0.022,0.074,-3.01,-219.662,269.64,818.031,9051237
0.0775146,0.0380859,1.05878,0.044,0.019,-3.02,-268.633,203.959,818.074,9051282
0.0363159,0.062561,1.05719,0.002,0.04,-3.02,-215.817,186.045,818.092,9051312
0.050293,0.0441895,1.02069,0.018,0.022,-3.03,-186.923,191.775,818.137,9051342
0.0443115,0.0668945,0.956604,0.012,0.045,-3.03,-185.168,181.404,818.154,9051372
-0.0308838,0.0797119,1.03271,-0.065,0.051,-3.03,-136.764,135.926,818.195,9051402
0.0653076,0.0942383,0.872253,0.033,0.073,-3.03,-105.937,126.161,818.234,9051447
0.0608521,0.0634155,1.07611,0.023,0.036,-3.02,-95.8575,111.463,818.255,9051462
0.00775146,0.0927734,0.964783,-0.028,0.064,-3.02,-78.0378,77.2992,818.292,9051507
0.0576172,0.0577393,0.966919,0.022,0.03,-3.01,-49.9143,51.4628,818.333,9051552
0.0234985,0.0757446,1.03094,-0.014,0.044,-3.01,-37.1776,39.9358,818.355,9051567
0.0427856,0.0717773,1.02509,0.005,0.04,-3.02,-23.3739,18.3572,818.392,9051598
0.0227051,0.031311,0.99884,-0.012,0,-3.02,-6.25761,18.3572,818.432,9051642
0.0444336,0.0291748,1.01672,0.009,-0.002,-3.02,5.73063,0,818.453,9051672
0.038147,0.0286255,1.01776,0.003,-0.003,-3.02,28.0244,-26.5251,818.492,9051702
0.0469971,-0.0219727,1.0166,0.015,-0.052,-3.02,32.7762,-27.3388,818.532,9051747
0.00915527,-0.00964355,1.02441,-0.023,-0.042,-3.03,32.7762,-27.3388,818.552,9051762
0.0552979,-0.0921021,0.96521,0.028,-0.117,-3.03,12.9004,-12.6445,818.593,9051807
0.00610352,-0.00952148,1.04962,-0.027,-0.037,-3.02,10.9033,-12.6445,818.635,9051852
0.0219116,-0.00146484,1.01752,-0.01,-0.026,-3.02,10.9033,-12.6445,818.652,9051867
0.0232544,-0.00219727,1.01764,-0.009,-0.026,-3.02,10.9033,-12.6445,818.692,9051898
0.0343628,-0.00982666,1.00897,0.002,-0.032,-3.02,10.9033,-12.6445,818.734,9051942
0.036377,-0.00488281,1.00739,0.004,-0.026,-3.03,10.9033,-12.6445,818.753,9051972
