raw_accel_x,raw_accel_y,raw_accel_z,world_accel_x,world_accel_y,yaw,fused_heading,x,y,z,left_encoder_rate,right_encoder_rate,left_motor,right_motor,temp,fpga time,navx time
0.0262451,0.00482178,1.01263,-0.002,0,-138.78,221.21,-1.13008,-1.90375,0,0,0,0,0,36.47,141.667,2786563
0.0212402,0.00427246,1.0224,-0.002,0,0,359.99,-1.13008,-1.90375,0,0,0,0.00763359,0,36.47,141.682,2786578
0.0235596,0.00183105,1.02588,0,-0.001,0,359.99,0,0,0,0,0,0.00763359,0,36.47,141.691,2786593
0.026001,0.00653076,1.01697,0.002,0.003,0,359.99,0,0,0,0,0,0.00763359,0,36.47,141.712,2786608
0.0230713,0.00354004,1.01953,0,0,0,359.99,0,0,0,0,0,0.00763359,0,36.47,141.734,2786623
0.020752,0.003479,1.01929,-0.003,0,0,359.99,0,0,0,0,0,0.00763359,0,36.5,141.751,2786653
0.0239868,0.00439453,1.01978,0,0.001,0,359.99,0,0,0,0,0,0.00763359,0,36.5,141.771,2786668
0.0244751,0.00134277,1.02106,0,-0.001,0,359.99,0,0,0,0,0,0.00763359,0,36.5,141.791,2786683
0.0257568,0.00512695,1.01453,0.001,0.001,0,359.99,0,0,0,0,0,0.00763359,0,36.5,141.811,2786713
0.022644,0.00604248,1.01898,-0.001,0.002,0,359.99,0,0,0,0,0,0.00763359,0,36.5,141.833,2786728
0.0231323,0.00311279,1.01849,0,0,0,359.99,0,0,0,0,0,0.00763359,0,36.5,141.851,2786743
0.0247803,0.00384521,1.01831,0,0,-0.01,359.98,0,0,0,0,0,0.00763359,0,36.5,141.876,2786773
0.0258789,0.00231934,1.02142,0.001,0,-0.01,359.98,0,0,0,0,0,0.00763359,0,36.5,141.892,2786788
0.0217285,0.00268555,1.01959,-0.002,0,0,359.99,0,0,0,0,0,0.00763359,0,36.5,141.916,2786818
0.0221558,0.00268555,1.01605,-0.001,0,-0.01,359.98,0,0,0,0,0,0.00763359,0,36.5,141.934,2786833
0.0255127,0.00177002,1.02826,0.001,-0.001,-0.01,359.98,0,0,0,0,0,0.00763359,0,36.5,141.952,2786848
0.0263672,0.00250244,1.01733,0.002,0,-0.01,359.98,0,0,0,0,0,0.00763359,0,36.5,141.972,2786863
0.022583,0.00201416,1.02313,-0.001,-0.001,-0.01,359.98,0,0,0,0,0,0.00763359,0,36.5,141.995,2786893
0.0217896,0.00177002,1.02106,-0.002,-0.001,-0.01,359.98,0,0,0,0,0,0.00763359,0,36.5,142.021,2786923
0.0217896,0.00177002,1.02106,-0.002,-0.001,-0.01,359.98,0,0,0,0,0,0.00763359,0,36.5,142.032,2786923
0.022522,0.000976562,1.02209,-0.001,-0.002,-0.01,359.98,0,0,0,0,0,0.00763359,0,36.5,142.053,2786953
0.0220337,0.00274658,1.01849,-0.001,0,-0.01,359.98,0,0,0,0,0,0.00763359,0,36.5,142.072,2786968
0.0240479,-0.00012207,1.0188,0,-0.003,-0.01,359.98,0,0,0,0,0,0.00763359,0,36.5,142.093,2786983
0.0269165,0.00335693,1.02374,0.002,0,-0.01,359.98,0,0,0,0,0,0.00763359,0,36.5,142.113,2787013
0.0236206,0.00512695,1.01947,0,0.001,-0.01,359.98,0,0,0,0,0,0.00763359,0,36.5,142.133,2787028
0.020752,0.00268555,1.01526,-0.003,0,-0.01,359.98,0,0,0,0,0,0.00763359,0,36.5,142.152,2787043
0.0236816,0.00244141,1.01892,0,0,-0.01,359.98,0,0,0,0,0,0.00763359,0,36.5,142.171,2787073
0.0237427,0.00341797,1.02258,0,0,-0.01,359.98,0,0,0,0,0,0.00763359,0,36.5,142.191,2787088
0.0262451,0.00195312,1.02209,0.002,-0.001,-0.01,359.98,0,0,0,0,0,0.00763359,0,36.5,142.212,2787103
0.0239868,0.00335693,1.02502,0,0,-0.01,359.98,0,0,0,0,0,0.00763359,0,36.5,142.231,2787133
0.0269775,0.00549316,1.02173,0.003,0.002,-0.01,359.98,0,0,0,0,0,0.00763359,0,36.5,142.251,2787148
0.0233765,0.0010376,1.01959,0,-0.002,-0.01,359.98,0,0,0,0,0,0.00763359,0,36.49,142.272,2787163
0.0236816,0.00463867,1.01556,0,0.001,-0.01,359.98,0,0,0,0,0,0.00763359,0,36.49,142.293,2787193
0.0210571,0.00756836,1.02411,-0.002,0.004,-0.01,359.98,0,0,0,0,0,0.00763359,0,36.49,142.311,2787208
0.0270996,0.00439453,1.01233,0.003,0.001,-0.01,359.98,0,0,0,0,0,0.00763359,0,36.49,142.331,2787223
0.0222168,-0.000671387,1.01453,-0.001,-0.003,-0.01,359.98,0,0,0,0,0,0.00763359,0,36.49,142.351,2787254
0.0256958,0.00256348,1.02325,0.001,0,-0.01,359.98,0,0,0,0,0,0.00763359,0,36.49,142.372,2787268
0.0227661,0.000854492,1.01788,0,-0.002,-0.01,359.98,0,0,0,0,0,0.00763359,0,36.49,142.392,2787283
0.0247192,0.00317383,1.01971,0,0,-0.01,359.98,0,0,0,0,0,0.00763359,0,36.49,142.412,2787314
0.0251465,0.00354004,1.0191,0.001,0,-0.02,359.97,0,0,0,0,0,0.00763359,0,36.49,142.432,2787328
0.022522,0.003479,1.02698,-0.001,0,-0.02,359.97,0,0,0,0,0,0.00763359,0,36.49,142.452,2787343
0.0231934,0.00494385,1.02277,0,0.001,-0.02,359.97,0,0,0,0,0,0.00763359,0,36.49,142.472,2787374
0.0220947,0.00250244,1.0191,-0.001,0,-0.02,359.97,0,0,0,0,0,0.00763359,0,36.49,142.498,2787388
0.024353,-0.00012207,1.01239,0,-0.003,-0.02,359.97,0,0,0,0,0,0.00763359,0,36.49,142.511,2787403
0.0266724,0.00177002,1.01392,0.003,-0.001,-0.02,359.97,0,0,0,0,0,0.00763359,0,36.49,142.532,2787434
0.026001,0.00170898,1.01532,0.002,-0.001,-0.02,359.97,0,0,0,0,0,0.00763359,0,36.49,142.556,2787448
0.0246582,0.00109863,1.0174,0,-0.002,-0.02,359.97,0,0,0,0,0,0.00763359,0,36.49,142.572,2787463
0.0223389,0.00134277,1.02753,-0.001,-0.001,-0.02,359.97,0,0,0,0,0,0.00763359,0,36.49,142.592,2787494
0.0274658,0.00402832,1.01538,0.003,0,-0.02,359.97,0,0,0,0,0,0.00763359,0,36.49,142.613,2787508
0.0266113,0.003479,1.02332,0.002,0,-0.02,359.97,0,0,0,0,0,0.00763359,0,36.49,142.632,2787523
0.0234375,0.0020752,1.01868,0,-0.001,-0.02,359.97,0,0,0,0,0,0.00763359,0,36.49,142.652,2787554
0.0239868,0.00543213,1.01093,0,0.002,-0.02,359.97,0,0,0,0,0,0.00763359,0,36.49,142.672,2787568
0.0236206,0.00543213,1.02185,0,0.002,-0.02,359.97,0,0,0,0,0,0.00763359,0,36.49,142.692,2787583
0.0250854,0.00219727,1.02716,0.001,-0.001,-0.02,359.97,0,0,0,0,0,0.00763359,0,36.49,142.713,2787614
0.0221558,0.00445557,1.01257,-0.001,0.001,-0.02,359.97,0,0,0,0,0,0.00763359,0,36.49,142.732,2787628
0.0218506,0.00390625,1.02423,-0.002,0,-0.02,359.97,0,0,0,0,0,0.00763359,0,36.49,142.754,2787658
0.0223389,0.00512695,1.01935,-0.001,0.001,-0.02,359.97,0,0,0,0,0,0.00763359,0,36.49,142.772,2787674
0.0253906,0.00341797,1.02228,0.001,0,-0.02,359.97,0,0,0,0,0,0.00763359,0,36.49,142.792,2787688
0.0236206,0.00195312,1.01367,0,-0.001,-0.02,359.97,0,0,0,0,0,0.00763359,0,36.49,142.812,2787703
0.0248413,0.000732422,1.0249,0,-0.002,-0.02,359.97,0,0,0,0,0,0.00763359,0,36.49,142.831,2787734
0.024292,0.00341797,1.01764,0,0,-0.02,359.97,0,0,0,0,0,0.00763359,0,36.49,142.851,2787748
0.022644,0.00634766,1.02356,-0.001,0.003,-0.02,359.97,0,0,0,0,0,0.00763359,0,36.49,142.871,2787763
0.0227051,0.0022583,1.02838,-0.001,0,-0.02,359.97,0,0,0,0,0,0.00763359,0,36.49,142.892,2787794
0.0254517,0.00360107,1.01703,0.001,0,-0.02,359.97,0,0,0,0,0,0.00763359,0,36.49,142.913,2787808
0.0238647,0.00439453,1.01843,0,0.001,-0.02,359.97,0,0,0,0,0,0.00763359,0,36.49,142.931,2787823
0.0250244,0.00305176,1.02252,0.001,0,-0.02,359.97,0,0,0,0,0,0.00763359,0,36.49,142.954,2787854
0.0245972,0.00256348,1.01642,0,0,-0.02,359.97,0,0,0,0,0,0.00763359,0,36.49,142.975,2787868
0.0253296,0.00213623,1.01611,0.001,-0.001,-0.01,359.98,0,0,0,0,0,0.00763359,0,36.49,142.992,2787884
0.0236816,0.00494385,1.01953,0,0.001,-0.01,359.98,0,0,0,0,0,0.00763359,0,36.49,143.012,2787914
0.0238647,0.00128174,1.0144,0,-0.001,-0.02,359.97,0,0,0,0,0,0.00763359,0,36.49,143.032,2787929
0.0211792,0.00158691,1.02063,-0.002,-0.001,-0.02,359.97,0,0,0,0,0,0.00763359,0,36.49,143.053,2787944
0.0231323,0.00231934,1.02417,0,0,-0.02,359.97,0,0,0,0,0,0.00763359,0,36.49,143.076,2787974
0.0234985,0.00213623,1.01245,0,0,-0.01,359.98,0,0,0,0,0,0,0,36.49,143.092,2787989
0.0263062,0.0012207,1.01459,0.002,-0.001,-0.01,359.98,0,0,0,0,0,-0.0229885,0,36.49,143.112,2788004
0.0274048,0.00366211,1.02026,0.003,0,-0.01,359.98,0,0,0,0,0,-0.0478927,0,36.49,143.132,2788034
0.0222168,0.000976562,1.02045,-0.001,-0.002,-0.01,359.98,0,0,0,0,0,-0.101533,0,36.49,143.157,2788049
0.0209961,0.00231934,1.0235,-0.002,0,-0.01,359.98,0,0,0,0,0,-0.126437,0,36.49,143.174,2788064
0.0272217,0.0211182,1.02637,0.003,0.017,-0.02,359.97,0,0,0,0,0,-0.181992,0,36.49,143.192,2788094
0.0442505,0.0541382,1.01001,0.02,0.05,-0.02,359.97,1.52588e-05,4.57764e-05,0,-60.1402,0,-0.204981,0,36.49,143.212,2788109
0.0429688,0.132751,1.01251,0.018,0.128,-0.03,359.96,4.57764e-05,0.000213623,0,-35.2802,31.3787,-0.227969,0,36.49,143.233,2788124
0.218994,0.0413208,1.01282,0.195,0.033,-0.02,359.97,-4.57764e-05,0.00109863,0,-38.8277,56.1151,-0.243295,0,36.49,143.251,2788154
0.0617065,0.155823,1.01813,0.036,0.147,-0.01,359.98,4.57764e-05,0.00175476,0,-64.5913,59.155,-0.243295,0,36.49,143.274,2788169
-0.0765991,0.0512085,1.138,-0.104,0.04,-0.03,359.96,0.000106812,0.0025177,0,-84.8403,94.6638,-0.252874,0,36.49,143.294,2788184
0.0350342,0.0721436,1.1817,0.007,0.059,-0.04,359.95,0.000137329,0.00431824,0,-87.184,95.802,-0.268199,0,36.49,143.311,2788214
0.0696411,0.055542,0.883179,0.048,0.045,-0.04,359.95,0.000198364,0.00534058,0,-105.545,113.574,-0.283525,0,36.49,143.336,2788229
-0.0167847,0.126465,1.09021,-0.043,0.112,-0.04,359.95,0.000274658,0.00646973,0,-135.513,131.92,-0.291188,0,36.49,143.353,2788244
0.0501709,0.112061,0.944824,0.027,0.098,-0.03,359.96,0.000335693,0.00906372,0,-148.974,138.15,-0.298851,0,36.49,143.375,2788274
0.00280762,0.107727,1.08301,-0.023,0.09,-0.05,359.94,0.00038147,0.0105438,0,-160.818,163.203,-0.298851,0,36.49,143.392,2788289
0.0162354,0.147522,1.03009,-0.009,0.128,-0.05,359.94,0.000411987,0.0139313,0,-175.928,204.516,-0.298851,0,36.49,143.415,2788319
0.0239258,0.0965576,0.956726,0,0.077,-0.03,359.96,0.000518799,0.0178375,0,-199.934,219.128,-0.298851,0,36.49,143.447,2788349
0.0239258,0.0965576,0.956726,0,0.077,-0.03,359.96,0.000518799,0.0178375,0,-212.26,223.03,-0.298851,0,36.49,143.456,2788349
0.0112305,0.0966797,1.05139,-0.015,0.074,-0.03,359.96,0.000579834,0.0199432,0,-237.023,222.348,-0.298851,0,36.49,143.472,2788364
-0.0256958,0.227905,1.11353,-0.053,0.2,-0.02,359.97,0.000656128,0.0270233,0,-238.963,281.726,-0.298851,0,36.49,143.506,2788409
0.038208,0.138916,1.07019,0.011,0.11,-0.01,359.98,0.000671387,0.0297852,0,-375.199,321.952,-0.235632,0,36.49,143.528,2788424
0.038208,0.138916,1.07019,0.011,0.11,-0.01,359.98,0.000671387,0.0297852,0,-331.598,382.709,-0.1341,0,36.49,143.536,2788424
0.0289307,0.114197,0.993652,0.004,0.084,0.02,0.02,0.000671387,0.0357361,0,-266.905,408.472,-0.1341,0,36.49,143.552,2788454
-0.0864868,0.18103,1.05011,-0.112,0.148,0.05,0.05,0.000595093,0.0389404,0,-326.03,363.174,-0.00766284,0,36.49,143.573,2788469
-0.00854492,0.190369,1.03424,-0.033,0.156,0.08,0.08,0.000427246,0.0423431,0,-402.909,494.976,0.00763359,0,36.49,143.592,2788484
-0.137695,0.248352,0.914673,-0.158,0.215,0.16,0.16,-7.62939e-05,0.0498505,0,-296.485,565.499,0.00763359,0,36.49,143.612,2788514
-0.275513,0.165039,1.0437,-0.297,0.126,0.25,0.25,-0.000701904,0.0539703,0,-357.52,704.374,0.00763359,0,36.49,143.631,2788529
-0.234192,0.235657,0.958862,-0.251,0.199,0.4,0.4,-0.00169373,0.0583191,0,-425.17,782.748,0.00763359,0,36.49,143.651,2788544
-0.108521,0.260742,1.08441,-0.123,0.215,0.77,0.77,-0.00415039,0.0677643,0,-539.491,775.645,0.0305344,0,36.49,143.679,2788574
-0.0452271,0.262512,0.944763,-0.056,0.221,0.97,0.97,-0.0055542,0.0729065,0,-468.593,825.832,0.116412,0,36.49,143.692,2788589
0.0698242,0.256958,0.817383,0.062,0.217,1.18,1.18,-0.00694275,0.0783539,0,-401.123,855.542,0.25,0,36.49,143.712,2788604
-0.115356,0.253601,0.807129,-0.117,0.216,2,2,-0.012146,0.0961609,0,-126.079,666.245,0.45229,0,36.49,143.76,2788649
0.00494385,0.153992,1.17877,-0.001,0.091,2.43,2.43,-0.0142517,0.10257,0,-96.9363,886.603,0.484733,0,36.49,143.772,2788664
-0.143616,0.0350952,1.19,-0.146,-0.018,4.07,4.07,-0.0213623,0.122299,0,120.218,889.284,0.530534,0,36.45,143.809,2788709
-0.241455,0.0113525,1.07269,-0.242,-0.025,4.71,4.71,-0.0241852,0.128891,0,128.152,1068.38,0.601145,0,36.45,143.834,2788724
-0.100281,0.147949,1.17389,-0.084,0.095,6.13,6.13,-0.030304,0.141968,0,303.582,1125.05,0.805344,0,36.45,143.86,2788754
-0.203857,0.184387,0.973572,-0.177,0.159,7.66,7.66,-0.0365448,0.155197,0,408.822,1051.52,0.883588,0,36.45,143.887,2788784
-0.0587158,-0.0714111,0.939575,-0.067,-0.109,9.39,9.39,-0.0436707,0.168732,0,625.489,1126.13,0.992366,0,36.45,143.912,2788814
-0.13855,0.0441284,1.00159,-0.125,0.017,10.32,10.32,-0.0474854,0.175415,0,622.452,1125.94,1,0,36.45,143.931,2788829
-0.11969,0.0299072,0.905945,-0.107,0.007,11.26,11.26,-0.0514526,0.182114,0,721.579,911.951,1,0,36.45,143.952,2788844
-0.107422,-0.0625,1.13745,-0.107,-0.087,14.38,14.38,-0.0645447,0.202026,0,704.3,1056.86,1,0,36.45,143.993,2788889
0.00439453,-0.0126953,1.33997,0.017,-0.075,15.54,15.54,-0.0690765,0.20845,0,721.059,803.632,1,0,36.45,144.012,2788904
-0.000366211,-0.0157471,1.08948,0.011,-0.061,17.98,17.98,-0.0785675,0.221207,0,748.811,1044.17,1,0,36.45,144.035,2788935
-0.0412598,-0.0419922,1.09045,-0.034,-0.073,19.27,19.27,-0.0833893,0.227478,0,835.178,999.5,1,0,36.45,144.051,2788949
-0.226624,0.0161133,1.21368,-0.184,0.043,20.61,20.61,-0.0883789,0.233734,0,652.55,1013.63,1,0,36.45,144.072,2788964
0.00848389,0.0783081,1.18835,0.063,0.018,23.44,23.44,-0.098175,0.246002,0,901.185,919.075,1,0,36.45,144.091,2788995
-0.0255737,0.00469971,1.33533,0.007,-0.041,24.91,24.91,-0.102951,0.25206,0,881.795,973.141,1,0,36.45,144.111,2789009
-0.302917,0.125122,0.711365,-0.198,0.217,26.42,26.42,-0.107849,0.258255,0,851.172,1072.85,1,0,36.45,144.132,2789024
0.286316,0.0288086,1.62671,0.304,-0.186,29.65,29.65,-0.117737,0.271072,0,844.131,915.793,1,0,36.45,144.152,2789055
0.0055542,0.0452881,1.15979,0.058,-0.012,31.31,31.31,-0.122314,0.277328,0,947.912,790.795,1,0,36.45,144.173,2789069
-0.0406494,-0.130737,0.673828,-0.087,-0.114,33.01,33.01,-0.126923,0.283493,0,967.118,640.882,1,0,36.45,144.192,2789084
0.0808716,-0.272156,0.624695,-0.079,-0.289,36.43,36.43,-0.136368,0.295258,0,1031.46,644.06,1,0,36.45,144.211,2789115
0.265564,-0.28125,0.997681,0.065,-0.42,38.09,38.09,-0.141144,0.300522,0,1008.83,419.992,1,0,36.45,144.231,2789129
-0.181824,-0.0355225,1.86151,-0.108,0.03,39.67,39.67,-0.145935,0.305527,0,988.826,450.248,1,0,36.45,144.252,2789144
0.157227,-0.0873413,0.736145,0.076,-0.187,42.59,42.59,-0.155487,0.314819,0,1179.11,322.82,1,0,36.45,144.273,2789175
0.179504,-0.11676,1.03894,0.075,-0.229,44,44,-0.16011,0.319031,0,1186.1,365.023,1,0,36.45,144.291,2789189
0.296875,-0.245483,1.71191,0.077,-0.413,45.38,45.38,-0.164627,0.322784,0,1071.18,256.259,1,0,36.39,144.312,2789204
0.0900269,-0.0787354,1.02289,0.027,-0.13,48.09,48.09,-0.17337,0.329117,0,1246.65,195.082,1,0,36.39,144.332,2789235
0.493164,-0.284241,0.786621,0.125,-0.567,49.41,49.41,-0.177612,0.331665,0,1125.62,184.408,1,0,36.39,144.352,2789249
0.0853271,-0.11676,1.67401,0.006,-0.146,50.66,50.66,-0.181747,0.333725,0,1085.72,112.514,1,0,36.39,144.372,2789264
-0.0872192,0.00708008,0.586487,-0.031,0.075,53.08,53.08,-0.190216,0.337494,0,1099.38,73.1165,1,0,36.39,144.392,2789295
0.758911,-0.470215,0.747925,0.081,-0.888,54.22,54.22,-0.194443,0.338806,0,1118.13,-307.092,1,0,36.39,144.413,2789309
-0.221252,-0.286011,1.40173,-0.319,0.027,55.37,55.37,-0.198853,0.339539,0,890.274,-411.734,1,0,36.39,144.432,2789324
0.452209,-1.02448,0.826782,-0.573,-0.928,56.4,56.4,-0.203857,0.339645,0,855.578,-722.543,1,0,36.39,144.452,2789339
0.475769,-0.491699,0.610107,-0.146,-0.645,58.51,58.51,-0.214706,0.337936,0,1043.73,-933.75,1,0,36.39,144.473,2789369
0.242493,-0.273682,1.24817,-0.061,-0.312,59.45,59.45,-0.220322,0.336182,0,955.201,-757.978,1,0,36.39,144.497,2789384
0.131409,-0.179688,1.42535,-0.028,-0.143,60.94,60.94,-0.232071,0.330704,0,927.816,-804.602,1,0,36.39,144.511,2789415
0.450989,-0.333679,-0.119202,-0.084,-0.56,61.58,61.58,-0.238098,0.327209,0,1138.17,-971.015,1,0,36.39,144.532,2789429
0.0692749,-0.358582,1.77307,-0.203,-0.142,62.22,62.22,-0.244324,0.323227,0,1048.66,-838.118,1,0,36.39,144.552,2789444
0.511047,-0.541382,1.28253,-0.182,-0.62,63.11,63.11,-0.257767,0.313217,0,1026.8,-1064.11,1,0,36.39,144.571,2789475
0.437927,-0.209534,0.785217,0.051,-0.432,63.43,63.43,-0.264725,0.307053,0,1140.71,-948.137,1,0,36.39,144.592,2789489
0.472229,-0.245544,0.904968,0.038,-0.467,63.68,63.68,-0.271637,0.300262,0,1313.89,-1096.01,1,0,36.39,144.611,2789504
0.252991,-0.400269,0.792297,-0.204,-0.342,63.88,63.88,-0.278641,0.292923,0,1167.54,-1058.71,1,0,36.39,144.631,2789519
0.216614,-0.311401,0.945801,-0.13,-0.252,64.11,64.11,-0.293304,0.277451,0,1128.67,-1195.03,1,0,36.39,144.651,2789550
0.154419,-0.183838,0.827087,-0.05,-0.149,64.18,64.18,-0.300827,0.269333,0,1261.91,-1235.41,1,0,36.39,144.671,2789565
0.348267,-0.213928,1.13873,0.025,-0.309,64.21,64.21,-0.30838,0.260895,0,1365.09,-1302.51,1,0,36.39,144.691,2789580
-0.104248,-0.121277,0.726013,-0.109,0.104,64.24,64.24,-0.323746,0.243713,0,1372.12,-1267.67,1,0,36.39,144.713,2789610
0.21283,-0.354004,0.538879,-0.192,-0.295,64.24,64.24,-0.331711,0.235031,0,1218.25,-1332.27,1,0,36.39,144.731,2789625
0.0656128,-0.157776,0.394714,-0.087,-0.092,64.24,64.24,-0.348206,0.217941,0,1261.11,-1207.44,1,0,36.39,144.752,2789655
0.0865479,-0.151001,1.0719,-0.027,-0.049,64.25,64.25,-0.356583,0.209396,0,1300.81,-1295.76,1,0,36.39,144.771,2789670
-0.112671,-0.245667,1.5459,-0.168,0.127,64.27,64.27,-0.365112,0.200897,0,1382.36,-1412.73,1,0,36.39,144.792,2789685
-0.224792,-0.185181,0.457642,-0.233,0.162,64.29,64.29,-0.373901,0.192596,0,1460.81,-1020.46,1,0,36.39,144.811,2789700
-0.359497,0.135437,0.428345,-0.004,0.416,64.49,64.49,-0.391998,0.177231,0,1521.38,-889.996,1,0,36.33,144.831,2789730
-0.689148,0.296082,1.98627,0.096,0.896,64.69,64.69,-0.401016,0.170715,0,1299.29,-1082.54,1,0,36.33,144.851,2789745
-0.542297,0.0543823,1.99152,-0.057,0.654,65.19,65.19,-0.419357,0.159058,0,1531.16,-1157.01,1,0,36.33,144.872,2789775
0.615173,-0.294861,0.38855,0.011,-0.652,65.42,65.42,-0.428635,0.153412,0,1390.24,-1246.96,1,0,36.33,144.891,2789790
-0.282837,0.126587,1.58093,0.093,0.418,65.64,65.64,-0.437851,0.147598,0,1496.56,-1240.46,1,0,36.33,144.911,2789805
0.109131,0.0181885,1.4491,0.147,0.008,65.98,65.98,-0.455872,0.135971,0,1428.88,-1141.36,1,0,36.33,144.933,2789835
-0.059082,-0.00152588,1.00012,0.034,0.124,66.13,66.13,-0.464676,0.130142,0,1345.71,-1328.82,1,0,36.33,144.952,2789850
0.174927,-0.0139771,1.03131,0.118,-0.09,66.25,66.25,-0.473389,0.124344,0,1467.67,-1151.87,1,0,36.33,144.971,2789865
-0.0351562,0.0410156,1.24152,0.096,0.137,66.49,66.49,-0.49057,0.112411,0,1366.21,-1227.22,1,0,36.33,144.992,2789895
0.115723,-0.0809326,0.385925,-0.005,-0.11,66.62,66.62,-0.499069,0.106476,0,1409.34,-1246.11,1,0,36.33,145.012,2789910
0.304138,0.10437,1.99994,0.329,-0.099,66.74,66.74,-0.507355,0.100372,0,1345.26,-783.085,1,0,36.33,145.032,2789925
-0.0802612,0.344849,1.09314,0.344,0.275,67.15,67.15,-0.521988,0.088501,0,1305.31,-401.776,1,0,36.33,145.051,2789955
0.36322,0.32959,1.61554,0.523,-0.121,67.51,67.51,-0.528397,0.0827942,0,1515.15,-351.772,1,0,36.33,145.072,2789970
-0.221741,0.263611,1.03381,0.208,0.356,67.89,67.89,-0.534302,0.0772552,0,1341.47,-296.081,1,0,36.33,145.092,2789985
-0.0119629,0.404602,0.731812,0.404,0.189,68.77,68.77,-0.544891,0.0664215,0,1238.77,-259.71,1,0,36.33,145.112,2790015
0.33075,0.0908813,1.87494,0.28,-0.2,69.25,69.25,-0.549454,0.0609894,0,1309.33,-239.003,1,0,36.33,145.132,2790030
-0.109558,0.43042,0.429993,0.382,0.267,69.76,69.76,-0.553574,0.0556183,0,1261.67,-245.408,1,0,36.33,145.151,2790045
-0.114136,0.176147,1.03168,0.165,0.2,70.84,70.84,-0.560669,0.0463409,0,1295.09,-210.265,1,0,36.33,145.171,2790075
-0.00512695,-0.0234375,1.05371,0.011,0.031,71.43,71.43,-0.56395,0.0420837,0,1436.27,-196.757,1,0,36.33,145.193,2790090
-0.370544,0.282104,1.23883,0.192,0.472,72.05,72.05,-0.567093,0.0381622,0,1430.92,-169.993,1,0,36.33,145.211,2790105
-0.0840454,0.123901,0.494141,0.108,0.129,72.68,72.68,-0.570038,0.034668,0,1185.68,-124.663,1,0,36.33,145.231,2790120
0.0715942,0.0122681,0.944702,0.057,-0.046,74.03,74.03,-0.575272,0.0288849,0,1278.69,-98.8513,1,0,36.33,145.251,2790150
-0.235107,0.248596,0.939697,0.202,0.309,74.73,74.73,-0.577621,0.0263367,0,1183.43,-73.229,1,0,36.33,145.272,2790165
-0.0735474,0.231812,1.03717,0.23,0.139,76.17,76.17,-0.581635,0.0221558,0,1289.57,30.8794,1,0,36.33,145.292,2790195
-0.0702515,0.280334,0.780701,0.273,0.14,76.92,76.92,-0.58316,0.0203705,0,1221.75,99.1754,1,0,36.33,145.313,2790210
0.102539,0.143127,1.25287,0.184,-0.059,77.71,77.71,-0.584396,0.0186462,0,1112.1,122.791,1,0,36.24,145.331,2790225
0.0628662,0.187866,1.15033,0.215,-0.018,78.5,78.5,-0.585342,0.016861,0,1214.85,139.469,1,0,36.24,145.351,2790240
-0.0551758,0.204773,1.53857,0.213,0.092,80.08,80.08,-0.586716,0.0133209,0,1285.43,109.905,1,0,36.24,145.371,2790270
0.148926,-0.0105591,0.720215,0.022,-0.148,80.85,80.85,-0.587143,0.0115356,0,1148.5,78.213,1,0,36.24,145.392,2790285
-0.108826,0.179077,1.38306,0.177,0.126,83.18,83.18,-0.587326,0.00704956,0,1119.19,27.1253,1,0,36.24,145.427,2790330
-0.108826,0.179077,1.38306,0.177,0.126,83.18,83.18,-0.587326,0.00704956,0,1082.66,27.1253,1,0,36.24,145.436,2790330
0.0923462,-0.127563,0.823853,-0.11,-0.108,83.96,83.96,-0.587112,0.00566101,0,1173.5,27.1253,1,0,36.24,145.456,2790345
-0.187805,0.191956,1.52106,0.186,0.193,85.54,85.54,-0.586548,0.00259399,0,1123.85,-224.717,1,0,36.24,145.486,2790375
0.124084,0.0982056,0.591187,0.109,-0.12,86.3,86.3,-0.585953,0.00112915,0,1169.04,-299.63,1,0,36.24,145.494,2790390
0.0470581,-0.0119629,0.767334,-0.004,-0.053,87.08,87.08,-0.585297,-0.000427246,0,1155.33,-364.418,1,0,36.24,145.511,2790405
-0.137573,-0.0287476,1.03998,-0.026,0.128,88.58,88.58,-0.583923,-0.00370789,0,1038.21,-507.782,1,0,36.24,145.531,2790435
0.0211182,-0.143677,0.821228,-0.137,-0.029,89.29,89.29,-0.583344,-0.00524902,0,1162.39,-552.547,1,0,36.24,145.552,2790450
0.106812,-0.137085,0.979187,-0.129,-0.115,89.95,89.95,-0.582947,-0.00688171,0,1055.8,-487.27,1,0,36.24,145.572,2790465
0.00567627,-0.0963745,0.999329,-0.084,-0.009,91.16,91.16,-0.582672,-0.0108337,0,1069.98,-730.78,1,0,36.24,145.593,2790495
0.143188,-0.0112305,0.695862,-0.005,-0.145,91.72,91.72,-0.582672,-0.0130005,0,1073.36,-627.392,1,0,36.24,145.612,2790510
0.112488,-0.133484,0.906067,-0.125,-0.111,92.27,92.27,-0.582764,-0.0153503,0,1133.72,-662.274,1,0,36.24,145.631,2790525
0.292664,-0.199829,1.55933,-0.19,-0.289,92.78,92.78,-0.583069,-0.0179596,0,1022.02,-603.409,1,0,36.24,145.652,2790540
0.0549927,-0.0987549,0.53772,-0.091,-0.048,93.73,93.73,-0.58432,-0.0240326,0,1200.55,-796.749,1,0,36.24,145.672,2790570
0.26355,-0.131592,1.39612,-0.123,-0.254,94.17,94.17,-0.585175,-0.027359,0,1299.71,-851.462,1,0,36.24,145.691,2790585
0.154419,-0.123901,0.79657,-0.118,-0.14,94.95,94.95,-0.587433,-0.0347443,0,1232.82,-713.369,1,0,36.24,145.711,2790616
-0.201294,0.200195,1.26666,0.246,0.186,95.32,95.32,-0.588562,-0.0384979,0,1173.43,-664.518,1,0,36.24,145.731,2790630
0.0401001,-0.189941,0.889832,-0.174,-0.018,95.73,95.73,-0.589645,-0.0421295,0,1340.21,-726.058,1,0,36.24,145.752,2790645
-0.32666,0.0714722,1.34808,0.133,0.32,96.16,96.16,-0.590759,-0.0455627,0,1185.19,-861.475,1,0,36.24,145.771,2790660
-0.364197,-0.0932007,1.00586,-0.024,0.376,96.94,96.94,-0.593185,-0.0516815,0,1171.1,-876.616,1,0,36.24,145.791,2790690
0.327393,-0.338074,0.879211,-0.353,-0.278,97.23,97.23,-0.594711,-0.0545349,0,1159.42,-1200.77,1,0,36.24,145.813,2790705
0.161987,-0.421814,0.8526,-0.408,-0.095,97.65,97.65,-0.599503,-0.0603333,0,1089.98,-1106.62,1,0,36.21,145.832,2790736
0.104309,-0.384521,0.533875,-0.373,-0.045,97.79,97.79,-0.602722,-0.0633087,0,1195.17,-1141.81,1,0,36.21,145.851,2790750
0.0126953,-0.36377,1.02643,-0.318,0.052,97.88,97.88,-0.606415,-0.0662689,0,1120.45,-1109.57,1,0,36.21,145.871,2790765
0.019165,-0.363098,1.32446,-0.304,0.051,97.96,97.96,-0.610535,-0.0691681,0,1248.6,-1313.28,1,0,36.21,145.891,2790780
-0.0713501,-0.12738,0.830933,-0.074,0.101,98.04,98.04,-0.619705,-0.0748444,0,1281.97,-1100.29,1,0,36.21,145.911,2790810
0.0857544,-0.232361,0.92511,-0.195,-0.037,98.07,98.07,-0.624573,-0.0776062,0,1220.33,-1443.31,1,0,36.21,145.931,2790825
-0.0744629,-0.0327148,1.43689,0.053,0.101,98.09,98.09,-0.629532,-0.0803223,0,1331.47,-1394.12,1,0,36.21,145.952,2790840
0.16571,0.0221558,0.979004,0.052,-0.153,98.14,98.14,-0.63945,-0.0855408,0,1361.93,-1303.44,1,0,36.21,145.977,2790870
0.207581,-0.248535,0.965454,-0.221,-0.155,98.16,98.16,-0.644531,-0.0883636,0,1293.66,-1423.69,1,0,36.21,145.992,2790885
0.0270386,-0.0626221,0.149048,-0.056,-0.015,98.24,98.24,-0.654663,-0.0936279,0,1313.54,-1113.52,1,0,36.21,146.013,2790916
-0.0834351,-0.0472412,1.16632,0.032,0.103,98.28,98.28,-0.659714,-0.0960999,0,1382.65,-1131.22,1,0,36.21,146.031,2790930
-0.353027,0.245667,1.31873,0.367,0.327,98.34,98.34,-0.664505,-0.0982819,0,1323.98,-1150.88,1,0,36.21,146.052,2790945
-0.329163,0.197083,0.914795,0.291,0.303,98.67,98.67,-0.67334,-0.10144,0,1487.43,-1104.06,1,0,36.21,146.072,2790976
0.361328,0.136902,1.28912,0.145,-0.367,98.84,98.84,-0.677353,-0.102875,0,1415.53,-1173.36,1,0,36.21,146.092,2790990
0.213379,-0.0668945,0.871155,-0.054,-0.191,99,99,-0.681305,-0.104691,0,1488.21,-1346.71,1,0,36.21,146.112,2791005
0.30304,-0.271118,1.08783,-0.259,-0.244,99.14,99.14,-0.685486,-0.106796,0,1400.56,-605.95,1,0,36.21,146.132,2791020
-0.262512,0.186768,0.294373,0.241,0.231,99.38,99.38,-0.693665,-0.11113,0,1454.65,-589.501,1,0,36.21,146.152,2791050
-0.449036,0.316406,1.30231,0.444,0.398,99.63,99.63,-0.697159,-0.112778,0,1208.61,-182.638,1,0,36.21,146.172,2791065
-0.331116,0.484619,1.10236,0.572,0.243,100.3,100.3,-0.70192,-0.115051,0,1416.33,0,1,0,36.21,146.193,2791096
-0.347351,0.354248,0.879272,0.437,0.277,100.72,100.72,-0.703217,-0.115707,0,1269.04,389.871,1,0,36.21,146.212,2791110
0.166504,0.0714111,0.565735,0.051,-0.175,101.15,101.15,-0.704178,-0.116287,0,1263.1,485.449,1,0,36.21,146.235,2791125
-0.693359,0.515259,1.99994,0.684,0.578,101.63,101.63,-0.704636,-0.116592,0,1217.29,658.566,1,0,36.21,146.251,2791140
-0.44104,0.356201,1.5564,0.462,0.349,102.66,102.66,-0.704453,-0.116119,0,1165.77,753.551,1,0,36.21,146.272,2791170
-0.0443115,-0.0215454,0.715027,-0.003,0.047,103.2,103.2,-0.703903,-0.115494,0,1185.19,796.718,1,0,36.21,146.291,2791185
-0.270752,0.25,0.769714,0.313,0.198,104.37,104.37,-0.701889,-0.113953,0,1131.54,728.306,1,0,36.21,146.312,2791216
-0.278259,0.303955,1.0708,0.365,0.185,105.02,105.02,-0.700195,-0.112839,0,1164.75,832.986,1,0,36.21,146.331,2791230
-0.190002,0.218994,1.04657,0.258,0.116,105.69,105.69,-0.698059,-0.111526,0,1098.06,690.56,1,0,36.17,146.351,2791245
-0.227722,0.19574,0.965454,0.246,0.151,107.07,107.07,-0.692795,-0.108444,0,1120.2,733.595,1,0,36.17,146.371,2791276
0.0741577,0.0757446,0.706055,0.042,-0.101,107.77,107.77,-0.689804,-0.106781,0,1074.58,742.363,1,0,36.17,146.391,2791291
-0.199524,0.205322,1.3349,0.244,0.109,108.48,108.48,-0.686615,-0.105118,0,1205.4,725.4,1,0,36.17,146.411,2791306
-0.304688,0.224915,1.04108,0.301,0.201,109.18,109.18,-0.68306,-0.103241,0,1178,511.601,1,0,36.17,146.431,2791321
-0.0369263,0.121033,1.11066,0.108,-0.026,110.65,110.65,-0.675247,-0.0990753,0,1130.84,414.19,1,0,36.17,146.453,2791351
-0.139343,0.0975952,0.617981,0.132,0.084,111.4,111.4,-0.671112,-0.0969391,0,1315.01,157.731,1,0,36.17,146.471,2791366
-0.153992,0.228394,1.09637,0.25,0.037,112.18,112.18,-0.666718,-0.0947266,0,1181.06,23.5517,1,0,36.17,146.491,2791381
-0.0354614,0.145569,1.38611,0.117,-0.054,113.78,113.78,-0.657532,-0.0907745,0,1226.02,-232.807,1,0,36.17,146.511,2791411
0.0296021,0.0635986,0.743408,0.03,-0.068,114.58,114.58,-0.652817,-0.088974,0,1200.84,-377.423,1,0,36.17,146.532,2791426
-0.0530396,-0.0649414,1.12366,-0.058,0.053,115.36,115.36,-0.648117,-0.0871887,0,1195.39,-407.515,1,0,36.17,146.551,2791441
0.0890503,-0.0840454,1.36316,-0.141,-0.069,116.82,116.82,-0.639313,-0.0836639,0,1104.85,-541.961,1,0,36.17,146.572,2791471
-0.102966,-0.116455,0.631104,-0.066,0.132,117.47,117.47,-0.635162,-0.0819092,0,1125.94,-563.968,1,0,36.17,146.593,2791486
0.169678,-0.0159912,0.819092,-0.107,-0.157,118.11,118.11,-0.631149,-0.0801544,0,1163.74,-476.894,1,0,36.17,146.611,2791501
0.0518188,-0.067688,1.24561,-0.103,-0.034,119.31,119.31,-0.623856,-0.0774689,0,1181.96,-745.684,1,0,36.17,146.631,2791531
0.146729,-0.189758,0.945435,-0.249,-0.048,119.86,119.86,-0.620575,-0.0762939,0,1120.13,-837.311,1,0,36.17,146.651,2791546
0.227722,-0.206909,0.588806,-0.299,-0.101,120.36,120.36,-0.617676,-0.0752106,0,1150.95,-612.276,1,0,36.17,146.671,2791561
0.373901,-0.603333,1.53583,-0.711,-0.031,121.14,121.14,-0.613693,-0.0735474,0,1065.64,-1181.54,1,0,36.17,146.692,2791591
0.43457,-0.247925,0.844788,-0.431,-0.253,121.39,121.39,-0.612869,-0.0729675,0,1178,-1044.88,1,0,36.17,146.712,2791606
0.376892,-0.40863,1.24457,-0.529,-0.119,121.73,121.73,-0.612991,-0.0726776,0,1190.55,-1174.67,1,0,36.17,146.732,2791636
0.276306,-0.312439,1.08154,-0.391,-0.081,121.84,121.84,-0.613983,-0.0727692,0,1155.2,-1271.29,1,0,36.17,146.752,2791651
0.235168,-0.161804,0.971863,-0.239,-0.123,121.91,121.91,-0.615402,-0.0730133,0,1271.94,-1330.14,1,0,36.17,146.772,2791666
-0.0509644,-0.0874023,0.995239,-0.02,0.077,121.99,121.99,-0.619049,-0.0733795,0,1293.66,-1297.69,1,0,36.17,146.792,2791696
-0.200928,-0.146423,0.609619,0,0.241,122,122,-0.620956,-0.073288,0,1183.5,-1287.08,1,0,36.17,146.812,2791711
-0.18573,-0.138062,1.20868,0.019,0.216,122.02,122.02,-0.620956,-0.072876,0,1351.35,-1439.26,1,0,36.17,146.832,2791726
0.0321045,-0.172485,0.446655,-0.147,0.058,122.04,122.04,-0.621048,-0.0716858,0,1351.53,-1473.84,1,0,36.11,146.853,2791756
-0.183411,-0.065918,1.45905,0.091,0.17,122.06,122.06,-0.62117,-0.0708923,0,1438.64,-1274.94,1,0,36.11,146.872,2791771
0.141724,-0.137756,0.583191,-0.17,-0.055,122.08,122.08,-0.621353,-0.0700378,0,1313.37,-1475.36,1,0,36.11,146.892,2791787
-0.202759,-0.169617,1.08826,0.003,0.245,122.1,122.1,-0.621658,-0.069046,0,1401.25,-1380.83,1,0,36.11,146.911,2791801
0.148438,-0.100159,0.676086,-0.137,-0.083,122.16,122.16,-0.622406,-0.0664673,0,1500.6,-1528.23,1,0,36.11,146.931,2791831
0.0647583,-0.0859375,0.963501,-0.069,-0.025,122.18,122.18,-0.622986,-0.0652161,0,1506.82,-1541.78,1,0,36.11,146.952,2791846
0.273438,-0.229309,0.680481,-0.311,-0.12,122.18,122.18,-0.624481,-0.0631104,0,1439.26,-1414.23,1,0,36.11,146.971,2791876
0.262512,0.15979,1.11707,0.04,-0.329,122.21,122.21,-0.625519,-0.0624542,0,1476.01,-1720.43,1,0,36.11,146.991,2791891
0.625183,-0.041626,0.976013,-0.325,-0.522,122.2,122.2,-0.62674,-0.0623627,0,1595.66,-1635.86,1,0,36.11,147.012,2791906
-0.0632935,-0.167664,1.75751,-0.034,0.111,122.23,122.23,-0.62822,-0.062561,0,1451.06,-1595.91,1,0,36.11,147.032,2791921
0.353516,-0.148926,1.46783,-0.251,-0.246,122.23,122.23,-0.63176,-0.0638885,0,1566.66,-1507.5,1,0,36.11,147.054,2791951
-0.480408,-0.251587,1.07684,0.09,0.52,122.25,122.25,-0.633789,-0.0646057,0,1553.88,-1729.65,1,0,36.11,147.071,2791966
-0.0692749,-0.0658569,0.202698,-0.009,0.089,122.3,122.3,-0.635757,-0.0648956,0,1494.1,-949.938,1,0,36.11,147.092,2791981
-0.451538,0.343506,1.90967,0.598,0.155,122.46,122.46,-0.635345,-0.0654144,0,1454.65,-1100.29,1,0,36.11,147.111,2792011
0.297852,0.103577,0.654297,-0.051,-0.321,122.64,122.64,-0.634552,-0.0657654,0,1510.92,-1147.78,1,0,36.11,147.132,2792026
-0.227783,0.250427,1.07404,0.368,0.033,122.84,122.84,-0.633545,-0.0663147,0,1582.28,-1122.27,1,0,36.11,147.151,2792041
-0.103027,0.124451,1.70312,0.204,-0.018,123.3,123.3,-0.630249,-0.0670776,0,1395.09,-1265.1,1,0,36.11,147.171,2792071
-0.0748291,0.118835,1.40637,0.177,-0.03,123.51,123.51,-0.628159,-0.0674438,0,1611.73,-1330.76,1,0,36.11,147.191,2792086
0.100769,-0.0841064,0.169678,-0.121,-0.04,123.71,123.71,-0.626038,-0.0678711,0,1434.21,-961.215,1,0,36.11,147.212,2792101
-0.271118,0.244202,1.43054,0.384,0.058,124.09,124.09,-0.621399,-0.0686798,0,1446.24,-565.995,1,0,36.11,147.231,2792131
-0.252625,0.346069,0.90863,0.444,-0.006,124.34,124.34,-0.618332,-0.0690308,0,1507.27,-293.457,1,0,36.11,147.252,2792146
-0.236694,0.218079,0.284668,0.318,0.065,124.63,124.63,-0.614761,-0.0693359,0,1561.04,-158.123,1,0,36.11,147.273,2792161
0.0424194,-0.0786133,0.567932,-0.083,0,125.38,125.38,-0.606079,-0.0694733,0,1426.13,-91.8383,1,0,36.11,147.291,2792191
-0.258545,0.507507,1.43671,0.572,-0.116,125.82,125.82,-0.601257,-0.0695648,0,1365.19,-170.721,1,0,36.11,147.311,2792206
-0.216675,0.140808,0.769287,0.243,0.073,126.78,126.78,-0.58989,-0.0695496,0,1275.43,-301.25,1,0,36.11,147.332,2792236
0.0966187,0.235901,0.799744,0.127,-0.237,127.32,127.32,-0.583755,-0.0695648,0,1354.46,-357.852,1,0,36.11,147.351,2792251
-0.0440063,0.0936279,0.562073,0.099,-0.034,127.85,127.85,-0.577454,-0.0697784,0,1332.89,-580.097,1,0,36.08,147.371,2792266
-0.332581,0.429077,1.99994,0.526,-0.047,128.4,128.4,-0.57074,-0.0700378,0,1301.57,-680.133,1,0,36.08,147.391,2792281
0.0407104,0.0656738,1.40729,0.012,-0.101,129.49,129.49,-0.556366,-0.0702209,0,1508.86,-763.796,1,0,36.08,147.411,2792311
0.0426636,-0.0657959,1.61493,-0.096,-0.023,130.03,130.03,-0.549194,-0.0703583,0,1340.21,-960.615,1,0,36.08,147.431,2792326
-0.103943,-0.0283813,0.675171,0.04,0.083,130.54,130.54,-0.542068,-0.0704498,0,1244.09,-875.35,1,0,36.08,147.453,2792341
-0.0415039,0.0421753,1.29712,0.047,-0.024,131.48,131.48,-0.527542,-0.0702362,0,1315.27,-898.23,1,0,36.08,147.472,2792371
-0.0473633,-0.129517,0.923767,-0.071,0.102,131.88,131.88,-0.520248,-0.0700226,0,1401.93,-951.158,1,0,36.08,147.491,2792386
-0.185547,0.0496826,1.08459,0.155,0.079,132.58,132.58,-0.505829,-0.0694122,0,1335.11,-1093.19,1,0,36.08,147.512,2792417
0.0844116,-0.290588,0.608887,-0.271,0.123,132.84,132.84,-0.498672,-0.0689392,0,1193.1,-1163.06,1,0,36.08,147.532,2792431
-0.287964,-0.0640259,0.778442,0.148,0.237,133.13,133.13,-0.491592,-0.0682068,0,1317.44,-948.092,1,0,36.08,147.552,2792446
-0.0122681,-0.0219727,1.09052,-0.008,0,133.59,133.59,-0.477142,-0.0660248,0,1360.36,-1127.9,1,0,36.08,147.575,2792477
0.000488281,-0.117371,0.766235,-0.083,0.064,133.79,133.79,-0.469955,-0.0648193,0,1266.87,-1241.39,1,0,36.08,147.593,2792491
0.205933,-0.072876,0.940186,-0.193,-0.117,133.98,133.98,-0.462967,-0.0636597,0,1156,-953.834,1,0,36.08,147.612,2792506
-0.0732422,0.0230713,0.992493,0.071,0.016,134.33,134.33,-0.449219,-0.0615234,0,1296.34,-1148.44,1,0,36.08,147.636,2792537
-0.114746,0.0345459,0.994812,0.108,0.037,134.5,134.5,-0.442215,-0.0604095,0,1405.88,-935.235,1,0,36.08,147.652,2792551
-0.182434,0.168884,0.997131,0.251,-0.008,134.65,134.65,-0.434952,-0.0592957,0,1388.99,-666.445,1,0,36.08,147.672,2792566
-0.114868,0.101074,1.18579,0.149,-0.013,135.2,135.2,-0.419861,-0.0571899,0,1217.21,-726.454,1,0,36.08,147.692,2792597
0.0597534,0.0353394,0.743225,-0.02,-0.081,135.52,135.52,-0.412155,-0.0562286,0,1208.53,-945.135,1,0,36.08,147.711,2792611
0.0714722,0.109375,1.17871,0.016,-0.152,135.87,135.87,-0.404465,-0.0554352,0,1247.04,-1220.33,1,0,36.08,147.732,2792626
0.0895996,-0.129028,1.02277,-0.157,0.012,136.18,136.18,-0.396851,-0.0547333,0,1367.61,-1412.13,1,0,36.08,147.752,2792641
0.411072,-0.251648,1.45972,-0.472,-0.128,136.55,136.55,-0.382599,-0.0548096,0,1351.53,-1407.06,1,0,36.08,147.772,2792671
0.380432,-0.40033,1.05884,-0.546,0.008,136.65,136.65,-0.376404,-0.0549622,0,1212.05,-1071.7,1,0,36.08,147.793,2792686
0.335876,-0.156616,0.714355,-0.343,-0.131,136.68,136.68,-0.370804,-0.0552063,0,1349.16,-1458.26,1,0,36.08,147.812,2792701
0.208557,-0.278625,1.6853,-0.323,0.023,136.68,136.68,-0.361023,-0.0558319,0,1311.13,-1417.33,1,0,36.08,147.831,2792731
0.220154,-0.145447,0.318176,-0.254,-0.052,136.69,136.69,-0.35675,-0.0561523,0,1279.75,-1292.24,1,0,36.08,147.851,2792746
0.358582,-0.375671,1.80829,-0.49,-0.013,136.71,136.71,-0.349304,-0.0569458,0,1236.55,-1353.91,1,0,36.08,147.873,2792777
0.135742,-0.0819092,0.604858,-0.143,-0.047,136.72,136.72,-0.346252,-0.0574036,0,1307.02,-1740.49,1,0,36.08,147.891,2792791
0.345459,-0.0195923,0.518799,-0.252,-0.234,136.73,136.73,-0.343475,-0.0580597,0,1406.37,-1521.14,1,0,36.08,147.911,2792806
0.218933,-0.154419,1.65924,-0.233,-0.079,136.72,136.72,-0.341019,-0.0589142,0,1391.59,-1566.66,1,0,36.08,147.931,2792821
-0.0203247,-0.200256,0.2854,-0.115,0.152,136.67,136.67,-0.336365,-0.0604553,0,1363.33,-1420.66,1,0,36.08,147.952,2792851
-0.415771,-0.0580444,1.51825,0.296,0.29,136.67,136.67,-0.333939,-0.0608368,0,1564.82,-1504.32,1,0,36.08,147.971,2792866
-0.174988,-0.158997,0.878662,0.038,0.213,136.65,136.65,-0.331268,-0.0608826,0,1609.4,-1647.58,1,0,36.08,147.991,2792881
0.0285645,-0.140869,0.921692,-0.096,0.059,136.73,136.73,-0.32579,-0.0607605,0,1582.28,-1538.46,1,0,36.08,148.011,2792911
-0.0354614,-0.0595093,1.80939,0.023,0.02,136.75,136.75,-0.323105,-0.0606537,0,1501.16,-1547.39,1,0,36.08,148.031,2792926
0.0944824,0.0424805,0.510864,-0.025,-0.108,136.78,136.78,-0.320419,-0.0605927,0,1389.56,-808.179,1,0,36.08,148.051,2792941
0.0648193,-0.0491943,1.46484,-0.047,-0.048,136.81,136.81,-0.315598,-0.0612183,0,1590.84,-1574.56,1,0,36.08,148.072,2792972
-0.409424,-0.0732422,0.849731,0.271,0.31,136.82,136.82,-0.313126,-0.0614624,0,1584.53,-1577.54,1,0,36.08,148.091,2792987
-0.27887,0.0907593,1.03125,0.29,0.095,136.85,136.85,-0.307678,-0.0611725,0,1627.07,-1489.87,1,0,36.08,148.112,2793017
0.528442,-0.215027,0.270996,-0.525,-0.212,136.87,136.87,-0.305038,-0.0610352,0,1537.99,-1556.66,1,0,36.08,148.133,2793032
0.0664673,0.238525,1.4425,0.152,-0.261,136.88,136.88,-0.302628,-0.061203,0,1487.21,-1740.8,1,0,36.08,148.152,2793047
0.204163,0.194763,1.2193,0.016,-0.317,136.9,136.9,-0.30011,-0.0617828,0,1701.69,-1818.02,1,0,36.08,148.172,2793062
-0.146057,-0.0601807,1.46552,0.106,0.104,136.9,136.9,-0.295227,-0.0635834,0,1479.07,-1722.95,1,0,36.08,148.192,2793092
-0.20697,-0.0374146,0.699341,0.145,0.149,136.89,136.89,-0.292618,-0.0643311,0,1637.2,-960.292,1,0,36.08,148.212,2793107
-0.0133057,0.0195312,0.562866,0.041,-0.02,136.9,136.9,-0.289871,-0.0649719,0,1636.93,-1631.72,1,0,36.08,148.232,2793122
-0.178101,0.0875244,0.576355,0.206,0.042,136.91,136.91,-0.284668,-0.0663605,0,1577.91,-1631.59,1,0,36.08,148.252,2793152
-0.237061,-0.0617676,0.593872,0.15,0.191,136.92,136.92,-0.28183,-0.0669098,0,1631.19,-1601.28,1,0,36.08,148.271,2793167
-0.0799561,0.181946,1.99994,0.236,-0.129,136.97,136.97,-0.278717,-0.0673981,0,1640.02,-1497.12,1,0,36.08,148.291,2793182
0.204895,0.319214,1.1698,0.104,-0.402,137.05,137.05,-0.272598,-0.0687408,0,1782.85,-1722.5,1,0,36.08,148.311,2793212
-0.167114,0.0170288,1.99994,0.189,0.053,137.1,137.1,-0.269394,-0.0697632,0,1632.65,-1701.55,1,0,36.08,148.331,2793227
0.101624,-0.153259,-0.0802002,-0.181,0.044,137.13,137.13,-0.266174,-0.0707245,0,1627.07,-1687.05,1,0,36.08,148.351,2793242
-0.0565186,-0.0588379,1.11646,0.036,0.056,137.19,137.19,-0.259933,-0.0724335,0,1760.25,-1136.82,1,0,36.08,148.371,2793272
0.314087,0.0603027,0.0541992,-0.187,-0.258,137.18,137.18,-0.256912,-0.0733948,0,1664.59,-1831.84,1,0,36.02,148.391,2793287
 0.638,-0.152466,0.795715,-0.545,-0.338,137.15,137.15,-0.250366,-0.0753784,0,1621.67,-1896.99,1,0,36.02,148.412,2793317
-0.237366,0.0418701,1.26355,0.243,0.105,137.14,137.14,-0.247299,-0.0765686,0,1581.03,-1717.48,1,0,36.02,148.431,2793332
0.382263,-0.0163574,1.08551,-0.255,-0.269,137.12,137.12,-0.244247,-0.0778503,0,1813.89,-1676.73,1,0,36.02,148.451,2793347
-0.0213623,-0.188904,0.711487,-0.088,0.139,137.12,137.12,-0.241425,-0.0792389,0,1760.56,-1816.53,1,0,36.02,148.471,2793362
0.0355225,-0.050354,1.62299,-0.009,-0.019,137.16,137.16,-0.235977,-0.0819702,0,1641.23,-1723.69,1,0,36.02,148.491,2793392
-0.0118408,-0.329651,0.446899,-0.199,0.241,137.21,137.21,-0.233414,-0.0832214,0,1664.03,-1758.55,1,0,36.02,148.511,2793407
-0.302063,-0.0493774,1.70728,0.243,0.211,137.26,137.26,-0.23082,-0.0841675,0,1670.98,-1611.34,1,0,36.02,148.531,2793422
0.349365,-0.0880737,-0.0703125,-0.318,-0.17,137.31,137.31,-0.225525,-0.085968,0,1677.85,-1772.74,1,0,36.02,148.552,2793452
-0.493103,-0.0152588,1.99994,0.412,0.308,137.35,137.35,-0.222931,-0.086853,0,1588.18,-1690.9,1,0,36.02,148.572,2793467
-0.179871,-0.10083,-0.212524,0.056,0.199,137.34,137.34,-0.216904,-0.0883331,0,1557.88,-1917.36,1,0,36.02,148.593,2793497
0.0769043,0.0732422,1.99994,0.051,-0.142,137.35,137.35,-0.21376,-0.0890198,0,1688.48,-1880.76,1,0,36.02,148.612,2793512
-0.0976562,-0.052002,0.315063,0.046,0.098,137.3,137.3,-0.210556,-0.0897369,0,1596.93,-1965.6,1,0,36.02,148.632,2793527
0.0305786,0.0294189,0.75061,0.024,-0.055,137.26,137.26,-0.207291,-0.0904236,0,1686.63,-1914.43,1,0,36.02,148.652,2793542
0.501587,-0.193176,-0.046875,-0.5,-0.198,137.23,137.23,-0.200439,-0.0922394,0,1872.31,-1545.24,1,0,36.02,148.673,2793572
0.170166,-0.00280762,1.84686,-0.063,-0.143,137.23,137.23,-0.197464,-0.0934906,0,1650.85,-1647.58,1,0,36.02,148.692,2793587
0.126831,0.193359,1.2569,0.075,-0.25,137.2,137.2,-0.194489,-0.0950012,0,1560.43,-1658.79,1,0,36.02,148.712,2793602
-0.478088,0.0853271,1.91376,0.462,0.23,137.19,137.19,-0.188736,-0.0987091,0,1583.78,-1954.84,1,0,36.02,148.733,2793632
0.264893,-0.256775,0.654907,-0.348,-0.002,137.19,137.19,-0.18573,-0.100418,0,1724.44,-1793.24,1,0,36.02,148.752,2793647
0.388184,0.269836,1.5863,-0.052,-0.487,137.23,137.23,-0.182999,-0.102463,0,1640.82,-1852.71,1,0,36.02,148.772,2793662
0.299316,0.0380249,0.541809,-0.178,-0.238,137.27,137.27,-0.177963,-0.10701,0,1937.61,-1800.83,1,0,36.02,148.792,2793692
0.184387,0.0831299,1.31842,-0.042,-0.203,137.31,137.31,-0.17569,-0.109619,0,1746.42,-1776.99,1,0,36.02,148.812,2793707
0.275391,-0.123413,1.38666,-0.249,-0.115,137.33,137.33,-0.17363,-0.112442,0,1677.85,-1470.16,1,0,36.02,148.831,2793722
0.0662231,0.133545,1.99994,0.093,-0.173,137.39,137.39,-0.170151,-0.118591,0,1524.04,-1648.67,1,0,36.02,148.851,2793752
-0.0375366,0.147644,0.0341187,0.128,-0.083,137.4,137.4,-0.168304,-0.121948,0,1724.88,-1580.4,1,0,36.02,148.871,2793767
0.0161133,-0.184875,1.35596,-0.098,0.108,137.39,137.39,-0.166428,-0.125275,0,1636.13,-1767.88,1,0,36.02,148.893,2793782
0.587219,0.0205078,0.0421753,-0.417,-0.413,137.41,137.41,-0.162552,-0.131912,0,1798.88,-1765.54,1,0,35.97,148.911,2793812
-0.311279,0.0292969,1.99994,0.302,0.162,137.44,137.44,-0.160751,-0.135513,0,1654.12,-1710.72,1,0,35.97,148.932,2793827
0.0358887,-0.0933838,0.892822,-0.066,0.032,137.47,137.47,-0.158783,-0.138977,0,1531.16,-1793.88,1,0,35.97,148.951,2793842
-0.284485,0.0715332,1.99994,0.304,0.114,137.54,137.54,-0.154724,-0.14566,0,1733.1,-1796.14,1,0,35.97,148.971,2793872
0.299255,-0.236633,0.723572,-0.36,-0.035,137.55,137.55,-0.152618,-0.148895,0,1729.8,-1828.82,1,0,35.97,148.991,2793887
0.398193,0.203064,1.99994,-0.112,-0.439,137.68,137.68,-0.148743,-0.15593,0,1620.09,-1829.16,1,0,35.97,149.014,2793917
-0.0115967,-0.174744,0.283447,-0.1,0.134,137.7,137.7,-0.146957,-0.159836,0,1787.95,-1903.67,1,0,35.97,149.031,2793932
0.560852,0.159302,1.00507,-0.28,-0.505,137.75,137.75,-0.145432,-0.164001,0,1802.13,-1744.44,1,0,35.97,149.051,2793947
-0.707764,0.0563965,1.59961,0.603,0.421,137.78,137.78,-0.143677,-0.168213,0,1597.57,-2101.72,1,0,35.97,149.071,2793962
-0.297974,0.0880737,1.99994,0.331,0.116,137.84,137.84,-0.139984,-0.17598,0,1827.49,-1795.01,1,0,35.97,149.092,2793992
0.0435791,-0.253174,0.196716,-0.196,0.156,137.84,137.84,-0.138077,-0.179626,0,1714.68,-1846.55,1,0,35.97,149.111,2794007
0.184326,0.171692,1.86725,0.023,-0.267,137.84,137.84,-0.134155,-0.186859,0,1757.62,-2274.8,1,0,35.97,149.134,2794038
-0.262451,-0.069458,-0.0392456,0.146,0.227,137.85,137.85,-0.132004,-0.190582,0,1819.34,-1813.07,1,0,35.97,149.151,2794052
0.182312,0.00640869,1.36029,-0.093,-0.136,137.87,137.87,-0.129807,-0.19426,0,1635.86,-1771.32,1,0,35.97,149.171,2794067
0.219055,0.0148926,-0.302917,-0.161,-0.156,137.88,137.88,-0.125488,-0.202454,0,1828.99,-1716.44,1,0,35.97,149.192,2794098
-0.286377,-0.0769043,1.88379,0.208,0.241,137.91,137.91,-0.123306,-0.20665,0,1772.58,-1639.48,1,0,35.97,149.212,2794112
0.145935,0.287354,0.526733,0.097,-0.314,137.94,137.94,-0.120926,-0.210892,0,1943.82,-1792.28,0.937023,0,35.97,149.232,2794127
0.0336304,-0.38678,-0.694092,-0.307,0.266,137.94,137.94,-0.118683,-0.215164,0,1792.44,-1799.69,0.883588,0,35.97,149.252,2794142
-0.660217,-0.217529,-0.760925,0.322,0.604,137.99,137.99,-0.113785,-0.223206,0,1465.09,-1006.69,0.835878,0,35.97,149.272,2794172
0.275452,0.0696411,0.479736,-0.144,-0.237,137.99,137.99,-0.110992,-0.226822,0,1527.65,-1688.62,0.727099,0,35.97,149.294,2794187
-0.278198,0.269897,1.36938,0.425,-0.016,137.99,137.99,-0.108017,-0.230621,0,1620.22,-1888.22,0.656489,0,35.97,149.312,2794202
-0.346069,0.0508423,1.6098,0.334,0.19,137.99,137.99,-0.102051,-0.237961,0,1660.99,-1833.01,0.562977,0,35.97,149.332,2794232
-0.0926514,0.0175781,0.716187,0.102,0.047,137.94,137.94,-0.0987854,-0.241379,0,1403.8,-1653.71,0.522901,0,35.97,149.353,2794247
-0.156006,0.172852,1.16577,0.266,-0.022,137.93,137.93,-0.0952759,-0.244781,0,1363.79,-1444.67,0.477099,0,35.97,149.373,2794262
-0.139099,0.0421143,0.874207,0.158,0.067,137.71,137.71,-0.0882111,-0.252258,0,1386.48,-1564.7,0.444656,0,35.97,149.392,2794292
-0.11145,0.396545,1.8905,0.399,-0.207,137.59,137.59,-0.0843048,-0.256165,0,1347.53,-1558,0.398855,0,35.96,149.412,2794307
-0.606384,0.18927,1.99994,0.627,0.297,137.19,137.19,-0.0759277,-0.264465,0,1270.89,-1625.36,0.320611,0,35.96,149.437,2794338
0.317932,0.182251,-0.0841675,-0.11,-0.351,136.99,136.99,-0.0712433,-0.268616,0,1055.3,-1771.32,0.272901,0,35.96,149.462,2794352
-0.150879,0.0167847,1.72729,0.171,0.12,136.77,136.77,-0.0665283,-0.272919,0,1008.22,-1801.31,0.227099,0,35.96,149.472,2794367
-0.0297852,0.301025,0.621094,0.243,-0.187,136.62,136.62,-0.0615082,-0.277267,0,1070.61,-1596.3,0.194656,0,35.96,149.492,2794382
-0.00622559,0.109131,0.460754,0.092,-0.063,136.17,136.17,-0.0509491,-0.287018,0,845.773,-1742.16,0.187023,0,35.96,149.512,2794412
-0.121338,0.219482,1.82214,0.284,-0.028,135.92,135.92,-0.0453491,-0.292099,0,870.019,-1644.74,0.179389,0,35.96,149.531,2794427
0.812073,0.0540161,0.356934,-0.532,-0.595,135.62,135.62,-0.039917,-0.297623,0,983.961,-1394.02,0.179389,0,35.96,149.551,2794442
0.425476,0.316711,0.831299,-0.053,-0.497,134.93,134.93,-0.0293579,-0.30954,0,851.934,-1428.06,0.179389,0,35.96,149.572,2794472
0.02771,0.266052,1.0531,0.196,-0.169,134.56,134.56,-0.0239105,-0.316086,0,783.791,-1628,0.179389,0,35.96,149.592,2794487
0.339111,0.0759277,1.11353,-0.152,-0.251,133.77,133.77,-0.0125427,-0.329758,0,689.869,-1439.68,0.179389,0,35.96,149.613,2794518
0.226868,0.235413,0.874084,0.036,-0.289,133.35,133.35,-0.00692749,-0.337082,0,682.245,-1318.3,0.179389,0,35.96,149.633,2794532
0.187317,0.0162354,1.19635,-0.085,-0.092,132.92,132.92,-0.00135803,-0.344666,0,695.604,-1406.87,0.179389,0,35.96,149.653,2794547
-0.0712891,0.267761,0.681763,0.26,-0.096,132.49,132.49,0.0043335,-0.352371,0,751.71,-1610.31,0.257634,0,35.96,149.671,2794562
0.0335083,0.194763,0.456848,0.133,-0.13,131.6,131.6,0.015976,-0.368668,0,705.368,-1339.05,0.288168,0,35.96,149.691,2794592
-0.038208,0.180481,1.42407,0.193,-0.012,131.13,131.13,0.0220337,-0.377075,0,760.023,-1621.14,0.288168,0,35.96,149.711,2794607
0.204407,0.0282593,0.568665,-0.099,-0.142,130.7,130.7,0.0281525,-0.38559,0,790.077,-1418.64,0.366412,0,35.96,149.731,2794622
0.174744,0.10498,1.7099,0.001,-0.102,129.81,129.81,0.0406036,-0.402679,0,851.789,-1334.4,0.414122,0,35.96,149.751,2794652
-0.117493,0.0340576,0.307312,0.107,0.086,129.4,129.4,0.0469513,-0.41124,0,856.054,-1484.01,0.477099,0,35.96,149.771,2794667
-0.116577,0.212158,1.2959,0.264,0.035,129.01,129.01,0.0535431,-0.419708,0,850.702,-1075.04,0.641221,0,35.96,149.792,2794682
-0.202332,0.239136,1.47791,0.336,0.094,128.32,128.32,0.0667267,-0.436737,0,984.155,-1535.39,0.843511,0,35.96,149.811,2794713
0.239929,0.00134277,0.429993,-0.138,-0.164,128,128,0.0734711,-0.445297,0,1098.66,-1421.67,0.937023,0,35.96,149.832,2794728
-0.147949,0.158508,1.87506,0.242,0.124,127.74,127.74,0.0802765,-0.453888,0,1185.11,-1393.24,0.937023,0,35.96,149.851,2794743
-0.407288,0.187683,1.5014,0.417,0.286,127.34,127.34,0.0941772,-0.470642,0,1286.42,-1231,1,0,35.96,149.872,2794773
-0.0693359,-0.0733032,0.449219,-0.009,0.121,127.23,127.23,0.101486,-0.478638,0,1335.11,-1105.58,1,0,35.96,149.892,2794788
-0.319092,0.0854492,1.36737,0.281,0.265,127.21,127.21,0.108994,-0.486359,0,1313.03,-772.38,1,0,35.96,149.912,2794803
-0.137024,0.177368,0.630554,0.23,0.026,127.4,127.4,0.124405,-0.501205,0,1359.8,-654.108,1,0,35.84,149.932,2794833
-0.0541382,0.380798,1.93848,0.342,-0.116,127.61,127.61,0.132553,-0.508636,0,1379.03,-733.622,1,0,35.84,149.952,2794848
-0.464355,-0.062439,0.0309448,0.235,0.405,127.86,127.86,0.141098,-0.515869,0,1416.13,-314.713,1,0,35.84,149.972,2794863
0.321716,0.349426,0.736755,0.067,-0.443,128.55,128.55,0.159119,-0.530853,0,1352.36,-183.579,1,0,35.84,149.992,2794893
-0.353577,0.424377,0.695251,0.547,0.033,128.97,128.97,0.168671,-0.538895,0,1156.87,311.74,1,0,35.84,150.012,2794908
-0.322021,0.0858765,1.28601,0.255,0.239,129.43,129.43,0.178757,-0.546753,0,1179.31,672.405,1,0,35.84,150.032,2794923
-0.133972,0.346375,1.0921,0.331,-0.083,130.35,130.35,0.199173,-0.562485,0,1202.86,712.936,1,0,35.84,150.052,2794953
-0.462341,0.222046,0.769348,0.456,0.231,130.84,130.84,0.209976,-0.570328,0,1037.72,812.942,1,0,35.84,150.072,2794968
0.127563,0.0994873,1.302,-0.037,-0.114,131.36,131.36,0.221054,-0.578094,0,1150.15,834.968,1,0,35.84,150.091,2794983
-0.272888,0.346558,1.30682,0.408,0.015,132.44,132.44,0.243698,-0.593826,0,1127.59,815.494,1,0,35.84,150.112,2795013
0.309753,0.100769,1.8783,-0.205,-0.229,133.72,133.72,0.267868,-0.610016,0,1030.03,947.912,1,0,35.84,150.143,2795043
0.309753,0.100769,1.8783,-0.205,-0.229,133.72,133.72,0.267868,-0.610016,0,1264.7,1019.11,1,0,35.84,150.153,2795043
-0.112,0.259155,1.18671,0.219,-0.064,135.11,135.11,0.292618,-0.626709,0,1283.45,1076.37,1,0,35.84,150.17,2795073
0.0415649,-0.0895386,0.511292,-0.111,0.052,135.82,135.82,0.305252,-0.635071,0,1163.67,1029.18,1,0,35.84,150.191,2795088
-0.0252075,0.129822,1.45746,0.051,-0.028,136.55,136.55,0.317825,-0.643433,0,1347.71,816.227,1,0,35.84,150.212,2795103
-0.0205078,0.123535,0.91333,0.059,-0.049,138.09,138.09,0.343414,-0.65976,0,1209.85,634.78,1,0,35.84,150.231,2795133
-0.255066,0.121338,1.02069,0.226,0.108,138.9,138.9,0.356461,-0.667831,0,1232.89,305.171,1,0,35.84,150.251,2795148
-0.0906372,0.0932007,0.931946,0.087,0.016,139.71,139.71,0.369736,-0.675812,0,1270.81,103.03,1,0,35.84,150.271,2795163
-0.067749,0.150574,0.647583,0.116,-0.055,141.38,141.38,0.396866,-0.69165,0,1189.13,-177.233,1,0,35.84,150.291,2795193
-0.306641,0.168213,1.25201,0.284,0.093,142.24,142.24,0.410797,-0.699539,0,1252.03,-266.014,1,0,35.84,150.311,2795208
-0.0524902,-0.0166016,0.881714,-0.011,0.071,143.08,143.08,0.424927,-0.707306,0,1167.82,-265.073,1,0,35.84,150.332,2795223
-0.0844116,-0.0184326,0.737061,0.024,0.085,144.65,144.65,0.453064,-0.722504,0,1246.42,-545.479,1,0,35.84,150.351,2795253
-0.114502,-0.153748,1.01935,-0.04,0.22,145.41,145.41,0.467102,-0.729828,0,1162.86,-626.979,1,0,35.84,150.375,2795268
0.0369873,-0.29541,1.10822,-0.245,0.253,146.1,146.1,0.480942,-0.736832,0,1155.2,-670.151,1,0,35.84,150.391,2795283
0.183716,-0.210693,0.96405,-0.302,0.099,147.21,147.21,0.507462,-0.750214,0,1122.33,-969.556,1,0,35.84,150.412,2795313
0.241699,-0.701599,1.13196,-0.613,0.485,147.61,147.61,0.519882,-0.756439,0,993.443,-1084.83,1,0,35.87,150.432,2795328
0.395569,-0.43396,0.870239,-0.586,0.172,147.94,147.94,0.531494,-0.762207,0,1166.79,-1078.52,1,0,35.87,150.452,2795343
0.212585,-0.413513,0.918335,-0.408,0.254,148.4,148.4,0.552658,-0.773148,0,1215.36,-1336.27,1,0,35.87,150.471,2795373
-0.00268555,-0.230347,0.889648,-0.123,0.21,148.54,148.54,0.562592,-0.778183,0,1199.62,-1361.93,1,0,35.87,150.491,2795388
0.306274,-0.341064,0.991882,-0.442,0.143,148.64,148.64,0.572128,-0.782974,0,1260.8,-1216.92,1,0,35.87,150.512,2795403
0.0794678,-0.2229,1.25903,-0.178,0.16,148.73,148.73,0.589813,-0.792191,0,1150.81,-1207.66,1,0,35.87,150.536,2795433
0.129639,-0.237488,0.65332,-0.23,0.14,148.75,148.75,0.598221,-0.796524,0,1153.87,-1464.24,1,0,35.87,150.552,2795448
-0.0335693,-0.112976,1.39325,-0.02,0.121,148.75,148.75,0.60643,-0.800674,0,1387.83,-1276.49,1,0,35.87,150.571,2795463
-0.294312,0.0565796,1.64874,0.296,0.11,148.74,148.74,0.622437,-0.80867,0,1394.31,-1464.56,1,0,35.87,150.593,2795493
0.252258,-0.274719,0.642517,-0.35,0.105,148.73,148.73,0.630386,-0.812454,0,1299.63,-1300.31,1,0,35.87,150.612,2795508
-0.151184,0.0316162,0.89679,0.154,0.052,148.74,148.74,0.638214,-0.816147,0,1332.71,-1537.52,1,0,35.87,150.632,2795523
0.135498,-0.0714722,0.692993,-0.144,-0.009,148.79,148.79,0.653824,-0.822891,0,1371.84,-1362.86,1,0,35.87,150.652,2795553
0.128906,-0.106262,0.724792,-0.154,0.022,148.8,148.8,0.661346,-0.826157,0,1399.38,-1465.42,1,0,35.87,150.676,2795568
-0.0616455,-0.0109863,1.58063,0.071,0.036,148.8,148.8,0.668823,-0.829376,0,1429.8,-1116.38,1,0,35.87,150.692,2795583
0.330383,-0.0374756,1.55042,-0.273,-0.147,148.76,148.76,0.683014,-0.835892,0,1457.94,-1523.58,1,0,35.87,150.712,2795613
0.32373,-0.184753,0.762207,-0.356,-0.014,148.72,148.72,0.689484,-0.83931,0,1547.75,-1380.64,1,0,35.87,150.732,2795628
0.215149,0.0586548,1.70569,-0.117,-0.173,148.7,148.7,0.695633,-0.842865,0,1446.76,-1581.53,1,0,35.87,150.754,2795643
-0.52948,-0.0692749,1.95935,0.458,0.32,148.61,148.61,0.70636,-0.850189,0,1413.23,-1663.76,1,0,35.87,150.772,2795673
0.368774,-0.106079,0.270813,-0.363,-0.103,148.59,148.59,0.711639,-0.853622,0,1591.6,-1600.9,1,0,35.87,150.792,2795688
-0.326782,-0.213501,1.79639,0.205,0.338,148.54,148.54,0.716827,-0.856903,0,1462.42,-1596.17,1,0,35.87,150.812,2795703
0.283875,-0.0912476,0.423096,-0.278,-0.074,148.5,148.5,0.726837,-0.862595,0,1578.03,-1655.77,1,0,35.87,150.831,2795733
-0.0436401,0.00604248,1.99994,0.088,0,148.47,148.47,0.731552,-0.865448,0,1572.45,-1574.56,1,0,35.87,150.851,2795748
0.231812,-0.346252,0.493469,-0.364,0.169,148.43,148.43,0.736069,-0.868179,0,1473.41,-1595.28,1,0,35.87,150.871,2795763
0.143188,-0.164185,0.597778,-0.192,0.059,148.38,148.38,0.74469,-0.873428,0,1628.13,-1207.36,1,0,35.87,150.891,2795793
-0.17627,0.375244,1.91101,0.395,-0.243,148.35,148.35,0.749115,-0.876175,0,1511.83,-1521.72,1,0,35.87,150.911,2795808
-0.159912,-0.25824,-0.126465,-0.003,0.304,148.34,148.34,0.753815,-0.87886,0,1768.82,-1874.94,1,0,35.87,150.931,2795823
0.11499,-0.141907,1.07361,-0.141,0.051,148.28,148.28,0.763626,-0.883621,0,1637.33,-1692.19,1,0,35.86,150.951,2795853
0.312683,-0.00500488,0.885132,-0.242,-0.168,148.28,148.28,0.768311,-0.886017,0,1508.86,-1584.16,1,0,35.86,150.972,2795868
0.143188,-0.113892,1.04419,-0.151,0.011,148.28,148.28,0.77272,-0.888535,0,1474.49,-1859.95,1,0,35.86,150.992,2795883
-0.345581,-0.104919,0.745483,0.26,0.264,148.25,148.25,0.781494,-0.893188,0,1482.25,-1703.87,1,0,35.86,151.012,2795913
-0.0963135,-0.255676,0.265076,-0.044,0.265,148.21,148.21,0.786102,-0.89502,0,1601.15,-1849.11,1,0,35.86,151.032,2795928
-0.454163,0.386719,1.99994,0.64,-0.108,148.19,148.19,0.791138,-0.896759,0,1651.8,-2060.79,1,0,35.86,151.054,2795943
0.193176,0.249695,1.07605,-0.001,-0.323,148.18,148.18,0.801147,-0.900604,0,1587.18,-1675.18,1,0,35.86,151.072,2795973
-0.364868,-0.117249,1.96533,0.303,0.277,148.17,148.17,0.806198,-0.902679,0,1675.88,-1573.94,1,0,35.86,151.091,2795988
0.518311,-0.0898438,-0.174622,-0.492,-0.195,148.19,148.19,0.811127,-0.904678,0,1562.13,-1648.4,1,0,35.86,151.112,2796003
-0.249573,-0.0192261,0.926025,0.226,0.142,148.17,148.17,0.820267,-0.908798,0,1656.45,-1482.8,1,0,35.86,151.131,2796033
-0.29895,-0.123047,0.286926,0.198,0.259,148.18,148.18,0.82518,-0.910522,0,1736.41,-1705.47,1,0,35.86,151.152,2796048
-0.101257,0.102722,1.34192,0.178,-0.045,148.24,148.24,0.830338,-0.912094,0,1698.08,-1644.2,1,0,35.86,151.172,2796063
0.301636,0.00567627,0.501221,-0.236,-0.167,148.22,148.22,0.840973,-0.915543,0,1598.08,-1742.01,1,0,35.86,151.192,2796093
-0.372864,0.0622559,1.16376,0.382,0.134,148.23,148.23,0.846359,-0.917358,0,1766.94,-1776.04,1,0,35.86,151.212,2796108
0.187256,0.0941772,0.978394,-0.081,-0.187,148.24,148.24,0.851944,-0.91922,0,1563.35,-1697.5,1,0,35.86,151.232,2796123
0.122375,0.187988,1.08374,0.025,-0.233,148.24,148.24,0.862289,-0.923355,0,1751.77,-1813.24,1,0,35.86,151.252,2796153
-0.125671,-0.140747,0.282227,0.042,0.183,148.22,148.22,0.867416,-0.925537,0,1750.09,-1680.81,1,0,35.86,151.273,2796168
0.107422,0.309387,1.99994,0.13,-0.337,148.25,148.25,0.872635,-0.927826,0,1676.16,-1689.33,1,0,35.86,151.291,2796183
0.145508,-0.0548096,0.887512,-0.123,-0.036,148.24,148.24,0.883057,-0.93248,0,1479.73,-1860.81,1,0,35.86,151.312,2796213
-0.00830078,0.078186,0.977661,0.076,-0.068,148.24,148.24,0.888168,-0.934814,0,1542.26,-1724.88,1,0,35.86,151.331,2796228
0.240417,0.072998,1.35742,-0.125,-0.198,148.27,148.27,0.898651,-0.939362,0,1633.19,-1839.59,1,0,35.86,151.356,2796259
-0.124878,0.449219,1.99994,0.396,-0.329,148.28,148.28,0.904068,-0.941986,0,1641.36,-1494.54,1,0,35.86,151.372,2796273
0.0944824,-0.0161133,-0.846924,-0.117,-0.03,148.29,148.29,0.909683,-0.94487,0,1524.16,-1618.65,1,0,35.86,151.391,2796288
0.236084,-0.403198,1.00378,-0.378,0.213,148.31,148.31,0.914948,-0.947617,0,1705.32,-1734.61,1,0,35.86,151.412,2796304
0.512878,-0.879578,-0.970276,-0.931,0.485,148.27,148.27,0.925278,-0.952637,0,1510.57,-1674.62,1,0,35.86,151.431,2796333
-0.88501,0.287903,1.99994,0.963,0.207,148.28,148.28,0.930313,-0.954529,0,1626.81,-1769.29,1,0,35.79,151.451,2796348
0.334167,-0.110046,-0.21167,-0.348,-0.08,148.33,148.33,0.941208,-0.958282,0,1576.79,-1570.72,1,0,35.79,151.475,2796379
-0.545288,0.754578,1.99994,0.901,-0.369,148.45,148.45,0.946869,-0.960541,0,1719.84,-1217.14,1,0,35.79,151.491,2796393
-0.252502,-0.0319824,-0.343201,0.191,0.159,148.62,148.62,0.953262,-0.962921,0,1657.55,-537.837,1,0,35.79,151.512,2796408
-0.153931,0.0892334,1.70428,0.205,0.003,148.8,148.8,0.959946,-0.96521,0,1740.34,-730.034,1,0,35.79,151.531,2796424
-0.206848,0.215271,0.111328,0.289,-0.079,149.37,149.37,0.974945,-0.970139,0,1760.41,-212.768,1,0,35.79,151.551,2796454
-0.230286,0.586365,1.99994,0.513,-0.381,149.7,149.7,0.983276,-0.973007,0,1585.41,-28.7299,1,0,35.79,151.573,2796469
-0.137146,0.439209,0.547241,0.34,-0.308,150.08,150.08,0.992188,-0.976334,0,1515.96,476.997,1,0,35.79,151.591,2796484
0.418701,0.190552,0.654968,-0.272,-0.362,150.85,150.85,1.01065,-0.983887,0,1476.56,687.332,1,0,35.79,151.612,2796514
-0.464844,0.584595,1.99994,0.685,-0.26,151.25,151.25,1.02014,-0.988251,0,1413.33,483.653,1,0,35.79,151.631,2796529
0.0611572,-0.0979004,0.338318,-0.101,0.062,151.67,151.67,1.03001,-0.992737,0,1427.14,982.029,1,0,35.79,151.651,2796544
-0.145386,-0.0585327,0.526428,0.096,0.129,152.51,152.51,1.05049,-1.00214,0,1426.33,972.29,1,0,35.79,151.671,2796574
0.573425,-0.0577393,0.70813,-0.543,-0.194,152.9,152.9,1.06059,-1.00693,0,1242.62,934.842,1,0,35.79,151.691,2796589
-0.447388,0.55542,1.06744,0.636,-0.27,153.35,153.35,1.07076,-1.01204,0,1502.07,889.047,1,0,35.79,151.713,2796604
0.114685,0.374634,0.727783,0.046,-0.369,154.24,154.24,1.0918,-1.02361,0,1423.99,945.492,1,0,35.79,151.731,2796634
0.114868,0.18396,0.838196,-0.038,-0.193,154.7,154.7,1.10231,-1.03003,0,1436.88,876.194,1,0,35.79,151.751,2796649
-0.316528,0.30188,1.42657,0.383,-0.101,155.22,155.22,1.11305,-1.03664,0,1345.99,1084.89,1,0,35.79,151.772,2796664
-0.590027,0.495178,1.7254,0.695,-0.164,156.34,156.34,1.1356,-1.05045,0,1155.94,979.816,1,0,35.79,151.792,2796694
-0.224548,0.323181,0.944702,0.304,-0.179,156.99,156.99,1.14783,-1.05768,0,1248.83,1061.29,1,0,35.79,151.812,2796709
-0.125793,0.046814,-0.105713,0.137,0.001,157.67,157.67,1.16032,-1.06505,0,1277.63,1013.58,1,0,35.79,151.832,2796724
0.0860596,-0.163147,0.691406,-0.161,0.146,159.04,159.04,1.18604,-1.07945,0,1300.56,1015.59,1,0,35.79,151.852,2796754
0.041626,0.431702,1.58423,0.051,-0.362,159.77,159.77,1.19885,-1.08672,0,1158.21,1096.19,1,0,35.79,151.877,2796769
-0.121643,0.380859,0.801758,0.211,-0.288,160.52,160.52,1.21184,-1.09442,0,1202.57,825.525,1,0,35.79,151.892,2796784
-0.231262,0.282288,1.06738,0.262,-0.154,162,162,1.23811,-1.11023,0,1185.82,882.262,1,0,35.79,151.912,2796814
-0.141602,0.348999,1.11511,0.192,-0.247,162.77,162.77,1.25162,-1.11844,0,1303.78,667.69,1,0,35.79,151.931,2796829
-0.0140991,0.188232,0.982056,0.02,-0.136,163.58,163.58,1.26527,-1.12691,0,1255.1,366.032,1,0,35.79,151.951,2796844
-0.350952,0.241333,1.3197,0.337,-0.09,165.2,165.2,1.29277,-1.14406,0,1258.81,155.676,1,0,35.8,151.971,2796874
-0.0988159,0.101318,0.57312,0.091,-0.051,166.04,166.04,1.30693,-1.15276,0,1283.04,82.1554,1,0,35.8,151.992,2796889
-0.0231934,0.169983,1.5658,-0.02,-0.097,166.87,166.87,1.32114,-1.16154,0,1094.09,13.0686,1,0,35.8,152.011,2796904
-0.12561,0.144592,0.955017,0.103,-0.079,168.48,168.48,1.34903,-1.17923,0,1290.41,-21.0925,1,0,35.8,152.031,2796934
-0.129578,0.109619,1.02808,0.093,-0.043,169.29,169.29,1.36307,-1.18816,0,1142.47,-130.789,1,0,35.8,152.051,2796949
-0.119202,0.0435181,1.34863,0.051,0.03,170.11,170.11,1.3772,-1.1971,0,1153.6,-292.564,1,0,35.8,152.072,2796964
-0.206909,0.022522,0.974365,0.155,0.044,171.7,171.7,1.40527,-1.21477,0,1276.24,-376.286,1,0,35.8,152.092,2796994
0.0961304,-0.0267334,0.688171,-0.136,0.039,172.48,172.48,1.41933,-1.22351,0,1120.2,-543.936,1,0,35.8,152.111,2797009
-0.09021,0.0151367,1.63416,0.003,0.056,173.21,173.21,1.43329,-1.23218,0,1164.96,-614.836,1,0,35.8,152.132,2797024
-0.217407,0.0529175,0.943909,0.174,0,174.55,174.55,1.46132,-1.24951,0,1138.11,-450.177,1,0,35.8,152.151,2797054
0.237671,0.00274658,0.645752,-0.268,-0.001,175.19,175.19,1.47531,-1.24951,0,1231,-444.84,1,0,35.8,152.175,2797069
0.139038,0.0396729,0.676697,-0.171,-0.025,176.48,176.48,1.50262,-1.24957,0,1127.01,-363.135,1,0,35.8,152.199,2797099
-0.203491,0.150696,1.28656,0.144,-0.097,177.14,177.14,1.51616,-1.24971,0,1068.95,-375.58,1,0,35.8,152.212,2797114
-0.0406494,0.0357666,0.622009,0.008,-0.012,177.83,177.83,1.52982,-1.24992,0,1084.72,-509.411,1,0,35.8,152.231,2797129
-0.121338,0.0166016,1.22449,0.056,0.028,178.48,178.48,1.5435,-1.25012,0,1187.23,-460.162,1,0,35.8,152.251,2797144
0.0740356,-0.00244141,0.67865,-0.108,0.024,179.76,179.76,1.57066,-1.25056,0,1213.15,-564.064,1,0,35.8,152.272,2797174
0.107605,-0.0401001,1.26044,-0.171,0.082,-179.61,180.38,1.58398,-1.25073,0,1083.25,-744.241,1,0,35.8,152.291,2797189
0.107544,-0.110596,1.00116,-0.154,0.143,-179.04,180.95,1.59708,-1.25075,0,1177.93,-687.167,1,0,35.8,152.311,2797204
0.146545,-0.076416,0.463257,-0.165,0.094,-177.95,182.04,1.62279,-1.25041,0,1209.77,-718.236,1,0,35.8,152.332,2797234
0.0510254,-0.149902,1.73383,-0.125,0.201,-177.43,182.56,1.63536,-1.25002,0,1255.1,-714.031,1,0,35.8,152.352,2797249
0.161133,-0.169678,0.656921,-0.18,0.194,-176.93,183.06,1.64774,-1.24933,0,1240.39,-752.191,1,0,35.8,152.372,2797264
0.192139,-0.117432,0.655334,-0.21,0.145,-176.02,183.97,1.672,-1.24753,0,1140.58,-744.325,1,0,35.8,152.393,2797294
-0.0841675,0.000915527,1.69702,0.013,0.03,-175.59,184.4,1.68391,-1.24643,0,1172.47,-731.663,1,0,35.8,152.411,2797309
0.372742,-0.216248,0.579651,-0.375,0.258,-175.21,184.78,1.69559,-1.24515,0,1142.92,-902.364,1,0,35.8,152.433,2797324
0.157532,-0.0784912,0.478943,-0.165,0.101,-174.52,185.47,1.71854,-1.24222,0,1214.33,-932.271,1,0,35.8,152.452,2797354
0.212769,-0.197327,1.5332,-0.244,0.243,-174.2,185.79,1.72972,-1.24051,0,1322.14,-879.082,1,0,35.84,152.472,2797369
0.0928955,-0.183716,1.07111,-0.106,0.207,-173.92,186.07,1.74066,-1.23848,0,1126.19,-931.966,1,0,35.84,152.492,2797384
0.0637817,-0.0721436,0.445374,-0.068,0.083,-173.42,186.57,1.76263,-1.23419,0,1174.12,-1030.56,1,0,35.84,152.512,2797414
-0.195068,-0.0380859,1.664,0.147,0.032,-173.2,186.79,1.7737,-1.23196,0,1236.17,-984.01,1,0,35.84,152.532,2797429
0.326599,0.0550537,1.04449,-0.359,-0.006,-172.99,187,1.78462,-1.22971,0,1198.75,-1177.09,1,0,35.84,152.552,2797444
0.0383301,-0.0795898,1.42773,-0.063,0.092,-172.66,187.33,1.80548,-1.22466,0,1263.26,-868.659,1,0,35.84,152.572,2797474
0.161072,-0.132202,0.677002,-0.158,0.155,-172.54,187.45,1.81567,-1.22185,0,1149.62,-885.269,1,0,35.84,152.591,2797489
0.14093,-0.19397,1.13129,-0.139,0.215,-172.41,187.58,1.82565,-1.21878,0,1341.2,-1081.49,1,0,35.84,152.612,2797504
-0.0149536,-0.119751,0.655396,0.017,0.117,-172.17,187.82,1.84584,-1.21248,0,1336.63,-1167.95,1,0,35.84,152.631,2797534
-0.06604,-0.167542,0.891907,0.068,0.159,-172.05,187.94,1.85605,-1.20914,0,1132.37,-960.892,1,0,35.84,152.651,2797549
-0.32489,-0.0753174,1.33289,0.305,0.032,-171.94,188.05,1.86653,-1.20566,0,1379.5,-1228.12,1,0,35.84,152.671,2797564
-0.173706,0.038269,1.93274,0.126,-0.058,-171.73,188.26,1.88806,-1.19872,0,1283.86,-1178.34,1,0,35.84,152.691,2797594
0.244995,-0.13855,0.0480347,-0.223,0.172,-171.64,188.35,1.8988,-1.19519,0,1359.25,-772.977,1,0,35.84,152.711,2797609
-0.761536,0.429932,1.57721,0.657,-0.535,-171.49,188.5,1.90985,-1.19191,0,1248.44,-316.842,1,0,35.84,152.731,2797624
-0.682312,0.518372,1.99994,0.54,-0.596,-170.96,189.03,1.93327,-1.18652,0,1196.39,-182.005,1,0,35.84,152.751,2797654
-0.152222,0.202148,0.285095,0.109,-0.22,-170.56,189.43,1.94562,-1.1846,0,1242.93,269.114,1,0,35.84,152.771,2797669
-0.462463,0.193115,0.836548,0.399,-0.253,-170.13,189.86,1.9583,-1.183,0,1165.23,408.088,1,0,35.84,152.792,2797684
-0.0679932,0.388062,1.3808,-0.048,-0.358,-169.14,190.85,1.9846,-1.18103,0,1153,628.615,1,0,35.84,152.813,2797714
-0.0435791,0.354248,0.797119,-0.052,-0.332,-168.58,191.41,1.99774,-1.18076,0,1121.2,654.772,1,0,35.84,152.831,2797729
0.0614014,0.24231,0.966919,-0.142,-0.192,-168.01,191.98,2.01076,-1.18083,0,1186.94,858.701,1,0,35.84,152.851,2797744
-0.0941162,0.4375,1.22028,-0.05,-0.403,-166.75,193.24,2.03674,-1.18167,0,1084.72,797.226,1,0,35.84,152.872,2797774
-0.0228271,0.333984,1.23523,-0.105,-0.277,-166.07,193.92,2.04965,-1.18272,0,1214.4,839.49,1,0,35.84,152.891,2797789
-0.344727,0.374634,1.34064,0.182,-0.391,-164.74,195.25,2.07558,-1.1857,0,1005.53,868.018,1,0,35.84,152.915,2797820
-0.344727,0.374634,1.34064,0.182,-0.391,-164.74,195.25,2.07558,-1.1857,0,1149.76,944.51,1,0,35.84,152.932,2797820
-0.23822,0.35614,0.96582,0.087,-0.362,-163.29,196.7,2.10191,-1.19014,0,1108.09,965.81,1,0,35.84,152.953,2797849
-0.181335,0.144043,1.03516,0.087,-0.138,-162.53,197.46,2.11522,-1.1929,0,958.313,960.938,1,0,35.84,152.972,2797864
-0.305176,0.117798,1.11194,0.203,-0.149,-160.97,199.02,2.14215,-1.19893,0,988.777,933.228,1,0,35.79,152.993,2797894
-0.147034,0.211853,0.739685,0.034,-0.207,-160.16,199.83,2.15584,-1.20229,0,1076.95,931.272,1,0,35.79,153.013,2797909
-0.133911,0.218933,1.09338,0,-0.189,-159.34,200.65,2.16957,-1.2059,0,1094.39,747.161,1,0,35.79,153.031,2797924
-0.238586,0.206604,1.39215,0.079,-0.197,-157.64,202.35,2.19717,-1.21375,0,1117.38,480.989,1,0,35.79,153.052,2797954
-0.151917,0.0995483,0.773926,0.065,-0.103,-156.75,203.24,2.21112,-1.21797,0,1013.74,306.162,1,0,35.79,153.072,2797969
-0.168823,0.0353394,1.09229,0.089,-0.032,-155.85,204.14,2.22516,-1.22229,0,1057.59,156.414,1,0,35.79,153.091,2797984
-0.092041,0.104614,1.10809,-0.015,-0.066,-154.05,205.94,2.25359,-1.23106,0,1246.49,0,1,0,35.79,153.112,2798014
-0.254395,0.0803833,1.13965,0.137,-0.116,-153.17,206.82,2.26791,-1.23561,0,1076.08,-214.503,1,0,35.79,153.133,2798029
0.0961914,-0.0290527,0.574524,-0.098,0.104,-152.33,207.66,2.28227,-1.24016,0,1102.72,-164.627,1,0,35.79,153.152,2798044
0.145447,-0.143127,1.40656,-0.121,0.276,-150.73,209.26,2.31055,-1.24861,0,1007.15,-386.481,1,0,35.79,153.172,2798074
-0.113647,-0.0160522,1.02429,0.061,0.012,-149.98,210.01,2.32455,-1.25249,0,1082.02,-472.679,1,0,35.79,153.191,2798089
-0.0273438,-0.100769,0.524841,0.051,0.099,-149.3,210.69,2.33865,-1.25627,0,1146.59,-524.879,1,0,35.79,153.211,2798104
0.174011,-0.149902,1.58746,-0.142,0.297,-148.04,211.95,2.36671,-1.26285,0,1165.64,-671.254,1,0,35.79,153.231,2798135
0.129639,-0.135742,0.724182,-0.069,0.215,-147.46,212.53,2.38052,-1.26558,0,1035.89,-636.557,1,0,35.79,153.251,2798150
0.0668945,-0.0236816,0.943787,-0.086,0.096,-146.9,213.09,2.39424,-1.2681,0,1128.48,-768.285,1,0,35.79,153.271,2798165
0.398254,-0.16156,1.16748,-0.295,0.403,-146.37,213.62,2.40768,-1.27026,0,1044.11,-633.172,1,0,35.79,153.291,2798180
0.100708,-0.161926,0.950439,-0.033,0.224,-145.41,214.58,2.43416,-1.27374,0,1196.24,-657.916,1,0,35.79,153.311,2798210
-0.083252,-0.0387573,1.10748,0.04,0.022,-144.96,215.03,2.44739,-1.27522,0,1269.36,-705.02,1,0,35.79,153.331,2798225
0.0792236,-0.22699,0.604492,0.04,0.25,-144.53,215.46,2.46068,-1.2765,0,1229.48,-896.419,1,0,35.79,153.351,2798240
0.119202,-0.086731,1.11328,-0.093,0.173,-143.73,216.26,2.48709,-1.27837,0,1166.52,-712.631,1,0,35.79,153.372,2798270
-0.010498,0.109924,0.799622,-0.091,-0.071,-143.35,216.64,2.50012,-1.27913,0,1217.51,-494.694,1,0,35.79,153.391,2798285
-0.30188,0.235046,1.45477,0.033,-0.322,-142.5,217.49,2.52591,-1.28116,0,1203.37,-558.503,1,0,35.79,153.412,2798315
-0.276978,0.191345,1.00464,0.057,-0.287,-142,217.99,2.53885,-1.28273,0,1202.28,-637.816,1,0,35.79,153.432,2798330
-0.179688,0.0906372,1.15387,0.033,-0.14,-141.48,218.51,2.55185,-1.28459,0,1244.25,-795.26,1,0,35.79,153.451,2798345
-0.00567627,-0.170532,1.1308,0.061,0.167,-140.52,219.47,2.57771,-1.28828,0,1063.21,-723.353,1,0,35.79,153.472,2798375
0.0117188,-0.136963,0.897278,0.038,0.143,-140.08,219.91,2.5907,-1.28984,0,1149.1,-770.832,1,0,35.8,153.491,2798390
0.0124512,-0.131897,1.72449,-0.001,0.165,-139.67,220.32,2.6037,-1.29118,0,1082.08,-807.428,1,0,35.8,153.512,2798405
-0.211792,0.072876,1.84955,0.032,-0.141,-138.98,221.01,2.62978,-1.29268,0,1217.95,-822.064,1,0,35.8,153.532,2798435
-0.140381,-0.194641,0.750061,0.201,0.072,-138.7,221.29,2.64299,-1.29335,0,1163.87,-900.82,1,0,35.8,153.552,2798450
0.0474243,-0.0374756,1.00232,-0.053,0.082,-138.38,221.61,2.65631,-1.29391,0,1285.51,-912.367,1,0,35.8,153.572,2798465
0.0444946,-0.176758,1.38269,0.027,0.181,-137.92,222.07,2.68315,-1.29448,0,1216.77,-1122.27,1,0,35.8,153.591,2798495
0.0653687,-0.354919,0.651489,0.162,0.312,-137.8,222.19,2.69676,-1.29433,0,1192.32,-1111.11,1,0,35.8,153.612,2798510
0.26825,-0.379639,0.716919,0.025,0.464,-137.73,222.26,2.71049,-1.29362,0,1144.23,-1219.88,1,0,35.8,153.631,2798525
0.23407,-0.304626,0.463257,0.012,0.38,-137.69,222.3,2.73819,-1.29158,0,1298.62,-1329.08,1,0,35.8,153.651,2798555
-0.135864,-0.00146484,1.23169,0.047,-0.097,-137.68,222.31,2.75212,-1.29028,0,1414.93,-1233.88,1,0,35.8,153.672,2798570
-0.0223999,-0.212524,0.539551,0.135,0.136,-137.69,222.3,2.76616,-1.28896,0,1257.78,-1447.28,1,0,35.8,153.692,2798585
-0.0990601,-0.0379639,1.14355,0.045,-0.05,-137.68,222.31,2.79477,-1.28598,0,1380.07,-1336.81,1,0,35.8,153.715,2798615
0.0821533,-0.124084,0.435486,0.002,0.14,-137.64,222.35,2.80916,-1.28441,0,1240.69,-1321.88,1,0,35.8,153.732,2798630
-0.0917358,-0.107727,0.93927,0.095,0.005,-137.59,222.4,2.82362,-1.28275,0,1364.82,-1306.25,1,0,35.8,153.752,2798645
0.0548096,-0.152649,0.675232,0.03,0.137,-137.5,222.49,2.85269,-1.27936,0,1541.9,-1846.89,1,0,35.8,153.772,2798675
0.209961,-0.520752,1.60236,0.12,0.496,-137.46,222.53,2.86734,-1.27721,0,1311.05,-1523.58,1,0,35.8,153.792,2798690
-0.0443726,0.0379639,0.575928,-0.021,-0.067,-137.41,222.58,2.88205,-1.27475,0,1641.9,-1481.59,1,0,35.8,153.812,2798705
0.311707,0.517029,0.640198,-0.611,-0.174,-137.24,222.75,2.91032,-1.26837,0,1403.9,-1444.77,1,0,35.8,153.831,2798735
0.555603,-0.435913,-0.750854,-0.077,0.71,-137.24,222.75,2.92368,-1.26459,0,1404.69,-1401.74,1,0,35.8,153.851,2798750
-0.199341,0.458069,1.99994,-0.262,-0.509,-137.23,222.76,2.93678,-1.26068,0,1534.45,-1579.9,1,0,35.8,153.871,2798765
0.15564,0.187744,1.89105,-0.334,-0.081,-137.18,222.81,2.96274,-1.25305,0,1353.09,-1391.3,1,0,35.8,153.892,2798795
0.0991821,0.0288696,0.702942,-0.125,0.026,-137.13,222.86,2.97534,-1.24921,0,1500.38,-1596.81,1,0,35.8,153.912,2798810
-0.173035,-0.0142822,0.936829,0.089,-0.136,-137.1,222.89,2.98793,-1.24544,0,1424.2,-939.188,1,0,35.8,153.931,2798825
-0.0753784,0.092041,0.648499,-0.039,-0.138,-137.03,222.96,3.01312,-1.23721,0,1488.43,-1601.54,1,0,35.8,153.954,2798855
-0.0957031,0.0931396,1.29681,-0.058,-0.171,-136.98,223.01,3.02562,-1.23318,0,1595.41,-1500.71,1,0,35.8,153.971,2798870
0.403259,-0.375,0.778503,-0.076,0.524,-136.96,223.03,3.03804,-1.22893,0,1553.76,-1451.91,1,0,35.8,153.991,2798885
-0.27478,0.164001,1.31476,0.024,-0.349,-136.91,223.08,3.05042,-1.22455,0,1707.36,-1510.8,1,0,35.73,154.011,2798900
0.0733032,-0.0962524,0.56488,-0.014,0.102,-136.84,223.15,3.07452,-1.21591,0,1626.41,-1617.08,1,0,35.73,154.031,2798930
-0.277832,-0.270996,1.01978,0.339,-0.026,-136.81,223.18,3.08667,-1.21147,0,1685.35,-1660.03,1,0,35.73,154.051,2798945
0.142578,-0.0593262,0.884888,-0.105,0.111,-136.75,223.24,3.11165,-1.20265,0,1397.33,-1616.29,1,0,35.73,154.071,2798975
-0.176575,0.132141,1.52734,-0.032,-0.265,-136.71,223.28,3.12404,-1.19833,0,1691.9,-1517.22,0.906489,0,35.73,154.091,2798990
0.642334,-0.141541,0.684814,-0.401,0.522,-136.69,223.3,3.13614,-1.19385,0,1784.44,-1630.66,0.780534,0,35.73,154.112,2799005
-0.407043,-0.0213013,0.913879,0.269,-0.295,-136.67,223.32,3.16025,-1.18495,0,1421.67,-1814.72,0.477099,0,35.73,154.137,2799035
0.174377,-0.130432,0.171509,-0.044,0.208,-136.71,223.28,3.17258,-1.18077,0,1655.08,-1700.54,0.179389,0,35.73,154.152,2799050
-0.602478,0.377747,1.96759,0.094,-0.741,-136.73,223.26,3.18495,-1.17696,0,1129.05,-1462.84,0.0629771,0,35.73,154.171,2799065
-0.302185,0.460632,0.634277,-0.12,-0.563,-136.88,223.11,3.20961,-1.16873,0,1126.19,-1704.3,0.00763359,0,35.73,154.192,2799095
-0.0621948,0.329895,1.99994,-0.26,-0.347,-137.05,222.94,3.22162,-1.1651,0,883.119,-1937.98,0.00763359,0,35.73,154.211,2799110
0.988159,0.209595,0.119873,-0.871,0.512,-137.28,222.71,3.23285,-1.16136,0,826.31,-1649.89,0.00763359,0,35.73,154.231,2799125
0.402283,0.0292969,0.729797,-0.334,0.223,-137.82,222.17,3.25267,-1.15373,0,1103.39,-864.827,0.00763359,0,35.73,154.252,2799155
0.407349,0.158508,1.99994,-0.458,0.087,-138.09,221.9,3.26172,-1.14975,0,1013.58,-1559.45,0.00763359,0,35.73,154.272,2799170
-0.0820923,0.112732,0.603699,-0.026,-0.157,-138.33,221.66,3.27045,-1.14583,0,1319.61,-1288.83,0.00763359,0,35.73,154.291,2799185
-0.20575,0.0222168,0.704834,0.128,-0.172,-138.71,221.28,3.2869,-1.13828,0,1408.35,-1561.65,0.00763359,0,35.73,154.32,2799215
0.372803,-0.0963745,0.702148,-0.228,0.295,-138.89,221.1,3.29492,-1.13448,0,1503.31,-1265.18,0.00763359,0,35.73,154.332,2799230
-0.207458,0.0112915,1.02136,0.132,-0.172,-139.14,220.85,3.31125,-1.12756,0,1405.58,-1523.93,0.00763359,0,35.73,154.358,2799261
-0.207458,0.0112915,1.02136,0.132,-0.172,-139.14,220.85,3.31125,-1.12756,0,1322.49,-1672.94,-0.00766284,0,35.73,154.371,2799261
-0.527039,0.129944,1.99994,0.278,-0.491,-139.28,220.71,3.32829,-1.12155,0,1304.21,-1532.45,-0.0402299,0,35.73,154.391,2799290
0.0391846,-0.0845947,-0.901367,0.04,0.114,-139.37,220.62,3.33714,-1.11894,0,1022.13,-1308.04,-0.0708812,0,35.73,154.411,2799305
0.476501,-0.209412,1.42328,-0.248,0.435,-139.55,220.44,3.35477,-1.11363,0,624.161,-1821.66,-0.0862069,0,35.73,154.431,2799335
0.172974,0.120056,0.113892,-0.21,0.017,-139.73,220.26,3.3632,-1.1106,0,423.101,-1285.35,-0.0862069,0,35.73,154.451,2799350
0.217102,0.108765,1.53467,-0.25,0.015,-139.95,220.04,3.37132,-1.10751,0,301.409,-1395.38,-0.0862069,0,35.73,154.472,2799365
0.0961304,-0.136108,1.13654,0.005,0.139,-140.2,219.79,3.37927,-1.10434,0,220.617,-1542.02,-0.0862069,0,35.73,154.491,2799381
0.108521,0.0669556,0.717529,-0.127,0,-140.8,219.19,3.39455,-1.09813,0,141.896,-1543.45,-0.0153257,0,35.64,154.511,2799410
0.188477,0.1521,0.740112,-0.242,-0.016,-141.11,218.88,3.40181,-1.09813,0,207.594,-1447.7,0,0,35.64,154.532,2799425
0.258789,0.203369,1.19739,-0.326,-0.026,-141.48,218.51,3.40868,-1.09814,0,416.962,-1401.25,0,0,35.64,154.551,2799441
0.580322,-0.0657959,1.03729,-0.41,0.384,-142.19,217.8,3.42105,-1.09782,0,400.352,-1437.92,0.00763359,0,35.64,154.571,2799470
-0.00299072,-0.1297,1.05371,0.087,0.079,-142.54,217.45,3.42676,-1.09718,0,371.078,-1528.82,0.00763359,0,35.64,154.591,2799485
1.05951,0.347046,-0.205566,-1.055,0.366,-142.92,217.07,3.43182,-1.09624,0,866.927,-1687.76,0.00763359,0,35.64,154.611,2799501
-0.174927,0.113708,0.87384,0.088,-0.211,-143.84,216.15,3.44107,-1.09515,0,760.89,-1258.1,0.00763359,0,35.64,154.631,2799530
0.243225,-0.0903931,-0.0324097,-0.145,0.215,-144.33,215.66,3.44577,-1.09488,0,867.378,-1318.39,0.00763359,0,35.64,154.651,2799545
-0.0271606,0.00201416,0.18573,0.024,-0.021,-145.21,214.78,3.45525,-1.0946,0,1065.3,-1331.65,0.00763359,0,35.64,154.672,2799575
0.280151,0.220276,1.99994,-0.315,-0.062,-145.58,214.41,3.45984,-1.09464,0,1106.81,-1354.83,0.00763359,0,35.64,154.692,2799590
-0.0608521,-0.143738,0.622681,0.143,0.075,-145.88,214.11,3.46431,-1.09465,0,1054.41,-1176.4,0.00763359,0,35.64,154.712,2799605
-0.0245361,-0.0318604,0.277161,0.043,0.008,-146.31,213.68,3.47421,-1.09486,0,1098.9,-1418.64,0.00763359,0,35.64,154.733,2799635
-0.14386,-0.173096,1.13934,0.236,0.046,-146.52,213.47,3.47948,-1.09497,0,1105.83,-1285.51,-0.0785441,0,35.64,154.752,2799650
-0.0740356,-0.0629272,1.44946,0.119,-0.009,-146.69,213.3,3.485,-1.09506,0,961.538,-1529.64,-0.0938697,0,35.64,154.771,2799665
0.118225,0.0975342,0.865662,-0.135,-0.03,-147.02,212.97,3.49597,-1.0952,0,611.042,-1402.52,-0.0938697,0,35.64,154.791,2799695
0.127014,0.250366,1.10236,-0.217,-0.157,-147.29,212.7,3.50114,-1.0954,0,465.3,-1409.24,-0.101533,0,35.64,154.812,2799710
0.230713,0.25293,1.17993,-0.299,-0.106,-147.62,212.37,3.50597,-1.09576,0,332.419,-1500.83,-0.111111,0,35.64,154.832,2799725
0.190247,0.327698,0.994446,-0.305,-0.189,-148.04,211.95,3.51038,-1.09634,0,252.995,-1245.56,-0.118774,0,35.64,154.851,2799741
-0.0421143,0.247742,1.82428,-0.03,-0.251,-149.01,210.98,3.51854,-1.09782,0,217.129,-1277.38,-0.118774,0,35.64,154.871,2799770
0.359375,0.0194702,0.088562,-0.316,0.163,-149.57,210.42,3.52232,-1.09869,0,199.832,-1347.35,-0.118774,0,35.64,154.893,2799785
-0.0339355,0.20459,1.79272,0.002,-0.211,-150.18,209.81,3.52589,-1.09961,0,181.23,-1292.74,-0.118774,0,35.64,154.911,2799801
0.246887,0.254822,1.33801,-0.276,-0.117,-151.5,208.49,3.53255,-1.10167,0,143.612,-1131.29,-0.118774,0,35.64,154.932,2799830
0.188721,0.0756226,0.470398,-0.177,0.017,-152.18,207.81,3.53542,-1.10278,0,131.149,-1194.32,-0.118774,0,35.64,154.955,2799845
0.146912,0.198792,1.32013,-0.15,-0.118,-153.59,206.4,3.54074,-1.10521,0,138.847,-1241.16,-0.118774,0,35.64,154.972,2799875
0.256287,0.201904,0.778381,-0.275,-0.074,-154.3,205.69,3.54305,-1.10663,0,121.503,-1411.63,-0.141762,0,35.64,154.991,2799890
0.231873,-0.00744629,0.444763,-0.18,0.102,-155.03,204.96,3.54504,-1.10802,0,94.8141,-1000.65,-0.172414,0,35.64,155.011,2799905
0.249756,0.112244,0.600098,-0.236,-0.005,-156.53,203.46,3.54854,-1.11113,0,96.2751,-1366.68,-0.227969,0,35.62,155.031,2799936
0.164124,0.122742,1.03918,-0.132,-0.051,-157.3,202.69,3.54996,-1.11281,0,48.76,-1125.24,-0.275862,0,35.62,155.051,2799951
0.322021,0.119202,0.92572,-0.282,0.009,-158.08,201.91,3.55107,-1.1145,0,48.76,-1232.29,-0.291188,0,35.62,155.072,2799966
0.179749,0.185913,0.785095,-0.178,-0.111,-159.68,200.31,3.5529,-1.11829,0,48.76,-1039.23,-0.298851,0,35.62,155.091,2799996
0.172302,0.117004,0.699585,-0.151,-0.052,-160.5,199.49,3.55356,-1.12038,0,48.76,-1366.31,-0.298851,0,35.62,155.111,2800011
0.145874,0.122986,1.11737,-0.094,-0.068,-161.35,198.64,3.55403,-1.12256,0,48.76,-1122.96,-0.298851,0,35.62,155.133,2800026
0.332458,0.207336,1.0509,-0.298,-0.098,-163.06,196.93,3.55446,-1.12704,0,48.76,-1331.29,-0.298851,0,35.62,155.152,2800056
0.0521851,0.0394287,0.666321,-0.008,-0.021,-163.92,196.07,3.55432,-1.12939,0,3.5646,-1190.83,-0.298851,0,35.62,155.176,2800071
0.169617,0.00817871,1.2077,-0.067,0.041,-164.78,195.21,3.55414,-1.13173,0,0,-951.249,-0.298851,0,35.62,155.191,2800086
0.0997314,0.0432739,0.872681,-0.033,-0.014,-166.48,193.51,3.5531,-1.13631,0,0,-1246.34,-0.298851,0,35.62,155.212,2800116
 0.237,0.0310059,0.922424,-0.157,0.027,-167.35,192.64,3.55235,-1.1386,0,0,-1289.99,-0.298851,0,35.62,155.231,2800131
0.0300293,0.135742,1.26428,0.052,-0.117,-168.23,191.76,3.55153,-1.14093,0,0,-1124.86,-0.298851,0,35.62,155.251,2800147
0.112915,0.208191,0.81366,-0.073,-0.179,-170.01,189.98,3.54962,-1.14619,0,-2.33732,-1173.85,-0.298851,0,35.62,155.271,2800176
0.113464,0.123962,0.750916,-0.061,-0.097,-170.94,189.05,3.54849,-1.14911,0,-2.33732,-986.582,-0.220307,0,35.62,155.291,2800191
-0.117004,0.159119,1.43695,0.225,-0.158,-171.86,188.13,3.54747,-1.15222,0,-2.33732,-1087.37,-0.149425,0,35.62,155.311,2800206
0.18988,0.213989,0.937561,-0.128,-0.177,-172.77,187.22,3.54652,-1.15555,0,-2.33732,-1210.73,-0.0632184,0,35.62,155.332,2800221
-0.0890503,0.114441,1.44061,0.215,-0.1,-174.63,185.36,3.54419,-1.16273,0,0,-1192.39,-0.0632184,0,35.62,155.352,2800251
0.204773,0.0883179,0.920166,-0.122,-0.057,-175.57,184.42,3.54309,-1.1665,0,140.692,-1251.56,-0.00766284,0,35.62,155.371,2800266
0.260803,0.0580444,0.5,-0.212,-0.037,-177.5,182.49,3.54065,-1.17462,0,176.857,-1193.18,0.00763359,0,35.62,155.391,2800296
0.0219727,0.0452271,1.12109,0.086,-0.022,-178.47,181.52,3.53929,-1.17883,0,333.233,-1262.95,0.00763359,0,35.62,155.413,2800311
-0.0150146,-0.0180054,1.09424,0.122,0.039,-179.41,180.58,3.53809,-1.18301,0,476.168,-1329.61,0.0152672,0,35.62,155.431,2800326
0.284241,0.0682983,0.875183,-0.198,-0.051,179.68,179.68,3.5368,-1.18721,0,507.318,-1054.13,0.0706107,0,35.62,155.451,2800341
0.0598145,-0.141907,1.39996,0.07,0.169,177.97,177.97,3.53378,-1.19533,0,401.011,-1202.72,0.234733,0,35.62,155.471,2800371
0.0728149,-0.0879517,1.0636,0.023,0.104,177.2,177.2,3.53232,-1.19911,0,499.638,-1041.18,0.234733,0,35.62,155.492,2800386
0.162598,0.00933838,1.23798,-0.042,0.002,175.7,175.7,3.52895,-1.20679,0,536.985,-1170.34,0.522901,0,35.62,155.511,2800416
0.0759888,-0.0198975,0.886719,0.007,0.029,174.97,174.97,3.52716,-1.21065,0,600.835,-1234.95,0.711832,0,35.56,155.532,2800431
0.167175,-0.0438232,0.893982,-0.084,0.043,174.25,174.25,3.52531,-1.21445,0,793.147,-1299.55,0.858779,0,35.56,155.555,2800446
-0.0177002,-0.184753,0.829102,0.071,0.198,172.95,172.95,3.52187,-1.22145,0,801.186,-1116.57,0.977099,0,35.56,155.572,2800476
-0.045105,-0.297913,0.689941,0.068,0.31,172.39,172.39,3.52031,-1.22447,0,958.405,-1094.81,1,0,35.56,155.591,2800491
-0.557312,-0.182007,1.6604,0.667,0.274,171.9,171.9,3.51926,-1.2271,0,1147.25,-955.338,1,0,35.56,155.612,2800506
-0.355103,-0.09729,0.397156,0.368,0.15,171.56,171.56,3.51892,-1.22942,0,927.386,-880.786,1,0,35.56,155.631,2800521
-0.579651,-0.123779,1.5705,0.663,0.217,171.28,171.28,3.52052,-1.23346,0,1133.92,-778.483,1,0,35.56,155.652,2800551
-0.715942,0.13208,0.897827,0.783,-0.019,171.36,171.36,3.52275,-1.23521,0,1168.57,-551.481,1,0,35.56,155.672,2800566
-0.375671,0.251709,0.761475,0.452,-0.19,171.59,171.59,3.52583,-1.23712,0,1274.45,-633.513,1,0,35.56,155.691,2800581
0.118835,-0.10376,0.739685,-0.093,0.092,172.24,172.24,3.53343,-1.24167,0,1084.25,-840.266,1,0,35.56,155.711,2800611
-0.289368,0.194092,1.46527,0.381,-0.143,172.62,172.62,3.53754,-1.24405,0,1160.09,-757.49,1,0,35.56,155.731,2800626
-0.185547,0.00982666,1.13196,0.239,0.018,173.3,173.3,3.54662,-1.24849,0,1090.81,-912.409,1,0,35.56,155.753,2800656
0.0830688,-0.160522,0.468872,-0.077,0.152,173.57,173.57,3.55139,-1.2505,0,1252.27,-897.223,1,0,35.56,155.772,2800671
-0.171753,-0.100708,1.12531,0.213,0.121,173.83,173.83,3.55624,-1.25233,0,1235.79,-951.339,0.937023,0,35.56,155.792,2800687
-0.0259399,-0.0290527,0.768799,0.06,0.031,174.08,174.08,3.56128,-1.25406,0,1066.95,-986.923,0.835878,0,35.56,155.811,2800701
0.159851,-0.159607,0.784607,-0.137,0.142,174.55,174.55,3.57167,-1.25732,0,1097.03,-785.947,0.742366,0,35.56,155.837,2800731
-0.0927734,0.0123291,1.25757,0.153,-0.007,174.76,174.76,3.57689,-1.2588,0,1006.14,-1185.96,0.530534,0,35.56,155.851,2800746
-0.14093,-0.0276489,1.35052,0.202,0.033,175.09,175.09,3.58752,-1.26146,0,1091.29,-951.384,0.265267,0,35.56,155.871,2800776
0.204163,0.00860596,1.12506,-0.146,-0.03,175.16,175.16,3.59293,-1.26273,0,1097.51,-994.53,0.0706107,0,35.56,155.892,2800791
-0.206116,0.176575,1.66071,0.304,-0.164,175.2,175.2,3.59843,-1.26411,0,672.088,-1114.77,0.00763359,0,35.56,155.911,2800806
0.346375,-0.0276489,0.168762,-0.338,-0.001,175.24,175.24,3.60393,-1.26562,0,653.467,-1111.3,0.00763359,0,35.56,155.931,2800821
-0.362488,0.23468,1.20801,0.444,-0.197,175.12,175.12,3.61482,-1.26971,0,838.856,-1117.82,0.00763359,0,35.56,155.951,2800851
0.225403,0.372803,0.786499,-0.149,-0.385,175.01,175.01,3.62065,-1.27238,0,935.191,-1070.21,0.00763359,0,35.56,155.971,2800866
-0.371582,0.255798,1.0506,0.446,-0.21,174.92,174.92,3.62666,-1.27547,0,970.685,-1001.45,0.00763359,0,35.56,155.991,2800881
-0.0413818,0.143005,0.850281,0.095,-0.128,174.9,174.9,3.63954,-1.28223,0,867.641,-760.774,0.00763359,0,35.56,156.011,2800911
0.111694,0.0362549,0.749451,-0.069,-0.036,174.92,174.92,3.64607,-1.2858,0,959.325,-796.052,0.00763359,0,35.56,156.031,2800926
-0.0065918,0.111755,1.52399,0.09,-0.089,174.94,174.94,3.6526,-1.28947,0,919.456,-749.176,0.00763359,0,35.56,156.052,2800941
-0.00604248,0.168152,1.13147,0.078,-0.15,174.94,174.94,3.66576,-1.29721,0,797.83,-804.861,0.00763359,0,35.56,156.072,2800971
0.103455,-0.00897217,0.955566,-0.055,0.016,174.93,174.93,3.67235,-1.30127,0,841.043,-978.713,0.00763359,0,35.56,156.091,2800986
-0.0845947,0.233765,1.20178,0.164,-0.202,174.95,174.95,3.68594,-1.30969,0,811.557,-665.535,0.00763359,0,35.56,156.113,2801016
0.0971069,0.112,1.10016,-0.032,-0.097,174.96,174.96,3.69295,-1.31422,0,673.537,-881.484,0.00763359,0,35.56,156.132,2801031
0.189026,0.112061,0.666321,-0.145,-0.113,174.97,174.97,3.69983,-1.31889,0,698.544,-824.436,0.00763359,0,35.56,156.151,2801046
0.0115967,-0.00115967,1.01062,0.037,0.023,174.98,174.98,3.71399,-1.32877,0,749.934,-782.534,0,0,35.56,156.172,2801076
0.129028,0.177124,0.735962,-0.078,-0.168,175,175,3.72115,-1.33385,0,733.353,-812.876,-0.0402299,0,35.56,156.191,2801091
-0.150574,0.104858,1.32214,0.221,-0.057,175,175,3.72841,-1.33908,0,527.023,-415.654,-0.204981,0,35.56,156.212,2801106
-0.00524902,0.824158,0.648743,0.106,-0.799,175.05,175.05,3.74333,-1.35074,0,392.873,-226.703,-0.33908,0,35.56,156.231,2801136
-0.16449,0.85553,1.74768,0.312,-0.765,175.06,175.06,3.75111,-1.35799,0,194.653,-121.541,-0.488506,0,35.56,156.252,2801151
0.233643,0.598816,0.483765,-0.159,-0.592,175.09,175.09,3.759,-1.36617,0,102.097,223.11,-0.637931,0,35.56,156.272,2801166
0.074585,0.695435,0.858093,0.019,-0.643,175.17,175.17,3.77521,-1.38516,0,-17.2512,362.201,-0.898467,0,35.56,156.292,2801196
-0.0596313,0.654968,1.30585,0.167,-0.554,175.2,175.2,3.78354,-1.39594,0,-218.207,453.248,-0.969349,0,35.56,156.311,2801211
0.184814,0.696106,1.08026,-0.082,-0.624,175.25,175.25,3.79192,-1.4075,0,-414.869,464.501,-1,0,35.56,156.333,2801226
0.132812,0.715698,0.842102,-0.04,-0.652,175.29,175.29,3.80023,-1.41994,0,-504.299,583.55,-1,0,35.56,156.35,2801242
0.117615,0.656067,0.878113,-0.03,-0.577,175.35,175.35,3.81689,-1.44725,0,-584.471,780.945,-1,0,35.56,156.371,2801271
0.127869,0.726135,1.09229,-0.027,-0.619,175.37,175.37,3.8252,-1.46211,0,-637.816,647.396,-1,0,35.56,156.391,2801286
0.0357056,0.516602,0.879944,0.038,-0.415,175.44,175.44,3.84201,-1.49414,0,-741.95,565.323,-1,0,35.56,156.411,2801316
-0.19165,0.71582,1.19794,0.29,-0.553,175.5,175.5,3.85069,-1.51114,0,-774.984,673.083,-1,0,35.56,156.431,2801331
0.0585938,0.532654,0.640991,0.005,-0.452,175.55,175.55,3.85957,-1.52882,0,-794.755,678.518,-1,0,35.56,156.452,2801346
-0.0423584,0.47876,1.45984,0.129,-0.281,175.6,175.6,3.86855,-1.54701,0,-906.208,778.725,-1,0,35.56,156.471,2801362
-0.0330811,0.549927,0.953186,0.109,-0.41,175.62,175.62,3.88684,-1.58464,0,-906.865,883.548,-1,0,35.56,156.491,2801391
0.335083,0.359741,1.04321,-0.269,-0.231,175.61,175.61,3.89595,-1.60414,0,-986.193,960.846,-1,0,35.56,156.511,2801406
-0.093689,0.528503,0.996338,0.167,-0.37,175.61,175.61,3.90497,-1.62404,0,-1046.13,1067.52,-1,0,35.56,156.532,2801422
0.343811,0.329651,0.907776,-0.287,-0.213,175.61,175.61,3.92313,-1.66501,0,-1061.57,1104.3,-1,0,35.52,156.552,2801451
-0.112549,0.361328,1.59082,0.192,-0.106,175.58,175.58,3.93207,-1.68587,0,-1156.14,1048.77,-1,0,35.52,156.572,2801466
-0.0266113,0.281372,0.580872,0.067,-0.186,175.61,175.61,3.94116,-1.70692,0,-1037.45,1343.36,-1,0,35.52,156.592,2801482
0.107544,0.12561,1.24683,-0.057,0.066,175.6,175.6,3.95981,-1.74965,0,-1137.98,929.238,-1,0,35.52,156.612,2801511
-0.162659,0.325745,0.749634,0.21,-0.19,175.59,175.59,3.96927,-1.77113,0,-1216.92,1223.69,-1,0,35.52,156.632,2801526
0.0692749,0.417847,0.714417,-0.014,-0.302,175.58,175.58,3.97888,-1.79295,0,-1203.15,1132.37,-1,0,35.52,156.651,2801542
0.0547485,0.271729,1.57178,0.01,-0.015,175.57,175.57,3.99792,-1.83731,0,-1280.82,1317.52,-1,0,35.52,156.672,2801571
0.248779,-0.0155029,0.328247,-0.239,0.05,175.58,175.58,4.00726,-1.85951,0,-1473.62,1184.97,-1,0,35.52,156.691,2801586
0.154358,0.0465698,1.25281,-0.114,0.146,175.54,175.54,4.02567,-1.90405,0,-1444.67,1318.65,-1,0,35.52,156.711,2801616
0.343384,-0.0247192,1.19501,-0.31,0.191,175.48,175.48,4.03456,-1.92609,0,-1426.33,790.451,-1,0,35.52,156.732,2801632
0.229004,-0.452698,0.975037,-0.235,0.582,175.34,175.34,4.04308,-1.9476,0,-1407.86,872.296,-1,0,35.52,156.754,2801647
0.219788,-0.280884,1.17877,-0.201,0.436,174.78,174.78,4.0589,-1.98888,0,-1280.98,952.517,-1,0,35.52,156.772,2801677
0.0165405,-0.00860596,1.78491,0.044,0.27,174.43,174.43,4.06651,-2.00879,0,-1469.62,696.209,-1,0,35.52,156.791,2801692
0.286621,-0.286072,0.314331,-0.301,0.298,174.06,174.06,4.07396,-2.02829,0,-1382.93,333,-1,0,35.52,156.811,2801707
0.537048,-0.479553,0.597839,-0.562,0.492,173.07,173.07,4.08775,-2.06596,0,-1461.56,119.811,-1,0,35.52,156.832,2801737
0.300476,-0.158997,1.99994,-0.225,0.377,172.45,172.45,4.09389,-2.08394,0,-1468.54,-37.2498,-1,0,35.52,156.851,2801752
0.659241,-0.402405,0.0100098,-0.708,0.307,171.73,171.73,4.09938,-2.10146,0,-1143.97,-277.481,-1,0,35.52,156.871,2801767
0.162354,-0.288757,1.17267,-0.135,0.4,170.89,170.89,4.10429,-2.11848,0,-1380.55,-484.672,-1,0,35.52,156.891,2801782
0.73584,-0.334473,0.376343,-0.761,0.235,169.11,169.11,4.11293,-2.1506,0,-1038.75,-478.916,-1,0,35.52,156.911,2801812
0.115356,-0.430847,1.41943,-0.107,0.55,168.08,168.08,4.1163,-2.16585,0,-1156.67,-635.445,-1,0,35.52,156.931,2801827
0.180054,-0.244019,1.92798,-0.094,0.386,165.82,165.82,4.12227,-2.19431,0,-1209.77,-678.472,-1,0,35.52,156.951,2801857
0.616272,-0.272888,0.249573,-0.645,0.128,164.59,164.59,4.12462,-2.2079,0,-1155.67,-612.164,-1,0,35.52,156.971,2801872
-0.0675659,-0.151794,1.74146,0.159,0.331,163.24,163.24,4.12663,-2.22118,0,-1092.3,-646.831,-1,0,35.52,156.991,2801887
0.189087,-0.285645,1.34259,-0.157,0.34,161.85,161.85,4.12866,-2.23398,0,-1163.6,-563.889,-1,0,35.52,157.012,2801902
0.169373,0.0178223,1.08521,-0.055,0.023,158.9,158.9,4.13188,-2.2589,0,-1184.13,-828.397,-1,0,35.52,157.031,2801932
0.0261841,-0.13269,0.68219,-0.013,0.175,157.35,157.35,4.13333,-2.27116,0,-1117.07,-867.528,-1,0,35.52,157.051,2801947
0.218018,-0.0852051,1.71271,-0.077,0.146,155.75,155.75,4.13474,-2.28322,0,-1164.55,-886.8,-1,0,35.57,157.072,2801962
0.0949097,-0.0423584,1.33948,0.022,0.118,152.39,152.39,4.13637,-2.30713,0,-1006.69,-855.761,-1,0,35.57,157.092,2801992
0.0818481,-0.174988,1.14038,-0.05,0.218,150.64,150.64,4.13699,-2.31883,0,-948.767,-761.615,-1,0,35.57,157.111,2802007
0.341125,-0.0855103,0.745361,-0.262,-0.031,148.82,148.82,4.13741,-2.3304,0,-1009.69,-784.56,-1,0,35.57,157.132,2802022
0.343933,-0.150146,0.6026,-0.304,-0.013,144.98,144.98,4.13774,-2.35365,0,-1035.63,-835.073,-1,0,35.57,157.151,2802052
0.117859,-0.0325317,1.42786,0.03,0.091,142.99,142.99,4.13762,-2.36525,0,-1061.85,-803.116,-1,0,35.57,157.172,2802067
0.50769,-0.0110474,1.26355,-0.272,-0.187,141,141,4.13734,-2.37691,0,-898.634,-726.243,-1,0,35.57,157.191,2802082
0.0222168,0.162903,1.24603,0.221,-0.011,136.84,136.84,4.13631,-2.40097,0,-981.402,-736.485,-1,0,35.57,157.211,2802112
0.198608,0.0661011,1.13208,0.021,-0.073,134.75,134.75,4.13597,-2.41313,0,-966.417,-805.639,-1,0,35.57,157.231,2802127
0.341248,0.233826,1.06873,0.044,-0.301,132.67,132.67,4.1357,-2.42555,0,-1034.29,-756.63,-1,0,35.57,157.251,2802142
0.0496216,0.191162,1.63721,0.275,0.011,128.37,128.37,4.13515,-2.45113,0,-1176.61,-933.881,-1,0,35.57,157.271,2802172
0.168335,0.0133667,0.384949,-0.051,-0.101,126.22,126.22,4.13509,-2.46402,0,-1089.8,-931.576,-1,0,35.57,157.295,2802187
-0.121643,0.201416,1.9967,0.417,0.198,124.06,124.06,4.13528,-2.47684,0,-1138.95,-983.865,-1,0,35.57,157.311,2802202
-0.130127,0.249939,1.57208,0.419,0.16,119.74,119.74,4.13643,-2.50232,0,-1132.57,-1006.44,-1,0,35.57,157.332,2802232
0.514832,0.146423,0.373657,-0.076,-0.477,117.6,117.6,4.13737,-2.51524,0,-1132.95,-1005.83,-1,0,35.57,157.351,2802247
-0.241943,0.194275,1.32349,0.388,0.284,115.45,115.45,4.13853,-2.52831,0,-1139.6,-1083.13,-1,0,35.57,157.371,2802262
0.221375,0.275085,0.532837,0.216,-0.242,111.21,111.21,4.14209,-2.55383,0,-800.48,-801.989,-1,0,35.57,157.391,2802292
-0.0681152,0.259338,0.924194,0.333,0.089,109.07,109.07,4.14442,-2.56673,0,-1015.54,-952.925,-1,0,35.57,157.411,2802307
0.359619,0.172302,0.695984,0.118,-0.305,104.9,104.9,4.15054,-2.59216,0,-987.118,-949.307,-1,0,35.57,157.432,2802337
0.109985,0.332153,0.677979,0.339,-0.098,102.83,102.83,4.15411,-2.60518,0,-963.02,-1032.58,-1,0,35.57,157.451,2802352
-0.187378,0.384949,1.33527,0.485,0.272,100.77,100.77,4.15825,-2.61809,0,-1034.88,-1038.58,-1,0,35.57,157.471,2802367
0.136047,0.367493,1.13721,0.399,-0.052,98.74,98.74,4.16298,-2.63084,0,-960.476,-1226.02,-1,0,35.57,157.491,2802382
0.126648,0.257751,0.815857,0.28,-0.045,94.69,94.69,4.17371,-2.65697,0,-904.077,-994.53,-1,0,35.57,157.512,2802412
-0.074646,0.323669,1.73676,0.39,0.27,92.68,92.68,4.17972,-2.66998,0,-955.475,-1179.73,-1,0,35.57,157.531,2802427
0.00708008,0.226746,1.39545,0.268,0.176,88.64,88.64,4.19286,-2.69609,0,-1037.13,-1123.28,-1,0,35.57,157.551,2802457
0.166931,0.116638,0.76825,0.146,-0.063,86.66,86.66,4.19986,-2.70911,0,-924.77,-946.432,-1,0,35.53,157.573,2802472
-0.0507202,0.355042,1.75964,0.388,0.295,84.74,84.74,4.20724,-2.72195,0,-939.496,-1049.26,-1,0,35.53,157.591,2802487
0.514832,0.0315552,0.443909,0.103,-0.447,82.82,82.82,4.21495,-2.73492,0,-992.556,-1091.17,-1,0,35.53,157.612,2802502
0.341431,0.181824,0.582825,0.25,-0.225,79.04,79.04,4.23129,-2.76074,0,-794.944,-1020.62,-0.676245,0,35.53,157.631,2802532
-0.270935,0.449707,1.99994,0.391,0.596,77.18,77.18,4.24008,-2.77333,0,-939.099,-1133.02,-0.291188,0,35.53,157.653,2802547
0.555542,-0.0098877,0.390503,0.132,-0.489,75.33,75.33,4.24922,-2.78586,0,-775.434,-1093.31,-0.291188,0,35.53,157.671,2802562
0.496704,-0.0855713,0.0800171,0.074,-0.484,71.71,71.71,4.26826,-2.8114,0,-492.975,-1196.53,0.148855,0,35.53,157.692,2802592
-0.526245,0.49707,1.99994,0.278,0.888,69.91,69.91,4.27814,-2.82399,0,-171.196,-1184.97,0.272901,0,35.53,157.712,2802607
-0.295776,-0.11499,1.67255,-0.237,0.416,66.49,66.49,4.29839,-2.84833,0,0,-1140.97,0.507634,0,35.53,157.733,2802637
-0.0915527,0.0256348,0.398438,-0.019,0.137,64.88,64.88,4.3083,-2.86009,0,148.164,-1181.89,0.671756,0,35.53,157.752,2802652
-0.308899,0.0979614,1.43927,-0.061,0.474,63.36,63.36,4.31816,-2.87143,0,530.434,-1114.89,0.883588,0,35.53,157.771,2802667
-0.0580444,-0.0901489,1.05249,-0.112,0.119,61.96,61.96,4.32791,-2.88237,0,525.458,-942.507,0.984733,0,35.53,157.791,2802682
-0.370911,-0.240662,1.19495,-0.395,0.316,59.5,59.5,4.34601,-2.90356,0,698.495,-1189.91,1,0,35.53,157.811,2802712
-0.235657,-0.333069,0.809692,-0.402,0.105,58.4,58.4,4.35422,-2.91371,0,649.519,-1083.07,1,0,35.53,157.832,2802727
-0.56012,-0.304688,1.09705,-0.545,0.406,57.42,57.42,4.36179,-2.92351,0,792.833,-1083.83,1,0,35.53,157.851,2802743
-0.104309,-0.366943,0.654053,-0.348,-0.062,55.84,55.84,4.37556,-2.94211,0,869.414,-1236.02,1,0,35.53,157.871,2802772
-0.574219,-0.243713,1.94824,-0.478,0.49,55.18,55.18,4.38171,-2.95107,0,963.345,-1358.97,1,0,35.53,157.891,2802787
-0.251892,-0.271973,0.724976,-0.344,0.104,54.63,54.63,4.38731,-2.95959,0,967.399,-1278.12,1,0,35.53,157.912,2802803
-0.0756226,-0.26709,1.13684,-0.218,-0.011,53.75,53.75,4.39746,-2.97667,0,1124.67,-1326.26,1,0,35.53,157.932,2802832
-0.247803,-0.186279,1.45105,-0.236,0.19,53.42,53.42,4.40208,-2.98512,0,1043.3,-1072.33,1,0,35.53,157.951,2802847
-0.367676,-0.102783,0.687927,-0.271,0.281,53.17,53.17,4.40636,-2.99324,0,1243.94,-1439.06,1,0,35.53,157.972,2802863
-0.445068,-0.204834,1.41254,-0.362,0.322,52.87,52.87,4.41364,-3.00864,0,1126.32,-1271.13,1,0,35.53,157.991,2802892
-0.312317,-0.151978,0.549744,-0.28,0.192,52.77,52.77,4.41661,-3.01582,0,1257.07,-1243.24,1,0,35.53,158.011,2802907
-0.385742,-0.0983276,0.857788,-0.266,0.302,52.71,52.71,4.41922,-3.02269,0,1158.01,-1312.25,1,0,35.53,158.031,2802923
-0.290527,-0.0405273,1.23175,-0.142,0.282,52.65,52.65,4.42368,-3.03621,0,1408.45,-1644.2,1,0,35.53,158.051,2802952
0.118469,-0.202332,0.461426,-0.064,-0.186,52.62,52.62,4.42567,-3.04288,0,1422.27,-1359.71,1,0,35.53,158.071,2802967
-0.137512,-0.0166016,1.61511,-0.01,0.197,52.65,52.65,4.42763,-3.04953,0,1327.4,-1293.33,1,0,35.58,158.091,2802983
-0.0435181,-0.0247192,1.42932,0.032,0.106,52.69,52.69,4.43132,-3.06281,0,1421.36,-1651.94,1,0,35.58,158.113,2803012
-0.297913,-0.203125,0.270935,-0.326,0.132,52.68,52.68,4.43294,-3.06929,0,1369.49,-1488.32,1,0,35.58,158.132,2803027
-0.318542,-0.16394,1.71228,-0.229,0.261,52.7,52.7,4.43419,-3.0755,0,1511.49,-1268.31,1,0,35.58,158.152,2803043
-0.078064,-0.0365601,0.824402,-0.031,0.093,52.66,52.66,4.43578,-3.08746,0,1562.13,-1540.48,1,0,35.58,158.172,2803072
-0.232971,-0.112061,1.30212,-0.159,0.199,52.66,52.66,4.43634,-3.0932,0,1554.85,-1517.45,1,0,35.58,158.191,2803087
0.325134,-0.0737305,0.690125,0.175,-0.258,52.62,52.62,4.43756,-3.10451,0,1548.95,-1529.05,0.835878,0,35.58,158.212,2803117
0.158081,0.128296,1.17279,0.26,0.023,52.6,52.6,4.43855,-3.11038,0,1496.89,-1428.98,0.562977,0,35.58,158.232,2803132
0.387024,-0.18634,1.34314,0.159,-0.337,52.59,52.59,4.43985,-3.11649,0,1542.61,-1605.78,0.25,0,35.58,158.251,2803147
-0.0579834,0.0163574,1.08154,0.033,0.124,52.55,52.55,4.44125,-3.12273,0,1063.43,-840.336,0.108779,0,35.58,158.272,2803163
0.0882568,0.30603,1.88452,0.389,0.229,52.47,52.47,4.44443,-3.13518,0,937.515,-1795.17,0.00763359,0,35.58,158.292,2803192
0.0343628,0.14447,0.535278,0.158,0.094,52.32,52.32,4.44653,-3.14116,0,964.506,-1571.71,0.00763359,0,35.58,158.311,2803207
-0.00177002,0.111816,0.86499,0.122,0.125,52.11,52.11,4.44882,-3.14699,0,923.617,-1553.76,0,0,35.58,158.332,2803223
0.497986,0.22998,0.718567,0.513,-0.204,51.62,51.62,4.45468,-3.15855,0,1235.71,-1375.61,-0.0229885,0,35.58,158.352,2803252
-0.175842,0.0564575,1.99994,-0.009,0.293,51.34,51.34,4.45827,-3.16435,0,1183.57,-1510.69,-0.0402299,0,35.58,158.372,2803267
-0.121887,0.119568,0.903931,0.042,0.22,51.11,51.11,4.46187,-3.16978,0,1032.84,-1416.83,-0.0402299,0,35.58,158.392,2803283
0.194763,0.168457,1.66821,0.292,0.051,50.68,50.68,4.46983,-3.18086,0,704.424,-1392.08,-0.0632184,0,35.58,158.412,2803312
0.0878296,0.392029,1.99994,0.404,0.285,50.45,50.45,4.47449,-3.18625,0,446.04,-1540.95,-0.0708812,0,35.58,158.432,2803327
0.796997,-0.0482788,-0.00457764,0.473,-0.642,50.13,50.13,4.47972,-3.19188,0,304.948,-1393.05,-0.0708812,0,35.58,158.45,2803343
1.1416,0.492493,-0.355103,1.112,-0.565,49.39,49.39,4.49181,-3.20393,0,323.488,-1758.24,-0.0708812,0,35.58,158.471,2803372
    -2,0.305603,1.99994,-1.074,1.813,48.94,48.94,4.49828,-3.20921,0,208.572,-1098.12,-0.0708812,0,35.58,158.493,2803387
0.521667,-0.119019,-1.82526,0.255,-0.581,48.39,48.39,4.5042,-3.21367,0,235.089,-1539.88,-0.0708812,0,35.58,158.511,2803403
0.289917,-0.0496826,1.0542,0.152,-0.183,47.47,47.47,4.51793,-3.2227,0,142.557,-1291.99,-0.0708812,0,35.58,158.532,2803433
0.397705,0.622742,1.79327,0.722,0.24,46.94,46.94,4.52567,-3.22711,0,228.943,-1487.98,-0.00766284,0,35.58,158.551,2803448
0.47052,0.102356,0.776794,0.39,-0.221,46.45,46.45,4.53418,-3.23151,0,236.647,-1578.28,-0.00766284,0,35.58,158.571,2803463
0.0949707,-0.0646973,0.700623,0.01,-0.069,45.32,45.32,4.55206,-3.24092,0,264.589,-1310.36,0.00763359,0,35.55,158.592,2803493
0.193115,0.167786,0.91217,0.239,0.04,44.76,44.76,4.56125,-3.24571,0,366.072,-1395.38,0.00763359,0,35.55,158.611,2803508
-0.141846,0.228394,1.95966,0.022,0.377,44.2,44.2,4.5706,-3.25023,0,566.99,-972.763,0.00763359,0,35.55,158.631,2803523
-0.377075,0.18988,1.75232,-0.185,0.497,43.08,43.08,4.58998,-3.25929,0,738.035,-1309.67,0.00763359,0,35.55,158.652,2803553
0.339539,-0.176331,1.1944,0.103,-0.289,42.56,42.56,4.59967,-3.26367,0,835.701,-1275.51,-0.0632184,0,35.55,158.671,2803568
0.00585938,0.108643,0.405823,0.066,0.1,42.04,42.04,4.6095,-3.26817,0,862.404,-1319.87,-0.0785441,0,35.55,158.691,2803583
0.148499,0.143738,0.95282,0.182,0.062,41.08,41.08,4.6293,-3.2764,0,411.599,-1221.52,-0.0862069,0,35.55,158.711,2803613
0.102966,-0.0595093,1.03369,0.01,-0.054,40.61,40.61,4.6394,-3.2804,0,317.92,-1299.29,-0.0862069,0,35.55,158.731,2803628
0.445007,0.0701294,0.627563,0.366,-0.197,40.12,40.12,4.64977,-3.28456,0,298.436,-1232.89,-0.0862069,0,35.55,158.752,2803643
0.288757,-0.118225,0.609741,0.127,-0.24,38.97,38.97,4.67146,-3.293,0,190.458,-1280.57,-0.0229885,0,35.55,158.771,2803673
0.182556,0.164978,1.44659,0.191,0.091,38.37,38.37,4.68265,-3.29735,0,282.741,-1238.08,-0.00766284,0,35.55,158.791,2803688
0.480896,-0.0213013,0.565491,0.343,-0.279,37.74,37.74,4.69418,-3.30182,0,466.07,-1391.21,0,0,35.55,158.812,2803703
0.0506592,0.00622559,0.906067,0.005,0.022,36.42,36.42,4.71753,-3.311,0,533.476,-945.314,0.00763359,0,35.55,158.831,2803733
0.0656128,0.121582,0.77771,0.089,0.101,35.78,35.78,4.72923,-3.31548,0,703.953,-1358.6,0.00763359,0,35.55,158.852,2803748
0.039978,0.190674,1.49487,0.075,0.209,35.15,35.15,4.74104,-3.31975,0,709.069,-1093.43,0.00763359,0,35.55,158.871,2803763
0.0922241,-0.00268555,1.14569,0.023,0.004,34,34,4.76483,-3.32796,0,765.199,-1259.29,0.00763359,0,35.55,158.892,2803793
-0.085144,-0.0339355,1.05231,-0.136,0.071,33.47,33.47,4.77666,-3.332,0,759.33,-1117.88,0.00763359,0,35.55,158.913,2803808
-0.0116577,-0.204712,0.862549,-0.16,-0.119,32.97,32.97,4.78828,-3.33607,0,873.591,-1224.21,0.00763359,0,35.55,158.932,2803823
-0.104858,-0.0444336,0.680725,-0.14,0.052,32.08,32.08,4.81126,-3.34412,0,819.135,-1497.79,0.00763359,0,35.55,158.951,2803853
-0.0875244,0.0153809,0.720703,-0.095,0.094,31.71,31.71,4.82257,-3.34798,0,846.346,-1372.12,0.00763359,0,35.55,158.972,2803868
-0.187805,0.0960693,1.97052,-0.185,0.275,31.34,31.34,4.83366,-3.35158,0,935.148,-1000.95,0.00763359,0,35.55,158.992,2803883
-0.103882,0.226562,1.39929,-0.023,0.316,30.67,30.67,4.85548,-3.35918,0,931.185,-1268.47,0.00763359,0,35.55,159.011,2803913
-0.0741577,-0.29303,0.484802,-0.23,-0.191,30.39,30.39,4.86621,-3.36293,0,982.753,-708.642,0.00763359,0,35.55,159.031,2803928
0.294067,-0.179382,0.340332,0.154,-0.283,29.84,29.84,4.88718,-3.37071,0,1085.36,-1323.01,0.00763359,0,35.55,159.057,2803958
-0.311035,0.148254,1.8457,-0.256,0.373,29.59,29.59,4.89761,-3.3746,0,1065.81,-1211.75,0.00763359,0,35.55,159.072,2803973
0.0805054,0.0662231,1.0976,0.068,0.072,29.36,29.36,4.90793,-3.37819,0,1079.62,-1127.4,0.00763359,0,35.55,159.091,2803988
0.338928,-0.127136,0.781311,0.209,-0.235,29.17,29.17,4.91841,-3.38188,0,1106.99,-1270.81,0.00763359,0,35.52,159.112,2804003
0.274475,-0.0158081,0.757385,0.211,-0.105,28.8,28.8,4.93977,-3.38921,0,1003.61,-1075.15,0.00763359,0,35.52,159.132,2804033
-0.190491,-0.383423,1.46466,-0.39,-0.17,28.65,28.65,4.95038,-3.39301,0,1173.5,-1468.86,0.00763359,0,35.52,159.153,2804048
0.143066,0.117249,0.671448,0.163,0.071,28.48,28.48,4.96085,-3.39687,0,1222.64,-1188.42,0.00763359,0,35.52,159.172,2804063
0.13916,-0.0950317,1.10339,0.051,-0.09,28.16,28.16,4.98193,-3.40483,0,1101.08,-1293.33,0.00763359,0,35.52,159.192,2804093
-0.0499268,-0.0509033,1.17517,-0.094,0.044,28.01,28.01,4.99246,-3.40892,0,1041.67,-1241.31,0.00763359,0,35.52,159.212,2804108
-0.0158081,-0.0725098,0.403687,-0.058,-0.033,27.81,27.81,5.00288,-3.41299,0,1058.99,-839.948,0.00763359,0,35.52,159.232,2804123
0.174683,-0.0871582,1.74097,0.076,-0.061,27.46,27.46,5.02357,-3.42133,0,1207.73,-1518.72,0.00763359,0,35.52,159.254,2804153
-0.00732422,-0.183472,0.756714,-0.107,-0.116,27.32,27.32,5.03391,-3.42564,0,1254.78,-1381.98,0.00763359,0,35.52,159.271,2804168
-0.0422363,-0.141479,0.82196,-0.123,-0.058,27.2,27.2,5.0441,-3.43008,0,1237.32,-1206.42,0.00763359,0,35.52,159.291,2804183
0.0845337,0.201355,1.67657,0.132,0.233,27,27,5.06383,-3.4389,0,1121.33,-1538.11,0.00763359,0,35.52,159.311,2804213
0.258423,-0.122192,0.0535278,0.173,-0.222,26.92,26.92,5.07385,-3.44324,0,1315.96,-1328.46,0.00763359,0,35.52,159.335,2804228
-0.274841,-0.262146,1.73956,-0.404,-0.011,26.83,26.83,5.08374,-3.44772,0,1275.18,-1557.39,0.00763359,0,35.52,159.351,2804243
-1.05969,0.0900269,1.99994,-0.944,0.661,26.62,26.62,5.10229,-3.45694,0,1232.36,-1384.66,0.00763359,0,35.52,159.371,2804273
-0.240295,-0.263367,-1.12341,-0.303,-0.19,26.56,26.56,5.1104,-3.46111,0,1207.66,-1252.9,0.00763359,0,35.52,159.391,2804288
-0.627625,0.0670776,1.99994,-0.57,0.449,26.43,26.43,5.1179,-3.46512,0,1119.57,-1449.28,0.00763359,0,35.52,159.411,2804303
-0.175903,0.172791,1.24274,-0.103,0.302,26.27,26.27,5.13216,-3.47282,0,1179.11,-1313.72,0.00763359,0,35.52,159.431,2804333
0.00164795,-0.16095,0.55072,-0.08,-0.113,26.18,26.18,5.13911,-3.47655,0,1272.59,-1589.07,0.00763359,0,35.52,159.451,2804348
-0.00793457,0.0350952,1.08936,-0.011,0.094,26.11,26.11,5.14603,-3.48027,0,1190.62,-1447.81,0.00763359,0,35.52,159.472,2804363
0.135437,-0.17218,0.737427,0.031,-0.172,25.94,25.94,5.15924,-3.48741,0,1392.66,-1315.18,0.00763359,0,35.52,159.491,2804393
-0.0824585,0.0151367,1.05182,-0.085,0.106,25.87,25.87,5.16573,-3.49104,0,1241.31,-1680.81,0.00763359,0,35.52,159.511,2804408
0.370728,0.0188599,0.917297,0.325,-0.092,25.77,25.77,5.17238,-3.49466,0,1415.73,-1477.43,0.00763359,0,35.52,159.531,2804423
-0.0591431,0.0882568,1.59137,-0.045,0.192,25.57,25.57,5.18594,-3.50212,0,1297.1,-1284.11,0.00763359,0,35.52,159.551,2804453
-0.114929,-0.093811,0.945068,-0.161,0.017,25.48,25.48,5.19254,-3.50566,0,1234.42,-1355.66,0.00763359,0,35.52,159.571,2804468
0.127441,0.0810547,0.861938,0.133,0.066,25.39,25.39,5.19911,-3.50916,0,1138.11,-1363.05,0.00763359,0,35.52,159.591,2804484
0.086731,-0.0766602,1.04602,0.027,-0.049,25.24,25.24,5.21249,-3.51572,0,1233.96,-1053.91,0.00763359,0,35.53,159.612,2804513
0.262878,0.078064,0.377441,0.264,-0.02,25.18,25.18,5.21939,-3.519,0,1254.55,-1547.51,0.00763359,0,35.53,159.632,2804528
-0.389832,0.0404053,1.87793,-0.37,0.302,25.11,25.11,5.22621,-3.52209,0,1358.51,-1192.75,0.00763359,0,35.53,159.651,2804544
-0.0266113,0.0117798,0.670166,-0.032,0.058,24.95,24.95,5.2395,-3.52844,0,1256.36,-1520.91,0.00763359,0,35.53,159.671,2804573
-0.251648,0.0664673,1.42004,-0.23,0.243,24.86,24.86,5.24599,-3.53149,0,1252.19,-1362.03,0.00763359,0,35.53,159.691,2804588
-0.0333252,-0.369141,1.44293,-0.215,-0.242,24.78,24.78,5.25217,-3.53455,0,1285.18,-1484.23,0.00763359,0,35.53,159.711,2804604
0.258118,-0.0794067,0.77301,0.185,-0.135,24.61,24.61,5.26472,-3.54112,0,1424.7,-1292.66,0.00763359,0,35.53,159.731,2804633
-0.0961914,-0.0247803,1.20331,-0.123,0.084,24.52,24.52,5.27118,-3.54451,0,1460.39,-1361.56,0.00763359,0,35.53,159.751,2804648
0.114136,0.0545654,1.33899,0.1,0.077,24.43,24.43,5.2776,-3.54778,0,1333.6,-1360.27,0.00763359,0,35.53,159.771,2804664
0.214478,-0.0522461,0.763123,0.157,-0.092,24.21,24.21,5.29102,-3.55432,0,1237.93,-1150.35,0.00763359,0,35.53,159.793,2804693
-0.0757446,0.0274048,1.79498,-0.094,0.156,24.12,24.12,5.29788,-3.55759,0,1281.31,-1514.35,0.00763359,0,35.53,159.811,2804708
0.0125732,-0.0581665,0.604065,-0.024,-0.023,24.01,24.01,5.30466,-3.56078,0,1313.28,-1502.86,0.00763359,0,35.53,159.831,2804724
-0.0447998,0.228333,1.9267,0.014,0.328,23.84,23.84,5.31831,-3.56685,0,1205.76,-1746.57,0.00763359,0,35.53,159.854,2804753
0.432739,0.0438232,-0.0197754,0.414,-0.134,23.74,23.74,5.32545,-3.56963,0,1361.38,-1556.06,0.00763359,0,35.53,159.871,2804768
0.178528,-0.00805664,1.99994,0.117,0.029,23.67,23.67,5.33298,-3.57246,0,1293.08,-1508.64,-0.126437,0,35.53,159.891,2804784
0.490723,-0.0618896,0.805481,0.406,-0.207,23.48,23.48,5.34914,-3.57794,0,973.568,-1449.49,-0.126437,0,35.53,159.912,2804813
0.331177,0.289368,0.647217,0.403,0.168,23.42,23.42,5.35803,-3.58072,0,575.523,-1332.98,-0.243295,0,35.53,159.932,2804828
0.0296631,0.237183,1.77203,0.078,0.296,23.23,23.23,5.36725,-3.58318,0,307.692,-1596.42,-0.252874,0,35.53,159.952,2804844
0.0401611,0.222534,1.14941,0.087,0.245,22.68,22.68,5.38644,-3.58797,0,142.242,-1408.95,-0.260536,0,35.53,159.971,2804873
0.347839,0.354309,1.39197,0.411,0.259,22.33,22.33,5.39651,-3.59001,0,72.4454,-1354.83,-0.260536,0,35.53,159.992,2804888
0.41156,0.165161,1.02496,0.405,0.045,21.91,21.91,5.40715,-3.59184,0,72.4454,-1470.91,-0.275862,0,35.53,160.012,2804904
0.112549,0.11731,1.13629,0.096,0.115,20.95,20.95,5.42937,-3.59492,0,72.4454,-1449.28,-0.283525,0,35.53,160.032,2804933
0.47052,0.297058,1.04297,0.496,0.155,20.44,20.44,5.44096,-3.59616,0,72.4454,-1215.14,-0.283525,0,35.53,160.052,2804948
0.338318,0.259705,1.2644,0.343,0.176,19.91,19.91,5.45314,-3.59717,0,6.04105,-1401.54,-0.283525,0,35.53,160.072,2804964
-0.131775,0.217407,1.32104,-0.125,0.295,18.8,18.8,5.4783,-3.59885,0,-10.0761,-1602.56,-0.283525,0,35.53,160.093,2804993
0.568176,0.209717,0.317383,0.585,0.034,18.21,18.21,5.49121,-3.59938,0,-10.0761,-1210.8,-0.306513,0,35.53,160.112,2805008
0.0788574,0.191589,1.42529,0.045,0.205,17.59,17.59,5.50456,-3.59975,0,-16.2825,-1318.39,-0.346743,0,35.47,160.132,2805024
0.217773,0.251465,0.567749,0.242,0.197,16.29,16.29,5.53183,-3.59972,0,-16.2825,-910.788,-0.394636,0,35.47,160.151,2805053
0.105103,0.0147095,0.977539,0.038,0.011,15.63,15.63,5.54581,-3.59944,0,-16.2825,-1294,-0.409962,0,35.47,160.175,2805068
0.0805664,0.315369,1.54578,0.059,0.318,14.98,14.98,5.55984,-3.59894,0,-9.9418,-1366.12,-0.43295,0,35.47,160.192,2805084
0.0561523,0.305176,1.31635,0.031,0.307,13.59,13.59,5.58876,-3.59694,0,-8.30128,-1208.75,-0.448276,0,35.47,160.212,2805113
0.108826,0.17511,1.26111,0.052,0.167,12.89,12.89,5.60341,-3.59546,0,-91.628,-1227.22,-0.455939,0,35.47,160.231,2805129
0.222961,0.112427,1.01532,0.165,0.078,12.18,12.18,5.61819,-3.59381,0,-96.3289,-1145.61,-0.455939,0,35.47,160.251,2805144
0.308105,0.186829,0.797852,0.273,0.135,10.67,10.67,5.64841,-3.58975,0,-87.9937,-1186.31,-0.455939,0,35.47,160.271,2805174
0.171387,0.168945,1.04175,0.113,0.146,9.87,9.87,5.66389,-3.58739,0,-145.094,-1112.1,-0.455939,0,35.47,160.291,2805189
0.197571,0.153076,0.910706,0.145,0.126,9.05,9.05,5.67957,-3.58484,0,-119.926,-1239.46,-0.455939,0,35.47,160.311,2805204
0.11792,0.13031,0.936218,0.054,0.116,7.32,7.32,5.71153,-3.57919,0,-106.655,-1213.08,-0.455939,0,35.47,160.332,2805234
0.108093,0.211243,1.30371,0.021,0.198,6.45,6.45,5.72765,-3.57607,0,-89.1297,-1183.08,-0.455939,0,35.47,160.351,2805249
0.139587,0.0568848,0.849976,0.071,0.042,5.56,5.56,5.74382,-3.57277,0,-127.171,-1265.34,-0.331418,0,35.47,160.373,2805264
0.270569,0.229248,1.14764,0.181,0.205,3.77,3.77,5.77667,-3.56566,0,-93.5751,-1002.31,-0.331418,0,35.47,160.392,2805294
0.197205,0.170776,1.25647,0.091,0.152,2.85,2.85,5.7934,-3.56172,0,-49.6376,-1235.25,-0.243295,0,35.47,160.412,2805309
0.237061,0.153931,0.718689,0.174,0.14,1.92,1.92,5.81029,-3.5576,0,-49.6376,-1094.45,-0.181992,0,35.47,160.434,2805324
0.353699,0.0456543,1.15417,0.243,0.031,0.05,0.05,5.84474,-3.54912,0,-49.6376,-1111.61,-0.0938697,0,35.47,160.451,2805354
0.259277,0.0670776,1.38818,0.123,0.054,-0.88,359.11,5.86234,-3.54482,0,-6.44481,-1191.26,-0.0555556,0,35.47,160.472,2805369
0.295349,0.0379028,0.566528,0.237,0.039,-1.81,358.18,5.88019,-3.54045,0,118.121,-1130.01,-0.0402299,0,35.47,160.493,2805384
0.0881348,0.0647583,0.854858,-0.001,0.056,-3.68,356.31,5.91608,-3.5314,0,142.446,-1107.48,-0.0306513,0,35.47,160.511,2805414
0.15564,0.0810547,0.905762,0.057,0.077,-4.57,355.42,5.93404,-3.52675,0,183.474,-1107.3,-0.0306513,0,35.47,160.531,2805429
0.297363,0.0201416,0.924011,0.2,0.031,-5.47,354.52,5.95218,-3.522,0,235.004,-1141.42,-0.0306513,0,35.47,160.551,2805444
0.197632,0.101318,0.959473,0.084,0.105,-7.25,352.74,5.98878,-3.51242,0,197.781,-1101.56,-0.0306513,0,35.47,160.572,2805474
0.0783081,0.156311,1.20416,-0.067,0.139,-8.14,351.85,6.00711,-3.50743,0,224.808,-697.739,-0.0153257,0,35.47,160.592,2805489
0.2099,-0.0435791,0.718079,0.139,-0.026,-9.02,350.97,6.0255,-3.50237,0,328.537,-969.885,0,0,35.47,160.611,2805505
0.1698,0.0250854,0.770081,0.081,0.037,-10.78,349.21,6.06219,-3.49197,0,408.138,-1057.42,0.00763359,0,35.4,160.632,2805534
-0.0866089,-0.00732422,1.28259,-0.214,-0.057,-11.65,348.34,6.08043,-3.48674,0,480.977,-1310.44,0.00763359,0,35.4,160.651,2805549
0.15979,-0.115051,1.03033,0.075,-0.103,-12.47,347.52,6.09856,-3.48163,0,468.209,-1194.6,0.00763359,0,35.4,160.673,2805564
0.0679932,-0.126892,0.786621,0.016,-0.125,-14.01,345.98,6.13475,-3.47163,0,564.509,-1201.13,0.00763359,0,35.4,160.692,2805594
-0.0360107,-0.165344,1.03149,-0.096,-0.191,-14.77,345.22,6.15277,-3.4669,0,520.508,-1294.58,0.00763359,0,35.4,160.711,2805609
0.085083,-0.180725,0.72406,0.056,-0.166,-15.51,344.48,6.17076,-3.46242,0,564.621,-1067.98,0.00763359,0,35.4,160.733,2805624
0.135803,-0.110474,0.457581,0.116,-0.075,-16.94,343.05,6.20625,-3.45381,0,594.778,-1097.51,0.00763359,0,35.4,160.752,2805654
-0.125122,-0.0324707,1.37097,-0.243,-0.094,-17.63,342.36,6.22386,-3.44966,0,623.228,-1111.91,0.00763359,0,35.4,160.771,2805669
0.16626,-0.139709,0.716125,0.132,-0.093,-18.28,341.71,6.24138,-3.44563,0,628.22,-1121.14,0.00763359,0,35.4,160.792,2805684
0.0518188,-0.154541,0.724121,0.03,-0.141,-19.55,340.44,6.27632,-3.43806,0,664.827,-955.201,0.00763359,0,35.4,160.812,2805714
-0.166199,-0.0738525,1.57812,-0.279,-0.154,-20.15,339.84,6.29359,-3.43457,0,751.908,-1358.6,0.00763359,0,35.4,160.831,2805729
-0.0491333,-0.0349121,1.00635,-0.124,-0.066,-20.7,339.29,6.31058,-3.43123,0,794.439,-1150.95,0.00763359,0,35.4,160.852,2805744
0.02771,-0.112549,1.06537,-0.029,-0.111,-21.77,338.22,6.34412,-3.42476,0,643.17,-1250,0.0152672,0,35.4,160.872,2805774
-0.130066,0.0552979,0.941406,-0.225,-0.012,-22.25,337.74,6.36067,-3.42168,0,691.109,-1085.01,0.0381679,0,35.4,160.892,2805789
-0.201538,0.020813,1.45874,-0.321,-0.078,-22.71,337.28,6.37685,-3.41864,0,831.29,-1208.24,0.0629771,0,35.4,160.913,2805804
-0.220093,-0.0299683,1.24298,-0.295,-0.13,-23.53,336.46,6.40837,-3.41344,0,582.547,-1075.33,0.0935115,0,35.4,160.934,2805834
-0.0377197,0.031311,0.704407,-0.106,0.005,-23.91,336.08,6.42374,-3.41109,0,619.214,-1195.1,0.156489,0,35.4,160.951,2805849
-0.0412598,0.0170898,1.39868,-0.162,-0.019,-24.32,335.67,6.43892,-3.41109,0,543.907,-1310.19,0.280534,0,35.4,160.972,2805864
-0.1203,0.0942383,1.10016,-0.242,0.015,-25.3,334.69,6.46895,-3.41096,0,557.072,-1233.2,0.562977,0,35.4,160.991,2805894
0.168762,0.0856323,1.1153,0.019,0.131,-25.82,334.17,6.48372,-3.41078,0,724.297,-1250.23,0.719466,0,35.4,161.012,2805909
0.247803,-0.166565,0.573547,0.246,-0.05,-26.35,333.64,6.49869,-3.41054,0,912.992,-922.594,0.866412,0,35.4,161.031,2805924
-0.00189209,-0.127502,1.24969,-0.048,-0.136,-27.32,332.67,6.52896,-3.4102,0,936.023,-1288.41,0.866412,0,35.4,161.051,2805954
-0.0118408,-0.193237,0.997681,-0.002,-0.192,-27.71,332.28,6.54405,-3.41031,0,1054.74,-1379.69,0.875954,0,35.4,161.071,2805969
0.0877686,-0.246643,1.12805,0.101,-0.191,-28.05,331.94,6.55922,-3.41069,0,1046.74,-1121.01,0.875954,0,35.4,161.092,2805984
-0.111572,-0.320251,1.06171,-0.028,-0.341,-28.56,331.43,6.58974,-3.41251,0,1074.63,-1264.06,0.875954,0,35.4,161.111,2806014
-0.0869141,-0.164307,1.49017,-0.112,-0.189,-28.73,331.26,6.6049,-3.414,0,1090.45,-1204.82,0.875954,0,35.4,161.132,2806029
0.164124,-0.229065,0.667297,0.202,-0.121,-28.87,331.12,6.62013,-3.41571,0,1149.69,-1184.76,0.875954,0,35.4,161.152,2806044
0.234009,-0.235535,1.19489,0.227,-0.088,-29.11,330.88,6.65063,-3.41963,0,1165.7,-1158.35,0.875954,0,35.4,161.172,2806074
0.124451,-0.0753174,1.12006,0.061,0.001,-29.2,330.79,6.66608,-3.42172,0,1141.1,-1348.44,0.875954,0,35.4,161.192,2806089
0.357727,-0.157104,1.05621,0.308,0.044,-29.28,330.71,6.68179,-3.4238,0,1306.59,-1278.36,0.875954,0,35.4,161.214,2806104
0.419983,-0.213013,0.884033,0.404,0.028,-29.39,330.6,6.71474,-3.4277,0,1343.54,-950.029,0.875954,0,35.4,161.233,2806134
0.209351,-0.165588,0.755371,0.206,-0.034,-29.44,330.55,6.73192,-3.42963,0,1356.94,-1082.31,0.875954,0,35.4,161.251,2806149
-0.248108,-0.0840454,1.33173,-0.272,-0.182,-29.46,330.53,6.74904,-3.4317,0,1379.41,-1554.85,0.875954,0,35.4,161.271,2806164
0.117004,-0.0760498,0.302063,0.116,-0.004,-29.52,330.47,6.78304,-3.43604,0,1354.19,-1393.24,0.875954,0,35.4,161.291,2806194
0.0714111,-0.118164,1.54736,0.005,-0.046,-29.56,330.43,6.80016,-3.43823,0,1223.39,-1353.82,0.875954,0,35.4,161.311,2806209
0.298828,-0.184082,0.493164,0.312,-0.005,-29.59,330.4,6.8175,-3.44046,0,1290.32,-1323.1,0.875954,0,35.4,161.332,2806224
0.223755,-0.0491943,0.632446,0.171,0.079,-29.67,330.32,6.85211,-3.44489,0,1434.21,-1482.14,0.875954,0,35.4,161.353,2806254
0.0693359,-0.0338745,1.13251,-0.007,0.024,-29.71,330.28,6.86948,-3.44702,0,1217.29,-1402.13,0.875954,0,35.4,161.371,2806269
-0.041748,-0.0665894,1.11188,-0.083,-0.058,-29.75,330.24,6.8868,-3.44917,0,1418.04,-1434,0.875954,0,35.4,161.392,2806285
-0.175171,0.118408,0.967529,-0.277,0.033,-29.84,330.15,6.92114,-3.45409,0,1374.95,-1006.39,0.875954,0,35.4,161.411,2806314
-0.017334,-0.288696,0.697754,0.076,-0.245,-29.89,330.1,6.93808,-3.45677,0,1376.08,-1611.99,0.875954,0,35.4,161.431,2806329
-0.110596,-0.0957642,0.668213,-0.097,-0.125,-29.9,330.09,6.95502,-3.4597,0,1522.19,-1425.52,0.875954,0,35.4,161.451,2806345
0.783203,0.0305786,1.16516,0.577,0.442,-29.94,330.05,6.98956,-3.46484,0,1422.07,-1490.31,0.875954,0,35.4,161.472,2806374
0.27124,0.156799,0.892761,0.089,0.287,-30,329.99,7.00755,-3.46667,0,1476.78,-1554.24,0.875954,0,35.4,161.492,2806389
0.296021,-0.0264282,1.22693,0.179,0.146,-30.05,329.94,7.02574,-3.4682,0,1496.33,-1488.54,0.875954,0,35.4,161.512,2806405
0.109985,-0.213135,-0.360474,0.228,-0.135,-30.07,329.92,7.06252,-3.47144,0,1416.23,-1497.34,0.812977,0,35.4,161.532,2806434
-0.257935,-0.0715332,1.40192,-0.288,-0.166,-30.07,329.92,7.08093,-3.47334,0,1602.05,-1671.26,0.805344,0,35.4,161.552,2806449
-0.312134,0.107117,1.99994,-0.461,-0.025,-30.06,329.93,7.09886,-3.4754,0,1516.99,-1444.36,0.734733,0,35.4,161.572,2806465
-0.0223389,-0.0261841,1.67401,-0.126,-0.003,-30.04,329.95,7.13434,-3.47995,0,1453.17,-1477.87,0.641221,0,35.4,161.595,2806494
-0.115784,-0.0067749,1.61163,-0.204,-0.032,-30.03,329.96,7.15186,-3.48233,0,1562.01,-1494.21,0.641221,0,35.4,161.611,2806509
0.195251,-0.236816,-0.20575,0.301,-0.11,-30.04,329.95,7.16946,-3.48479,0,1254.63,-1740.34,0.469466,0,35.4,161.631,2806525
-0.298584,0.0603027,1.99994,-0.426,-0.064,-30.14,329.85,7.20428,-3.48952,0,1293.91,-1555.81,0.29771,0,35.38,161.651,2806554
0.49884,-0.167236,-0.198242,0.528,0.104,-30.27,329.72,7.22153,-3.49181,0,1230.01,-1494.1,0.29771,0,35.38,161.671,2806569
0.12616,0.404785,1.99994,-0.235,0.439,-30.42,329.57,7.23898,-3.49373,0,1057.87,-1494.66,0.272901,0,35.38,161.691,2806585
0.768005,0.216553,0.394592,0.517,0.583,-30.89,329.1,7.27484,-3.49599,0,995.223,-1324.06,0.272901,0,35.38,161.712,2806614
-0.119263,0.306335,1.99994,-0.402,0.21,-31.18,328.81,7.2932,-3.49628,0,840.548,-1680.53,0.272901,0,35.38,161.731,2806629
0.552612,0.188782,0.921326,0.307,0.452,-31.46,328.53,7.31148,-3.49612,0,879.43,-1764.29,0.272901,0,35.38,161.751,2806645
-0.225098,0.366516,1.99994,-0.516,0.179,-32.1,327.89,7.34846,-3.49411,0,756.029,-1515.38,0.257634,0,35.38,161.771,2806674
0.829834,-0.0479736,-0.0687256,0.729,0.404,-32.43,327.56,7.36699,-3.49248,0,828.569,-1392.37,0.211832,0,35.38,161.792,2806689
0.0496216,0.16925,1.05756,-0.124,0.159,-32.8,327.19,7.38593,-3.49048,0,868.546,-1475.47,0.211832,0,35.38,161.813,2806705
0.046875,0.228149,1.74487,-0.206,0.189,-33.64,326.35,7.42297,-3.48621,0,989.071,-1503.08,0.0229008,0,35.38,161.831,2806734
0.241577,0.0726929,0.334229,0.135,0.189,-34.08,325.91,7.44128,-3.48378,0,754.489,-1415.83,0.00763359,0,35.38,161.851,2806749
-0.0397949,0.169312,1.31848,-0.219,0.091,-34.52,325.47,7.45955,-3.48116,0,1002.91,-1486.44,0.00763359,0,35.38,161.871,2806765
0.342834,0.0883789,0.44043,0.198,0.261,-35.35,324.64,7.49559,-3.47527,0,1052.63,-1369.49,0.00763359,0,35.38,161.891,2806794
-0.172241,0.112732,1.62158,-0.31,-0.043,-35.73,324.26,7.51353,-3.47203,0,1134.43,-1378.64,0.00763359,0,35.38,161.912,2806809
0.213623,-0.137634,1.23608,0.174,-0.01,-36.04,323.95,7.5314,-3.46883,0,1007.71,-1600.26,0.00763359,0,35.38,161.932,2806825
-0.0499268,0.0404053,1.49017,-0.158,-0.027,-36.56,323.43,7.5672,-3.46884,0,1149.89,-1363.05,0.00763359,0,35.38,161.953,2806854
-0.0109253,-0.308533,1.05865,0.111,-0.273,-36.78,323.21,7.58501,-3.46907,0,1049.1,-1369.21,0.00763359,0,35.38,161.971,2806869
0.00213623,-0.0878906,0.723022,0.009,-0.081,-36.98,323.01,7.60289,-3.46953,0,1044.39,-1276,0.00763359,0,35.38,161.992,2806885
-0.367493,-0.0423584,1.94495,-0.38,-0.289,-37.37,322.62,7.63815,-3.47096,0,1124.16,-1412.93,0.00763359,0,35.38,162.012,2806914
