raw_accel_x,raw_accel_y,raw_accel_z,raw_gyro_x,raw_gyro_y,raw_gyro_z,world_accel_x,world_accel_y,yaw,x,y,z,left_encoder_rate,right_encoder_rate,left_motor,right_motor,temp,fpga time,navx time
-0.00695801,-0.0228271,1.01532,0.12207,0.0610352,0,-0.001,0.001,159.24,-0.0741882,0.180832,0,0,0,0,0,41.68,169.554,1789656
-0.00793457,-0.0206909,1.00928,0.183105,0.0610352,0,0,0,0,-0.0741882,0.180832,0,0,0,0,0,41.68,169.564,1789672
-0.00714111,-0.0200195,1.00983,-0.0610352,-0.12207,-0.0610352,0,0.001,0,0,0,0,0,0,0,0,41.68,169.579,1789686
-0.00775146,-0.0206299,1.01373,-0.12207,-0.0610352,0,0,0,0,0,0,0,0,0,0,0,41.68,169.598,1789701
-0.00671387,-0.0210571,1.01062,-0.183105,0,0,0.001,0,0,0,0,0,0,0,0,0,41.68,169.618,1789732
-0.00860596,-0.0218506,1.01575,-0.12207,-0.0610352,-0.12207,0,0,0,0,0,0,0,0,0,0,41.68,169.639,1789746
-0.00610352,-0.0215454,1.01715,-0.0610352,-0.0610352,0.0610352,0.001,0,0,0,0,0,0,0,0,0,41.68,169.66,1789762
-0.00823975,-0.0221558,1.01648,0,-0.0610352,-0.0610352,0,0,0,0,0,0,0,0,0,0,41.68,169.681,1789792
-0.00427246,-0.0232544,1.01105,-0.0610352,-0.244141,-0.0610352,0.003,-0.002,0,0,0,0,0,0,0,0,41.68,169.698,1789807
-0.00891113,-0.0246582,1.01074,0.0610352,0.0610352,-0.12207,-0.001,-0.003,0,0,0,0,0,0,0,0,41.68,169.718,1789822
-0.00665283,-0.0217285,1.01331,-0.0610352,-0.0610352,-0.0610352,0.001,0,0,0,0,0,0,0,0,0,41.68,169.739,1789852
-0.00750732,-0.0177612,1.01117,0,0,-0.0610352,0,0.003,0,0,0,0,0,0,0,0,41.68,169.758,1789867
-0.00726318,-0.0203247,1.01172,-0.183105,-0.183105,0,0,0,0,0,0,0,0,0,0,0,41.68,169.778,1789882
-0.00787354,-0.0205688,1.01233,-0.0610352,-0.0610352,0,0,0,0,0,0,0,0,0,0,0,41.68,169.798,1789912
-0.00701904,-0.0216675,1.01422,-0.12207,-0.0610352,0,0,0,0,0,0,0,0,0,0,0,41.68,169.818,1789927
-0.00891113,-0.0200195,1.0127,-0.0610352,-0.12207,0,-0.001,0.001,0,0,0,0,0,0,0,0,41.68,169.839,1789942
-0.00836182,-0.022522,1.01801,0,0,0,0,-0.001,0,0,0,0,0,0,0,0,41.68,169.868,1789972
-0.00836182,-0.0194702,1.01562,0.0610352,-0.0610352,0,0,0.001,0,0,0,0,0,0,0,0,41.68,169.886,1790002
-0.00836182,-0.0194702,1.01562,0.0610352,-0.0610352,0,0,0.001,0,0,0,0,0,0,0,0,41.68,169.898,1790002
-0.00604248,-0.0164185,1.01398,0,0,0,0.001,0.004,0,0,0,0,0,0,0,0,41.68,169.919,1790032
-0.00891113,-0.0198364,1.01764,-0.0610352,-0.12207,0,-0.001,0.001,0,0,0,0,0,0,0,0,41.68,169.939,1790047
-0.00799561,-0.0203857,1.01331,-0.0610352,-0.0610352,0,0,0,0,0,0,0,0,0,0,0,41.67,169.959,1790062
-0.00866699,-0.0199585,1.01117,-0.0610352,-0.0610352,0,0,0.001,0,0,0,0,0,0,0,0,41.67,169.988,1790092
-0.00653076,-0.0200806,1.01514,-0.0610352,-0.12207,-0.0610352,0.001,0.001,0,0,0,0,0,0,0,0,41.67,169.999,1790107
-0.00915527,-0.020752,1.01276,-0.0610352,-0.0610352,-0.12207,-0.001,0,0,0,0,0,0,0,0,0,41.67,170.029,1790137
-0.0078125,-0.0216064,1.01459,-0.12207,-0.12207,0,0,0,0,0,0,0,0,0,0,0,41.67,170.039,1790152
-0.00708008,-0.0213013,1.01337,0,0,-0.0610352,0,0,0,0,0,0,0,0,0,0,41.67,170.06,1790167
-0.00683594,-0.0201416,1.01294,0,-0.0610352,-0.0610352,0,0,0,0,0,0,0,0,0,0,41.67,170.079,1790182
-0.00756836,-0.0189209,1.01459,-0.0610352,-0.0610352,0,0,0.002,0,0,0,0,0,0,0,0,41.67,170.1,1790212
-0.00457764,-0.020874,1.01172,-0.0610352,-0.0610352,-0.0610352,0.003,0,0,0,0,0,0,0,0,0,41.67,170.119,1790227
-0.00732422,-0.020752,1.00836,-0.12207,-0.183105,0.0610352,0,0,0,0,0,0,0,0,0,0,41.67,170.138,1790242
-0.00811768,-0.0219727,1.01331,-0.0610352,-0.0610352,-0.0610352,0,0,0,0,0,0,0,0,0,0,41.67,170.159,1790272
-0.00543213,-0.0211792,1.01147,-0.0610352,-0.0610352,-0.0610352,0.002,0,0,0,0,0,0,0,0,0,41.67,170.179,1790287
-0.00628662,-0.0216675,1.01135,0,0,-0.12207,0.001,0,0,0,0,0,0,0,0,0,41.67,170.198,1790302
-0.0057373,-0.0193481,1.01184,-0.0610352,-0.12207,-0.12207,0.001,0.001,0,0,0,0,0,0,0,0,41.67,170.218,1790332
-0.00787354,-0.0177612,1.01147,-0.12207,-0.0610352,-0.12207,0,0.003,0,0,0,0,0,0,0,0,41.67,170.238,1790347
-0.0078125,-0.0203857,1.0116,-0.12207,-0.0610352,-0.12207,0,0,0,0,0,0,0,0,0,0,41.67,170.258,1790362
-0.00854492,-0.0194702,1.00745,-0.12207,-0.244141,0.12207,0,0.001,0,0,0,0,0,0,0,0,41.67,170.278,1790392
-0.00860596,-0.0189819,1.013,-0.0610352,-0.0610352,0,0,0.002,0,0,0,0,0,0,0,0,41.67,170.298,1790407
-0.00982666,-0.0203247,1.01855,-0.0610352,-0.12207,0,-0.002,0,0,0,0,0,0,0,0,0,41.67,170.318,1790422
-0.00372314,-0.0230103,1.01428,-0.0610352,-0.12207,-0.12207,0.003,-0.001,0,0,0,0,0,0,0,0,41.67,170.338,1790452
-0.00769043,-0.0194092,1.01184,0.0610352,0,-0.12207,0,0.001,0,0,0,0,0,0,0,0,41.67,170.36,1790467
-0.00762939,-0.0217896,1.01813,-0.0610352,-0.244141,-0.12207,0,0,0,0,0,0,0,0,0,0,41.67,170.378,1790482
-0.00665283,-0.0199585,1.01465,-0.244141,-0.0610352,-0.12207,0.001,0.001,0,0,0,0,0,0,0,0,41.67,170.398,1790512
-0.00720215,-0.024292,1.01672,-0.12207,-0.183105,-0.0610352,0,-0.003,0,0,0,0,0,0,0,0,41.67,170.418,1790527
-0.00750732,-0.0217285,1.01843,0,-0.12207,-0.0610352,0,0,0,0,0,0,0,0,0,0,41.67,170.438,1790542
-0.00610352,-0.0253296,1.01416,-0.0610352,-0.0610352,0.0610352,0.001,-0.004,0,0,0,0,0,0,0,0,41.62,170.458,1790572
-0.0106812,-0.0230713,1.01532,0,0,0,-0.002,-0.001,0,0,0,0,0,0,0,0,41.62,170.479,1790587
-0.0088501,-0.0200195,1.01447,-0.12207,-0.12207,0,-0.001,0.001,0,0,0,0,0,0,0,0,41.62,170.5,1790602
-0.0067749,-0.0217896,1.01447,0.0610352,0,-0.0610352,0,0,0,0,0,0,0,0,0,0,41.62,170.518,1790633
-0.0078125,-0.0180664,1.01013,-0.12207,-0.0610352,0,0,0.003,0,0,0,0,0,0,0,0,41.62,170.538,1790647
-0.00793457,-0.0181885,1.00879,-0.0610352,-0.183105,0.12207,0,0.002,0,0,0,0,0,0,0,0,41.62,170.559,1790662
-0.00720215,-0.0239868,1.01318,-0.244141,-0.183105,0,0,-0.002,0,0,0,0,0,0,0,0,41.62,170.584,1790693
-0.00701904,-0.019165,1.01276,-0.12207,-0.183105,-0.12207,0,0.002,0,0,0,0,0,0,0,0,41.62,170.598,1790707
-0.00378418,-0.0188599,1.01361,-0.0610352,0,0,0.003,0.002,0,0,0,0,0,0,0,0,41.62,170.618,1790722
-0.0108032,-0.024231,1.01099,0,0,0.0610352,-0.003,-0.002,0,0,0,0,0,0,0,0,41.62,170.638,1790753
-0.00671387,-0.0194702,1.00824,0,-0.183105,0,0,0.001,0,0,0,0,0,0,0,0,41.62,170.66,1790767
-0.0111084,-0.0194702,1.01587,0,-0.12207,0,-0.003,0.001,0,0,0,0,0,0,0,0,41.62,170.678,1790782
-0.00854492,-0.0204468,1.01233,0,0,-0.12207,0,0,0,0,0,0,0,0,0,0,41.62,170.698,1790813
-0.00439453,-0.0192261,1.02142,-0.0610352,-0.12207,0.0610352,0.003,0.002,0,0,0,0,0,0,0,0,41.62,170.72,1790827
-0.00695801,-0.022644,1.00909,-0.183105,-0.183105,0,0,-0.001,0,0,0,0,0,0,0,0,41.62,170.752,1790857
-0.00860596,-0.0241699,1.0119,-0.12207,-0.12207,0.0610352,0,-0.002,0,0,0,0,0,0,0,0,41.62,170.782,1790887
-0.00567627,-0.0170288,1.01483,-0.0610352,-0.12207,0,0.001,0.004,0,0,0,0,0,0,0,0,41.62,170.808,1790917
-0.00836182,-0.0168457,1.0097,0,0.0610352,0,0,0.004,0,0,0,0,0,0,0,0,41.62,170.824,1790933
-0.00878906,-0.0203857,1.01385,-0.0610352,-0.183105,-0.183105,-0.001,0,0,0,0,0,0,0,0,0,41.62,170.848,1790962
-0.00878906,-0.0203857,1.01385,-0.0610352,-0.183105,-0.183105,-0.001,0,0,0,0,0,0,0,0,0,41.62,170.859,1790962
-0.00653076,-0.0202637,1.0127,-0.183105,-0.183105,-0.0610352,0.001,0,0,0,0,0,0,0,0,0,41.62,170.878,1790993
-0.00653076,-0.020813,1.01062,-0.12207,-0.12207,-0.0610352,0.001,0,0,0,0,0,0,0,0,0,41.62,170.898,1791007
-0.00518799,-0.0248413,1.01343,-0.0610352,0,0,0.002,-0.003,0,0,0,0,0,0,0,0,41.62,170.919,1791022
-0.00817871,-0.0259399,1.00885,0.12207,-0.0610352,0.183105,0,-0.004,0,0,0,0,0,0,0,0,41.62,170.939,1791053
-0.0078125,-0.0209961,1.01208,-0.0610352,-0.0610352,-0.12207,0,0,0,0,0,0,0,0,0,0,41.62,170.96,1791068
-0.0105591,-0.0197144,1.01544,0.183105,0,-0.12207,-0.002,0.001,0,0,0,0,0,0,0,0,41.66,170.982,1791083
-0.00830078,-0.0180054,1.01428,0,-0.183105,0.0610352,0,0.003,0,0,0,0,0,0,0,0,41.66,171.001,1791113
-0.00805664,-0.0175781,1.01178,0,-0.244141,0.183105,0,0.003,0,0,0,0,0,0,0,0,41.66,171.022,1791128
-0.010376,-0.0142212,1.01166,-0.0610352,-0.12207,0.0610352,-0.002,0.006,0,0,0,0,0,0,0,0,41.66,171.042,1791143
-0.00994873,-0.0169678,1.01593,-0.244141,-0.12207,-0.305176,-0.002,0.003,0,0,0,0,0,0,0,0,41.66,171.059,1791173
-0.00994873,-0.0214844,1.01288,-0.366211,-0.12207,-0.244141,-0.002,0,0,0,0,0,0,0,0,0,41.66,171.08,1791188
-0.00726318,-0.0230713,1.01825,-0.427246,0,-0.305176,0,-0.001,0,0,0,0,0,0,0,0,41.66,171.101,1791203
-0.00646973,-0.0258789,1.01434,-0.183105,-0.0610352,0.0610352,0.001,-0.004,0,0,0,0,0,0,0,0,41.66,171.119,1791233
-0.00506592,-0.0255737,1.00854,-0.12207,-0.12207,0.12207,0.002,-0.004,0,0,0,0,0,0,0,0,41.66,171.139,1791248
-0.0100098,-0.0291138,1.01068,0.12207,-0.0610352,0.12207,-0.002,-0.007,0,0,0,0,0,0,0,0,41.66,171.159,1791263
-0.0110474,-0.0209961,1.0144,0.183105,-0.0610352,-0.12207,-0.003,0,0,0,0,0,0,0,0,0,41.66,171.179,1791293
-0.00579834,-0.0189819,1.01526,0.183105,-0.183105,0.0610352,0.001,0.002,0,0,0,0,0,0,0,0,41.66,171.2,1791308
-0.00604248,-0.0203247,1.01544,0.183105,0.0610352,-0.0610352,0.001,0,0,0,0,0,0,0,0,0,41.66,171.219,1791323
-0.00592041,-0.0143433,1.01166,-0.305176,-0.12207,0.0610352,0.001,0.006,0,0,0,0,0,0,0,0,41.66,171.237,1791353
-0.0088501,-0.0197144,1.013,-0.244141,-0.0610352,0,-0.001,0.001,0,0,0,0,0,0,0,0,41.66,171.259,1791368
-0.0043335,-0.0230713,1.00958,-0.366211,-0.12207,-0.0610352,0.003,-0.002,0,0,0,0,0,0,0,0,41.66,171.279,1791383
-0.00848389,-0.0256348,1.0127,-0.183105,-0.244141,0,0,-0.004,0,0,0,0,0,0,0,0,41.66,171.298,1791413
-0.0090332,-0.0249634,1.00769,-0.0610352,-0.244141,0.0610352,-0.001,-0.003,0,0,0,0,0,0,0,0,41.66,171.319,1791428
-0.00952148,-0.0272827,1.01215,0.0610352,-0.244141,-0.12207,-0.001,-0.006,0,0,0,0,0,0,0,0,41.66,171.338,1791443
-0.00482178,-0.0236816,1.00983,0.0610352,-0.0610352,0.0610352,0.002,-0.002,0,0,0,0,0,0,0,0,41.66,171.358,1791458
-0.00701904,-0.0197754,1.01538,0.0610352,-0.0610352,0,0,0.001,0,0,0,0,0,0,0,0,41.66,171.378,1791488
-0.00726318,-0.0187378,1.01447,0.0610352,0.0610352,-0.0610352,0,0.002,0,0,0,0,0,0,0,0,41.66,171.398,1791503
-0.00970459,-0.0164795,1.01416,-0.0610352,0,-0.12207,-0.002,0.004,0,0,0,0,0,0,0,0,41.66,171.418,1791533
-0.00891113,-0.0213013,1.02002,-0.244141,-0.183105,-0.0610352,-0.001,0,0,0,0,0,0,0,0,0,41.66,171.44,1791548
-0.0043335,-0.0252075,1.01025,-0.183105,-0.12207,0,0.003,-0.004,0,0,0,0,0,0,0,0,41.66,171.461,1791563
-0.00952148,-0.0238037,1.01245,-0.366211,-0.12207,0.0610352,-0.001,-0.002,0,0,0,0,0,0,0,0,41.66,171.478,1791578
-0.00488281,-0.0261841,1.01099,-0.0610352,-0.0610352,-0.0610352,0.002,-0.004,0,0,0,0,0,0,0,0,41.66,171.499,1791608
-0.00585938,-0.0280151,1.01483,0.12207,-0.12207,-0.0610352,0.001,-0.006,0,0,0,0,0,0,0,0,41.66,171.518,1791623
-0.00872803,-0.0185547,1.01135,0,-0.0610352,-0.0610352,-0.001,0.002,0,0,0,0,0,0,0,0,41.66,171.538,1791653
-0.00543213,-0.017395,1.01605,0.0610352,-0.0610352,0.183105,0.002,0.003,0,0,0,0,0,0,0,0,41.66,171.562,1791668
-0.00946045,-0.0148926,1.00983,-0.12207,-0.0610352,-0.12207,-0.001,0.006,0,0,0,0,0,0,0,0,41.66,171.59,1791698
-0.00915527,-0.0168457,1.01483,-0.305176,-0.12207,-0.0610352,-0.001,0.004,0,0,0,0,0,0,0,0,41.66,171.599,1791713
-0.0100098,-0.0248413,1.01508,-0.183105,-0.0610352,0,-0.002,-0.003,0,0,0,0,0,0,0,0,41.66,171.619,1791728
-0.00842285,-0.024292,1.00964,-0.366211,-0.12207,-0.0610352,0,-0.003,0,0,0,0,0,0,0,0,41.66,171.64,1791743
-0.00646973,-0.0245361,1.01501,-0.0610352,-0.12207,0,0.001,-0.003,0,0,0,0,0,0,0,0,41.66,171.659,1791773
-0.0055542,-0.0283813,1.01312,-0.0610352,-0.0610352,0.0610352,0.001,-0.007,0,0,0,0,0,0,0,0,41.66,171.679,1791788
-0.00335693,-0.0228271,1.01288,0,0,0.0610352,0.004,-0.001,0,0,0,0,0,0,0,0,41.66,171.698,1791803
-0.00665283,-0.0206299,1.01605,0.244141,0,0.0610352,0.001,0,0,0,0,0,0,0,0,0,41.66,171.719,1791833
-0.00817871,-0.019104,1.01288,0.0610352,0,-0.0610352,0,0.002,0,0,0,0,0,0,0,0,41.66,171.742,1791848
-0.00860596,-0.0154419,1.01575,-0.0610352,-0.12207,0,0,0.005,0,0,0,0,0,0,0,0,41.66,171.761,1791863
-0.0078125,-0.0214844,1.01471,-0.12207,-0.244141,0,0,0,0,0,0,0,0,0,0,0,41.66,171.779,1791893
-0.00653076,-0.0213623,1.00977,-0.244141,-0.12207,0.12207,0.001,0,0,0,0,0,0,0,0,0,41.66,171.803,1791908
-0.00292969,-0.0216675,1.01208,-0.244141,-0.12207,0.0610352,0.004,0,-0.01,0,0,0,0,0,0,0,41.66,171.819,1791923
-0.00787354,-0.024353,1.01465,-0.12207,-0.12207,-0.0610352,0,-0.002,-0.01,0,0,0,0,0,0,0,41.66,171.838,1791954
-0.00445557,-0.0245972,1.01318,0.183105,0,0.0610352,0.003,-0.003,-0.01,0,0,0,0,0,0,0,41.66,171.86,1791968
-0.00921631,-0.020752,1.00922,0.183105,0,0.0610352,-0.001,0,-0.01,0,0,0,0,0,0,0,41.66,171.881,1791983
-0.00952148,-0.0150146,1.01227,0.0610352,-0.12207,-0.0610352,-0.001,0.006,-0.01,0,0,0,0,0,0,0,41.66,171.899,1792014
-0.0106812,-0.0182495,1.01581,-0.0610352,-0.305176,0,-0.003,0.003,-0.01,0,0,0,0,0,0,0,41.66,171.922,1792028
-0.00701904,-0.0192871,1.01093,-0.12207,-0.12207,-0.0610352,0,0.001,-0.01,0,0,0,0,0,0,0,41.66,171.939,1792043
-0.00744629,-0.0216675,1.01074,-0.305176,-0.183105,0,0,0,0,0,0,0,0,0,0,0,41.66,171.958,1792074
-0.00762939,-0.0227661,1.01477,-0.0610352,-0.12207,-0.0610352,0,-0.001,0,0,0,0,0,0,0,0,41.66,171.981,1792088
-0.00787354,-0.0265503,1.01379,-0.183105,-0.183105,0,0,-0.005,0,0,0,0,0,0,0,0,41.66,171.999,1792103
-0.00750732,-0.0223999,1.0127,-0.0610352,-0.244141,0.0610352,0,-0.001,0,0,0,0,0,0,0,0,41.66,172.018,1792134
-0.00939941,-0.022522,1.0094,0.0610352,-0.12207,0,-0.001,-0.001,0,0,0,0,0,0,0,0,41.66,172.038,1792148
-0.0088501,-0.0233765,1.01508,-0.0610352,-0.12207,0.0610352,-0.001,-0.001,-0.01,0,0,0,0,0,0,0,41.66,172.059,1792163
-0.00805664,-0.0192871,1.01227,0.0610352,0,-0.0610352,0,0.001,-0.01,0,0,0,0,0,0,0,41.66,172.078,1792194
-0.00756836,-0.0198975,1.00995,-0.183105,-0.0610352,-0.12207,0,0.001,0,0,0,0,0,0,0,0,41.66,172.098,1792208
-0.00976562,-0.0134888,1.01288,-0.12207,-0.244141,-0.12207,-0.002,0.007,0,0,0,0,0,0,0,0,41.66,172.118,1792223
-0.00964355,-0.0215454,1.01135,-0.244141,-0.12207,-0.0610352,-0.002,0,0,0,0,0,0,0,0,0,41.66,172.139,1792254
-0.00860596,-0.024231,1.01642,-0.183105,-0.0610352,-0.0610352,-0.001,-0.002,0,0,0,0,0,0,0,0,41.66,172.158,1792268
-0.0055542,-0.0230713,1.01538,-0.12207,-0.0610352,0,0.001,-0.001,0,0,0,0,0,0,0,0,41.66,172.178,1792283
-0.00762939,-0.0213623,1.01306,-0.183105,-0.12207,-0.12207,0,0,0,0,0,0,0,0,0,0,41.66,172.198,1792298
-0.0117188,-0.0199585,1.00946,0.12207,0.0610352,0.0610352,-0.004,0.001,0,0,0,0,0,0,0,0,41.66,172.22,1792328
-0.00708008,-0.0215454,1.01398,0.0610352,-0.0610352,-0.0610352,0,0,0,0,0,0,0,0,0,0,41.66,172.241,1792343
-0.00543213,-0.0205688,1.00891,-0.12207,-0.0610352,0,0.001,0,0,0,0,0,0,0,0,0,41.66,172.258,1792374
-0.0055542,-0.0161743,1.01288,-0.0610352,-0.12207,0.0610352,0.001,0.005,0,0,0,0,0,0,0,0,41.66,172.278,1792388
-0.00830078,-0.0228271,1.01282,-0.12207,-0.12207,-0.0610352,0,-0.001,0,0,0,0,0,0,0,0,41.66,172.299,1792403
-0.0067749,-0.0213623,1.01135,-0.0610352,-0.244141,0,0,0,-0.01,0,0,0,0,0,0,0,41.66,172.318,1792434
-0.00939941,-0.0212402,1.01349,-0.183105,-0.183105,0,-0.001,0,-0.01,0,0,0,0,0,0,0,41.66,172.338,1792449
-0.00701904,-0.0222778,1.0108,0,0,0,0,-0.001,-0.01,0,0,0,0,0,0,0,41.66,172.358,1792464
-0.00640869,-0.0211182,1.01526,0.0610352,-0.12207,0,0.001,0,-0.01,0,0,0,0,0,0,0,41.66,172.378,1792494
-0.0078125,-0.0200806,1.01154,0,-0.0610352,0,0,0.001,-0.01,0,0,0,0,0,0,0,41.66,172.398,1792509
-0.00976562,-0.0162354,1.01044,0,-0.12207,0,-0.002,0.004,-0.01,0,0,0,0,0,0,0,41.66,172.418,1792524
-0.00823975,-0.0200195,1.01556,0,0,0,0,0.001,-0.01,0,0,0,0,0,0,0,41.66,172.438,1792539
-0.00714111,-0.0186768,1.01117,-0.183105,-0.183105,-0.0610352,0,0.002,-0.01,0,0,0,0,0,0,0,41.66,172.46,1792569
-0.00830078,-0.0195312,1.01575,-0.183105,-0.12207,0,0,0.001,-0.01,0,0,0,0,0,0,0,41.66,172.479,1792584
-0.00750732,-0.0249023,1.00824,-0.183105,-0.183105,-0.0610352,0,-0.003,-0.01,0,0,0,0,0,0,0,41.63,172.505,1792614
-0.00769043,-0.0213623,1.0144,-0.0610352,-0.12207,-0.12207,0,0,-0.01,0,0,0,0,0,0,0,41.63,172.52,1792629
-0.00762939,-0.0258179,1.01013,-0.12207,-0.12207,-0.0610352,0,-0.004,-0.01,0,0,0,0,0,0,0,41.63,172.539,1792644
-0.00537109,-0.0186768,1.013,0,-0.0610352,0.0610352,0.002,0.002,-0.01,0,0,0,0,0,0,0,41.63,172.558,1792674
-0.00567627,-0.0181885,1.01477,0.0610352,0.0610352,0,0.001,0.003,-0.01,0,0,0,0,0,0,0,41.63,172.581,1792689
-0.0022583,-0.0186157,1.02118,-0.0610352,-0.244141,-0.12207,0.005,0.002,-0.01,0,0,0,0,0,0,0,41.63,172.599,1792704
-0.00579834,-0.0202026,1.00793,0,0,0,0.001,0,-0.01,0,0,0,0,0,0,0,41.63,172.62,1792734
-0.00738525,-0.0209961,1.00873,-0.0610352,-0.12207,0,0,0,-0.01,0,0,0,0,0,0,0,41.63,172.638,1792749
-0.00854492,-0.0206909,1.01263,-0.0610352,-0.0610352,0,-0.001,0,-0.01,0,0,0,0,0,0,0,41.63,172.659,1792764
-0.00708008,-0.0220947,1.00702,-0.0610352,-0.0610352,-0.0610352,0,-0.001,-0.01,0,0,0,0,0,0,0,41.63,172.678,1792779
-0.0065918,-0.024353,1.01184,-0.0610352,-0.12207,-0.12207,0,-0.003,-0.01,0,0,0,0,0,0,0,41.63,172.698,1792809
-0.00714111,-0.0236206,1.01019,-0.0610352,-0.183105,0.0610352,0,-0.002,-0.01,0,0,0,0,0,0,0,41.63,172.718,1792824
-0.0057373,-0.0231323,1.01562,-0.0610352,-0.12207,-0.12207,0.001,-0.002,-0.01,0,0,0,0,0,0,0,41.63,172.74,1792854
-0.00701904,-0.0202637,1.01404,-0.0610352,-0.0610352,0,0,0,-0.01,0,0,0,0,0,0,0,41.63,172.759,1792869
-0.00720215,-0.0185547,1.00934,-0.0610352,-0.0610352,0.0610352,0,0.002,-0.01,0,0,0,0,0,0,0,41.63,172.778,1792884
-0.00640869,-0.0223999,1.01288,-0.183105,-0.12207,0,0,-0.001,-0.01,0,0,0,0,0,0,0,41.63,172.799,1792914
-0.00640869,-0.0185547,1.01324,-0.183105,-0.0610352,0,0,0.002,-0.01,0,0,0,0,0,0,0,41.63,172.821,1792929
-0.00524902,-0.0244141,1.01093,-0.0610352,-0.0610352,-0.0610352,0.002,-0.003,-0.01,0,0,0,0,0,0,0,41.63,172.838,1792944
-0.00640869,-0.0181885,1.00952,0,0,0,0,0.002,-0.01,0,0,0,0,0,0,0,41.63,172.859,1792959
-0.00689697,-0.0234985,1.01123,0,-0.12207,0.12207,0,-0.002,-0.01,0,0,0,0,0,0,0,41.63,172.88,1792989
-0.00866699,-0.0237427,1.01367,0.0610352,-0.0610352,0,-0.001,-0.002,-0.01,0,0,0,0,0,0,0,41.63,172.898,1793004
-0.00946045,-0.0188599,1.01349,0,-0.0610352,0.12207,-0.002,0.002,-0.01,0,0,0,0,0,0,0,41.63,172.92,1793034
-0.0090332,-0.0236206,1.01392,0.0610352,0,0.0610352,-0.001,-0.002,-0.01,0,0,0,0,0,0,0,41.63,172.938,1793049
-0.00836182,-0.0216675,1.01324,-0.0610352,-0.12207,0,0,0,-0.02,0,0,0,0,0,0,0,41.63,172.959,1793064
-0.00744629,-0.0189209,1.01569,0,-0.0610352,-0.0610352,0,0.002,-0.02,0,0,0,0,0,0,0,41.63,172.979,1793094
-0.00634766,-0.0199585,1.00952,-0.0610352,-0.12207,-0.0610352,0.001,0,-0.02,0,0,0,0,0,0,0,41.63,172.999,1793109
-0.00714111,-0.0206299,1.01678,-0.0610352,-0.0610352,-0.0610352,0,0,-0.02,0,0,0,0,0,0,0,41.64,173.019,1793124
-0.00616455,-0.0216675,1.00983,-0.12207,-0.183105,-0.0610352,0.001,0,-0.02,0,0,0,0,0,0,0,41.64,173.041,1793154
-0.00585938,-0.0216675,1.01617,0,0,-0.12207,0.001,0,-0.02,0,0,0,0,0,0,0,41.64,173.06,1793169
-0.00366211,-0.0247803,1.01196,-0.244141,-0.12207,-0.12207,0.003,-0.003,-0.02,0,0,0,0,0,0,0,41.64,173.08,1793184
-0.00860596,-0.0222778,1.00775,-0.0610352,-0.0610352,0,-0.001,-0.001,-0.01,0,0,0,0,0,0,0,41.64,173.098,1793214
-0.00640869,-0.0184937,1.01459,-0.0610352,-0.0610352,-0.0610352,0.001,0.002,-0.01,0,0,0,0,0,0,0,41.64,173.118,1793229
-0.00964355,-0.019165,1.01727,-0.0610352,-0.12207,-0.0610352,-0.002,0.001,-0.01,0,0,0,0,0,0,0,41.64,173.138,1793244
-0.00634766,-0.0181885,1.01111,-0.0610352,-0.12207,0.0610352,0.001,0.002,-0.02,0,0,0,0,0,0,0,41.64,173.158,1793275
-0.00811768,-0.0214233,1.01385,0,0,0.12207,0,0,-0.02,0,0,0,0,0,0,0,41.64,173.178,1793289
-0.00689697,-0.0180664,1.00916,-0.12207,-0.0610352,-0.12207,0,0.002,-0.02,0,0,0,0,0,0,0,41.64,173.197,1793304
-0.010437,-0.0253906,1.00128,-0.12207,-0.0610352,0.0610352,-0.003,-0.004,-0.02,0,0,0,0,0,0,0,41.64,173.218,1793319
0.00653076,0.114014,1.00128,2.56348,-0.12207,-0.244141,0.013,0.133,-0.01,0,0.000137329,0,0,0,0,0,41.64,173.238,1793349
-0.0220337,-0.0133057,1.01514,4.39453,-0.0610352,-0.488281,-0.014,0.004,-0.01,0,0.000366211,0,0,0,0,0,41.64,173.258,1793364
0.0255737,0.0655518,1.04382,5.79834,-0.427246,0.12207,0.033,0.081,0,0,0.000656128,0,0,0,0,0,41.64,173.278,1793379
0.00524902,0.038208,0.986389,5.00488,-0.244141,0.793457,0.012,0.05,-0.01,7.62939e-05,0.00132751,0,0,0,0,0,41.64,173.3,1793409
-0.00268555,0.0188599,1.03357,4.02832,-0.12207,0.671387,0.004,0.029,-0.02,7.62939e-05,0.0017395,0,0,0,0,0,41.64,173.32,1793424
0.00213623,0.0349731,0.994324,1.83105,-0.183105,-0.671387,0.009,0.043,-0.02,7.62939e-05,0.00262451,0,0,0,0,0,41.64,173.339,1793455
-0.0114136,0.00744629,1.00818,1.0376,0,-1.70898,-0.004,0.015,0,7.62939e-05,0.00312805,0,0,0,0,0,41.64,173.358,1793469
-0.0186768,0.0236816,1.02606,0.244141,-0.244141,-1.77002,-0.011,0.031,0.02,7.62939e-05,0.00366211,0,0,0,0,0,41.64,173.378,1793484
-0.0160522,0.0132446,0.980591,-1.77002,-0.305176,-2.86865,-0.008,0.02,0.09,7.62939e-05,0.00485229,0,0,0,0,0,41.64,173.399,1793515
-0.00408936,0.0859375,1.01288,-1.46484,-0.427246,-2.19727,0.003,0.093,0.12,7.62939e-05,0.00553894,0,0,0,0,0,41.64,173.419,1793529
0.00775146,0.0928345,1.0307,1.89209,-0.244141,-1.46484,0.015,0.098,0.15,7.62939e-05,0.00636292,0,0,0,0,0,41.64,173.438,1793544
0.00341797,0.0250854,1.04419,5.06592,-0.183105,-0.732422,0.01,0.029,0.17,7.62939e-05,0.00726318,0,0,0,0,0,41.64,173.458,1793559
0.00231934,-0.0127563,1.01874,4.27246,0.244141,0.549316,0.009,-0.011,0.15,7.62939e-05,0.00819397,0,0,0,0,0,41.64,173.478,1793589
-0.00689697,-0.0515137,1.00635,1.28174,0.366211,0.610352,0,-0.051,0.14,7.62939e-05,0.00814819,0,0,0,0,0,41.64,173.5,1793604
0.00378418,-0.00970459,0.980652,-1.52588,0.0610352,1.46484,0.01,-0.008,0.13,7.62939e-05,0.0080719,0,0,0,0,0,41.64,173.518,1793619
-0.0098877,-0.0119019,1.05273,-3.96728,0.732422,0.305176,-0.002,-0.009,0.1,7.62939e-05,0.00796509,0,0,0,0,0,41.66,173.542,1793649
-0.0153198,0.0427246,0.985107,-4.39453,0.12207,-1.28174,-0.007,0.046,0.1,7.62939e-05,0.00796509,0,0,0,0,0,41.66,173.568,1793679
-0.00750732,0.170593,0.982117,-0.488281,-0.366211,-1.15967,0,0.174,0.13,7.62939e-05,0.00814819,0,0,0,0,0,41.66,173.579,1793695
-0.0151367,0.0220947,1.04242,2.50244,-0.244141,-0.854492,-0.007,0.024,0.13,7.62939e-05,0.00846863,0,0,0,0,0,41.66,173.599,1793709
-0.0367432,0.0267334,1.03125,4.39453,-0.366211,-1.70898,-0.028,0.027,0.16,6.10352e-05,0.00881958,0,0,0,0,0,41.66,173.618,1793724
-0.0119629,-0.0435181,0.961365,0.671387,-0.305176,-2.44141,-0.005,-0.044,0.21,-1.52588e-05,0.00946045,0,0,0,0,0,41.66,173.64,1793755
-0.000244141,0.00524902,0.976929,-2.19727,-0.488281,-3.35693,0.006,0.004,0.25,-1.52588e-05,0.00971985,0,0,0,0,0,41.66,173.658,1793769
-0.0055542,-0.00836182,1.05969,-4.27246,0.305176,-3.66211,0.002,-0.008,0.31,-1.52588e-05,0.00999451,0,0,0,0,0,41.66,173.678,1793785
-0.0236206,-0.00189209,0.955994,-7.08008,-0.0610352,-2.74658,-0.017,0.001,0.4,6.10352e-05,0.0104675,0,0,0,0,0,41.66,173.698,1793815
-0.0148926,0.0270996,0.958313,-7.87353,0.976562,-1.70898,-0.008,0.032,0.43,0.000106812,0.0107117,0,0,0,0,0,41.66,173.719,1793830
-0.0115356,0.0232544,1.10022,-8.11768,1.77002,-1.64795,-0.002,0.031,0.45,0.000106812,0.0110168,0,0,0,0,0,41.66,173.739,1793845
-0.00653076,-0.0565796,1.13348,-7.01904,0.610352,-0.732422,0.001,-0.046,0.47,0.000106812,0.0113068,0,0,0,0,0,41.66,173.759,1793860
-0.03479,-0.0421753,0.932129,-3.17383,-0.0610352,1.15967,-0.027,-0.03,0.45,0,0.0113831,0,0,0,0,0,41.66,173.784,1793890
0.0175781,0.0994873,0.950317,-0.732422,-1.0376,0.549316,0.026,0.111,0.44,-6.10352e-05,0.0114136,0,0,0,0,0,41.66,173.799,1793905
0.00170898,0.0304565,0.957214,2.92969,-1.28174,0.183105,0.009,0.041,0.43,-0.00012207,0.0115356,0,0,0,0,0,41.66,173.818,1793920
0.00891113,-0.0275269,0.971497,1.40381,-1.58691,-1.95312,0.016,-0.016,0.47,-0.000167847,0.0116425,0,0,0,0,0,41.66,173.842,1793950
0.0402222,0.0131836,1.08313,0,-0.427246,-1.2207,0.048,0.025,0.49,-0.00012207,0.011673,0,0,0,0,0,41.66,173.859,1793965
0.0195312,-0.0491943,0.925781,-2.50244,-1.2207,-2.0752,0.025,-0.037,0.55,4.57764e-05,0.0115662,0,0,0,0,0,41.66,173.879,1793995
0.00457764,-0.0316162,1.06415,-0.854492,-0.366211,-1.83105,0.011,-0.017,0.58,0.000183105,0.0114441,0,0,0,0,0,41.66,173.899,1794010
0.0408936,-0.0647583,1.00916,0.183105,0.0610352,-0.793457,0.046,-0.051,0.6,0.000366211,0.0112762,0,0,0,0,0,41.66,173.919,1794025
0.0249023,-0.0946045,1.07599,1.2207,-0.366211,0.854492,0.03,-0.08,0.58,0.000762939,0.0106659,0,0,0,0,0,41.66,173.946,1794055
-0.0706177,0.103088,0.963318,1.77002,1.28174,0.305176,-0.063,0.116,0.58,0.000946045,0.0103455,0,0,0,0,0,41.66,173.961,1794070
-0.0194702,-0.0446777,0.996277,1.64795,-0.0610352,-0.12207,-0.013,-0.031,0.57,0.00108337,0.0100861,0,0,0,0,0,41.66,173.982,1794085
-0.00311279,-0.00695801,0.952026,0.12207,-0.12207,-0.488281,0.003,0.005,0.58,0.00108337,0.00979614,0,0,0,0,0,41.66,173.998,1794100
-0.0982056,-0.179443,1.12402,0.549316,2.38037,-0.366211,-0.092,-0.163,0.6,0.000961304,0.00915527,0,0,0,0,0,41.66,174.018,1794130
-0.097229,-0.188416,1.09271,2.13623,2.56348,-0.549316,-0.091,-0.173,0.6,0.000717163,0.00854492,0,0,0,0,0,41.66,174.039,1794145
0.00805664,0.0687866,1.05322,1.2207,-2.38037,-1.28174,0.015,0.082,0.64,0.000228882,0.00694275,0,0,0,0,0,41.66,174.059,1794175
0.0650635,-0.242615,0.997009,-1.28174,-1.70898,-1.09863,0.068,-0.23,0.69,-0.000595093,0.00498962,0,0,0,0,0,41.66,174.113,1794220
0.0194092,0.164551,1.04541,-1.28174,0.305176,-0.915527,0.027,0.178,0.7,-0.000793457,0.00428772,0,0,0,0,0,41.66,174.122,1794235
-0.00134277,0.151855,0.970947,-1.46484,-1.40381,-0.366211,0.006,0.165,0.7,-0.000976562,0.00382996,0,0,0,0,0,41.66,174.139,1794250
0.0182495,-0.0288086,0.974976,-0.671387,0.183105,-1.09863,0.023,-0.015,0.72,-0.00114441,0.00346375,0,0,0,0,0,41.66,174.16,1794265
-0.00500488,0.0492554,1.0423,0.183105,-0.732422,-1.09863,0.001,0.064,0.74,-0.00149536,0.00256348,0,0,0,0,0,41.66,174.186,1794295
0.0278931,0.0776978,0.963623,0.244141,-0.366211,-0.488281,0.034,0.09,0.76,-0.00166321,0.00221252,0,0,0,0,0,41.66,174.199,1794310
0.00140381,-0.127991,0.858704,0.183105,-1.40381,0.0610352,0.004,-0.116,0.76,-0.0018158,0.00213623,0,0,0,0,0,41.66,174.23,1794340
0.043457,0.0088501,1.03387,-4.5166,-0.671387,0,0.049,0.021,0.79,-0.00198364,0.00154114,0,0,0,0,0,41.66,174.266,1794370
0.130005,0.194031,0.893127,-2.44141,-3.35693,-0.366211,0.137,0.205,0.8,-0.00193787,0.00131226,0,0,0,0,0,41.66,174.278,1794385
-0.00946045,-0.177917,1.08069,-0.488281,-0.793457,1.46484,-0.006,-0.161,0.78,-0.00180054,0.00112915,0,0,0,0,0,41.66,174.299,1794400
0.0610962,-0.0390625,1.02612,-1.28174,-0.305176,1.52588,0.066,-0.024,0.75,-0.00177002,0.000335693,0,0,0,0,0,41.66,174.32,1794430
0.0275879,0.111572,0.911377,0.915527,-1.34277,1.64795,0.033,0.125,0.73,-0.00172424,0,0,0,0,0,0,41.66,174.338,1794445
0.00506592,-0.0828247,1.01697,1.28174,-0.427246,0.976562,0.009,-0.067,0.7,-0.00163269,-0.000335693,0,0,0,0,0,41.66,174.358,1794460
0.0478516,-0.0357056,0.982605,-0.488281,-0.732422,0.0610352,0.052,-0.021,0.69,-0.0014801,-0.00106812,0,0,0,0,0,41.66,174.383,1794490
-0.0461426,-0.052002,0.980408,0,0.12207,-0.610352,-0.041,-0.036,0.7,-0.00138855,-0.0014801,0,0,0,0,0,41.66,174.398,1794505
0.00921631,0.0802002,1.01575,-1.52588,-0.915527,-1.40381,0.015,0.096,0.73,-0.00123596,-0.00222778,0,0,0,0,0,41.66,174.426,1794535
-0.00805664,0.00128174,0.97052,1.2207,-0.12207,-1.34277,-0.002,0.016,0.75,-0.00123596,-0.00247192,0,0,0,0,0,41.66,174.438,1794550
-0.00634766,-0.0147705,1.01984,0.610352,-0.610352,-0.671387,0,0.001,0.76,-0.00123596,-0.00247192,0,0,0,0,0,41.66,174.46,1794565
-0.0675049,0.0289307,0.980652,-0.244141,1.95312,-0.854492,-0.061,0.045,0.78,-0.00135803,-0.00260925,0,0,0,0,0,41.66,174.48,1794595
0.00866699,0.0431519,0.990967,1.52588,0.0610352,-4.15039,0.014,0.058,0.82,-0.0014801,-0.00262451,0,0,0,0,0,41.66,174.498,1794610
-0.00836182,-0.23053,1.09637,-0.610352,0.732422,-5.18799,-0.006,-0.213,0.88,-0.0014801,-0.00274658,0,0,0,0,0,41.66,174.518,1794625
0.0169678,0.0268555,0.995667,-1.95312,0.183105,-7.50732,0.022,0.043,0.99,-0.00146484,-0.00297546,0,0,0,0,0,41.66,174.538,1794640
0.0692139,-0.0210571,0.99469,0.244141,0.305176,-7.50732,0.074,-0.006,1.21,-0.00149536,-0.00331116,0,0,0,0,0,41.63,174.562,1794670
0.0413208,0.0502319,0.943176,0.732422,-0.854492,-9.21631,0.047,0.064,1.34,-0.00141907,-0.00343323,0,0,0,0,0,41.63,174.58,1794685
-0.116821,0.0465698,0.975525,-0.366211,0.854492,-11.4136,-0.109,0.065,1.5,-0.00138855,-0.00344849,0,0,0,0,0,41.63,174.599,1794700
0.0560303,-0.0518188,1.01929,0,0.671387,-12.2681,0.06,-0.037,1.86,-0.00140381,-0.00358582,0,0,0,0,0,41.63,174.619,1794730
-0.0236816,-0.0291138,1.02588,-0.244141,1.40381,-13.3667,-0.018,-0.011,2.07,-0.00135803,-0.0037384,0,0,0,0,0,41.63,174.64,1794745
-0.0289307,-0.0359497,1.01343,-0.732422,1.09863,-12.8174,-0.023,-0.017,2.26,-0.00134277,-0.0037384,0,0,0,0,0,41.63,174.661,1794760
-0.00927734,0.109802,1.00439,-0.244141,0.671387,-11.4136,0.002,0.127,2.64,-0.0012207,-0.00386047,0,0,0,0,0,41.63,174.678,1794790
-0.00946045,0.0560913,0.948669,0.671387,0.244141,-12.2681,0,0.072,2.82,-0.0012207,-0.00376892,0,0,0,0,0,41.63,174.698,1794805
-0.0200806,-0.0336304,1.01044,0.854492,0.366211,-11.7798,-0.014,-0.015,3,-0.0012207,-0.00363159,0,0,0,0,0,41.63,174.718,1794820
-0.00189209,-0.0505371,0.967834,-0.549316,1.46484,-13.4888,0.002,-0.034,3.37,-0.00144958,-0.0038147,0,0,0,0,0,41.63,174.739,1794850
-0.0393066,0.0925903,0.957336,0.0610352,1.34277,-14.9536,-0.025,0.111,3.59,-0.00161743,-0.00392151,0,0,0,0,0,41.63,174.758,1794865
-0.0402222,-0.0404663,1.01666,-1.15967,1.64795,-14.5874,-0.035,-0.02,4.02,-0.00172424,-0.00402832,0,0,0,0,0,41.63,174.784,1794896
-0.00750732,0.000793457,0.981812,-0.305176,-0.0610352,-13.7939,0,0.018,4.22,-0.00177002,-0.00408936,0,0,0,0,0,41.63,174.8,1794910
0.0153809,-0.0287476,0.973328,0.12207,1.52588,-13.0615,0.021,-0.013,4.42,-0.00180054,-0.00415039,0,0,0,0,0,41.63,174.818,1794925
-0.0252075,-0.00421143,1.00739,1.0376,1.34277,-13.1226,-0.017,0.015,4.62,-0.00183105,-0.00415039,0,0,0,0,0,41.63,174.838,1794940
-0.181152,-0.220886,0.958252,2.38037,4.88281,-11.7798,-0.191,-0.188,5,-0.00230408,-0.00463867,0,0,0,0,0,41.63,174.859,1794970
0.0483398,-0.209534,1.09027,0.244141,1.89209,-12.8784,0.038,-0.194,5.19,-0.00274658,-0.00527954,0,0,0,0,0,41.63,174.879,1794985
-0.0521851,0.108032,1.09039,-0.915527,1.09863,-14.3433,-0.031,0.131,5.41,-0.00318909,-0.00595093,0,0,0,0,0,41.63,174.898,1795000
0.0332031,-0.076416,0.964294,-0.610352,0.671387,-16.1743,0.034,-0.062,5.85,-0.00408936,-0.00714111,0,0,0,0,0,41.63,174.919,1795030
-0.122986,0.0123901,1.02411,-1.83105,1.0376,-16.2964,-0.11,0.044,6.09,-0.00457764,-0.00775146,0,0,0,0,0,41.63,174.938,1795045
0.00183105,0.010376,1.04932,0.0610352,0.427246,-16.3574,0.014,0.029,6.34,-0.00514221,-0.00831604,0,0,0,0,0,41.63,174.958,1795060
-0.0192871,-0.0877075,1.01678,1.34277,-0.244141,-15.9302,-0.019,-0.067,6.83,-0.00613403,-0.00959778,0,0,0,0,0,41.63,174.978,1795090
0.0476074,-0.160095,1.02905,0.793457,-0.244141,-14.4043,0.037,-0.147,7.27,-0.00718689,-0.0108948,0,0,0,0,0,41.63,175.008,1795121
-0.0247192,-0.159668,1.02722,-1.15967,1.83105,-15.4419,-0.035,-0.137,7.5,-0.00770569,-0.0117493,0,0,0,0,0,41.63,175.023,1795136
-0.0623169,0.053894,1.1153,-0.854492,1.83105,-14.9536,-0.042,0.081,7.72,-0.00827026,-0.0126343,0,0,0,0,0,41.63,175.039,1795151
0.124756,-0.0938721,1.02692,-2.19727,0.488281,-13.0615,0.121,-0.091,7.93,-0.00878906,-0.0135345,0,0,0,0,0,41.63,175.061,1795166
0.0246582,-0.0894165,0.955322,-2.01416,0.732422,-11.1694,0.021,-0.074,8.11,-0.00921631,-0.0145416,0,0,0,0,0,41.63,175.079,1795181
-0.0375366,0.00976562,0.986328,-0.305176,1.58691,-10.1929,-0.023,0.033,8.46,-0.0102692,-0.01651,0,0,0,0,0,41.63,175.099,1795211
0.0805054,0.0932617,0.948547,2.19727,0.610352,-11.1694,0.104,0.097,8.62,-0.010788,-0.0173645,0,0,0,0,0,41.63,175.119,1795226
-0.101685,0.0532227,0.956238,-0.854492,-0.305176,-13.7939,-0.08,0.086,9.02,-0.0118561,-0.0189972,0,0,0,0,0,41.63,175.141,1795256
0.0245361,-0.0349121,0.964233,-1.0376,0.244141,-14.0381,0.03,-0.019,9.23,-0.0124817,-0.0197601,0,0,0,0,0,41.63,175.162,1795271
-0.055603,0.197876,0.980652,3.05176,0.0610352,-17.2119,-0.009,0.221,9.71,-0.0135498,-0.0209503,0,0,0,0,0,41.63,175.187,1795301
-0.055603,0.197876,0.980652,3.05176,0.0610352,-17.2119,-0.009,0.221,9.71,-0.0135498,-0.0209503,0,0,0,0,0,41.63,175.198,1795301
-0.0204468,0.0115967,1.01703,5.61523,0.427246,-18.7378,-0.007,0.029,10.24,-0.0143433,-0.0216064,0,0,0,0,0,41.63,175.219,1795331
-0.00671387,-0.0891113,0.983398,2.99072,0.610352,-19.4092,-0.012,-0.073,10.53,-0.0147095,-0.0219574,0,0,0,0,0,41.63,175.238,1795346
0.0991211,0.015686,1.04401,1.2207,-0.12207,-20.3857,0.11,0.009,10.83,-0.0149994,-0.0223541,0,0,0,0,0,41.63,175.259,1795361
-0.0100098,-0.0115356,0.937012,-3.78418,-0.305176,-21.9727,-0.001,0.003,11.49,-0.0156403,-0.0223541,0,0,0,0,0,41.63,175.28,1795391
-0.0285645,-0.0187378,1.01849,-3.72314,0.12207,-20.0195,-0.02,0.002,12.11,-0.0162201,-0.0222321,0,0,0,0,0,41.63,175.314,1795421
0.00787354,0.177551,1.01215,0.0610352,-1.46484,-18.1885,0.057,0.186,12.4,-0.0164642,-0.0220032,0,0,0,0,0,41.63,175.326,1795436
-0.03125,0.0862427,0.956116,3.479,1.46484,-17.5781,-0.001,0.102,12.66,-0.0166779,-0.0215912,0,0,0,0,0,41.63,175.339,1795451
-0.00262451,-0.0202637,0.911377,-0.732422,-0.549316,-17.0898,0.001,-0.01,13.41,-0.0171356,-0.0202942,0,0,0,0,0,41.63,175.382,1795496
0.0318604,-0.0327148,1.06696,-2.0752,0.671387,-16.0522,0.033,-0.028,13.66,-0.0172577,-0.0198975,0,0,0,0,0,41.63,175.399,1795511
0.00427246,-0.0130615,0.993591,-6.04248,0.976562,-16.4795,0.01,-0.002,13.89,-0.0173645,-0.0195312,0,0,0,0,0,41.63,175.418,1795526
-0.0172729,0.0147705,1.07349,-7.32422,0.915527,-17.395,-0.001,0.032,14.15,-0.0174561,-0.0191498,0,0,0,0,0,41.63,175.438,1795541
0.0762939,0.0940552,1.0705,-6.34766,-1.2207,-14.5264,0.109,0.089,14.62,-0.0174866,-0.018219,0,0,0,0,0,41.63,175.458,1795571
-0.129211,0.106201,0.877014,-1.77002,1.2207,-12.6953,-0.087,0.15,14.83,-0.0174255,-0.0175476,0,0,0,0,0,41.63,175.48,1795586
0.0233765,0.122498,0.900879,3.72314,0.366211,-9.94873,0.064,0.126,14.98,-0.017395,-0.0166931,0,0,0,0,0,41.63,175.498,1795601
0.0155029,0.0184326,1.13702,6.71387,-1.46484,-11.3525,0.032,0.026,15.33,-0.0171967,-0.0146027,0,0,0,0,0,41.63,175.521,1795631
-0.0148926,-0.0810547,0.924316,0.671387,-0.0610352,-11.8408,-0.026,-0.063,15.5,-0.0170898,-0.0135498,0,0,0,0,0,41.63,175.538,1795646
0.0289307,-0.0241699,0.914612,-1.34277,0.488281,-13.6108,0.031,-0.02,15.69,-0.016983,-0.012558,0,0,0,0,0,41.63,175.56,1795661
0.0270996,-0.0109253,1.06195,-6.5918,1.58691,-15.5029,0.035,-0.003,16.12,-0.0167542,-0.0106964,0,0,0,0,0,41.64,175.578,1795691
0.213562,0.226379,0.912476,-8.48389,-2.68555,-14.2212,0.28,0.171,16.34,-0.0164185,-0.00967407,0,0,0,0,0,41.64,175.598,1795706
-0.00976562,-0.0690918,0.982971,2.92969,3.35693,-11.8408,-0.016,-0.048,16.74,-0.0155029,-0.00741577,0,0,0,0,0,41.64,175.624,1795736
0.128357,-0.0301514,1.22705,5.61523,-1.89209,-10.0708,0.13,-0.049,16.88,-0.0149994,-0.00637817,0,0,0,0,0,41.64,175.638,1795751
-0.0865479,-0.199646,1.00897,5.85937,3.05176,-11.5967,-0.128,-0.153,17.05,-0.0144958,-0.00546265,0,0,0,0,0,41.64,175.658,1795766
-0.0960693,-0.0760498,1.01282,2.50244,2.68555,-12.5732,-0.101,-0.032,17.24,-0.0141296,-0.00468445,0,0,0,0,0,41.64,175.678,1795781
-0.0584717,0.031189,0.973328,-0.0610352,2.0752,-17.6392,-0.033,0.057,17.68,-0.0132446,-0.00300598,0,0,0,0,0,41.64,175.698,1795811
0.00964355,0.0142822,1.07947,-0.12207,1.52588,-15.9302,0.028,0.021,17.93,-0.0127563,-0.0020752,0,0,0,0,0,41.64,175.719,1795826
0.086853,-0.0285645,1.00958,-1.95312,0.244141,-16.6626,0.087,-0.043,18.17,-0.0121918,-0.00115967,0,0,0,0,0,41.64,175.738,1795841
0.285583,0.0528564,1.04303,-3.60107,-1.58691,-14.8926,0.302,-0.03,18.68,-0.0109253,0.000442505,0,0,0,0,0,41.64,175.758,1795871
0.0437622,-0.088623,1.11133,-0.305176,5.00488,-15.3809,0.028,-0.086,18.93,-0.00999451,0.00112915,0,0,0,0,0,41.64,175.779,1795886
0.000671387,0.0499268,0.974121,1.77002,2.50244,-12.8174,0.031,0.056,19.13,-0.00901794,0.0018158,0,0,0,0,0,41.64,175.798,1795901
-0.00775146,-0.0286255,1.08002,1.83105,1.15967,-11.4136,-0.001,-0.014,19.49,-0.00709534,0.00314331,0,0,0,0,0,41.64,175.818,1795931
0.0621338,-0.0735474,1.06195,-0.12207,-0.549316,-11.4136,0.05,-0.08,19.66,-0.00610352,0.0037384,0,0,0,0,0,41.64,175.839,1795946
-0.0144653,-0.0407715,0.9729,-0.366211,1.40381,-12.8174,-0.012,-0.024,19.85,-0.00508118,0.00424194,0,0,0,0,0,41.64,175.858,1795961
-0.00793457,-0.128784,1.02618,0.488281,0.549316,-12.146,-0.035,-0.108,20.23,-0.00308228,0.00491333,0,0,0,0,0,41.64,175.878,1795991
0.0117188,-0.0108032,1.04877,3.78418,1.58691,-11.4746,0.024,-0.004,20.41,-0.00210571,0.00509644,0,0,0,0,0,41.64,175.898,1796006
-0.0130005,-0.0351562,0.960876,1.34277,1.15967,-11.5967,-0.008,-0.019,20.58,-0.00111389,0.00509644,0,0,0,0,0,41.64,175.919,1796021
-0.065918,0.0292358,0.96582,2.56348,1.89209,-14.8315,-0.036,0.058,20.96,0.000762939,0.00520325,0,0,0,0,0,41.64,175.938,1796051
-0.0736084,-0.141846,0.980591,1.77002,0.732422,-13.6719,-0.104,-0.098,21.17,0.00160217,0.00526428,0,0,0,0,0,41.64,175.965,1796066
0.112549,0.00189209,1.05261,0.183105,-0.976562,-13.7329,0.121,-0.032,21.58,0.00320435,0.00526428,0,0,0,0,0,41.64,175.984,1796097
-0.0562744,0.0723267,0.976624,1.09863,-0.732422,-16.4185,-0.01,0.095,21.82,0.00411987,0.00531006,0,0,0,0,0,41.64,175.998,1796111
-0.0233154,0.0488281,1.03278,0.976562,0.854492,-14.5264,0.012,0.061,22.04,0.0050354,0.00546265,0,0,0,0,0,41.64,176.018,1796126
0.0032959,-0.0908813,1.03027,-0.488281,-0.671387,-15.0757,-0.015,-0.078,22.27,0.0050354,0.00559998,0,0,0,0,0,41.64,176.038,1796141
0.0360718,-0.10144,1.10693,2.92969,0.0610352,-13.3667,0.01,-0.1,22.7,0.00511169,0.00576782,0,0,0,0,0,41.64,176.058,1796171
-0.0982666,-0.116943,1.04779,0.244141,1.95312,-13.916,-0.12,-0.062,22.91,0.00509644,0.00570679,0,0,0,0,0,41.64,176.078,1796186
-0.0045166,-0.0352783,1.06641,-0.488281,1.83105,-14.1602,-0.001,-0.022,23.35,0.00485229,0.00546265,0,0,0,0,0,41.64,176.1,1796217
-0.0406494,-0.140686,1.04126,0.305176,1.95312,-14.2212,-0.077,-0.104,23.56,0.00466919,0.00523376,0,0,0,0,0,41.64,176.118,1796231
0.0338135,-0.0603638,0.958801,1.28174,0.488281,-12.5122,0.022,-0.062,23.76,0.00444031,0.00489807,0,0,0,0,0,41.64,176.139,1796246
0.065979,-0.134155,1.1203,0.183105,-0.427246,-12.5732,0.023,-0.141,23.96,0.00424194,0.00440979,0,0,0,0,0,41.64,176.16,1796261
-0.0110474,-0.120422,1.03839,-1.64795,2.62451,-12.146,-0.043,-0.098,24.32,0.00379944,0.00283813,0,0,0,0,0,41.64,176.181,1796291
-0.039917,0.0150146,1.01422,1.28174,0.976562,-13.4277,-0.013,0.037,24.53,0.00350952,0.00190735,0,0,0,0,0,41.64,176.199,1796306
0.00592041,-0.057251,0.973083,-2.74658,1.0376,-13.6108,-0.002,-0.046,24.73,0.00320435,0.000976562,0,0,0,0,0,41.64,176.221,1796321
-0.0184326,0.0652466,0.908447,-2.31934,4.02832,-12.5122,0.026,0.075,25.12,0.00233459,-0.0012207,0,0,0,0,0,41.64,176.238,1796351
0.0154419,0.0248413,0.963989,0,2.01416,-13.7939,0.041,0.023,25.33,0.00190735,-0.00228882,0,0,0,0,0,41.64,176.258,1796366
0.000671387,0.0498657,0.999695,1.15967,1.52588,-13.6719,0.039,0.052,25.53,0.00154114,-0.00331116,0,0,0,0,0,41.64,176.278,1796381
-0.0819702,0.137939,0.873535,-0.976562,2.0752,-14.8315,0.002,0.167,25.94,0.00120544,-0.00520325,0,0,0,0,0,41.64,176.3,1796411
-0.00909424,0.0197754,1.00415,-0.976562,1.58691,-14.3433,0.019,0.03,26.16,0.00120544,-0.00596619,0,0,0,0,0,41.64,176.32,1796426
-0.0727539,-0.0426636,1.00818,-1.64795,2.38037,-15.3198,-0.065,0.002,26.38,0.00117493,-0.00671387,0,0,0,0,0,41.64,176.339,1796441
-0.00579834,-0.205444,1.06696,0.0610352,2.2583,-11.5967,-0.076,-0.171,26.79,0.00102234,-0.00683594,0,0,0,0,0,41.64,176.359,1796472
-0.0496216,-0.140503,1.14648,-0.183105,2.01416,-11.6577,-0.085,-0.092,26.97,0.000808716,-0.00714111,0,0,0,0,0,41.64,176.378,1796487
-0.00195312,-0.0275269,0.967285,1.28174,0,-13.1226,0.005,-0.014,27.15,0.000549316,-0.00752258,0,0,0,0,0,41.64,176.399,1796502
-0.158508,-0.185791,1.11804,0.854492,4.08936,-13.977,-0.203,-0.08,27.55,-0.000152588,-0.00868225,0,0,0,0,0,41.64,176.42,1796532
0.125122,0.0504761,1.08588,0.488281,0,-12.085,0.157,-0.003,27.75,-0.000610352,-0.00939941,0,0,0,0,0,41.64,176.439,1796547
-0.129944,-0.143494,1.09595,3.96728,3.479,-13.1836,-0.159,-0.056,27.95,-0.00106812,-0.0101471,0,0,0,0,0,41.64,176.459,1796562
-0.139526,-0.272583,1.08636,-0.366211,3.479,-14.5264,-0.228,-0.164,28.38,-0.00256348,-0.0122681,0,0,0,0,0,41.64,176.48,1796592
-0.00634766,0.137756,1.06409,2.62451,1.89209,-13.7939,0.083,0.133,28.59,-0.00352478,-0.0134735,0,0,0,0,0,41.64,176.499,1796607
-0.0791016,0.0813599,0.940735,0.793457,1.89209,-13.1226,-0.009,0.117,29,-0.00527954,-0.0152893,0,0,0,0,0,41.64,176.53,1796637
-0.00354004,-0.0656128,1.03717,1.46484,1.15967,-13.2446,-0.012,-0.047,29.2,-0.00616455,-0.0160675,0,0,0,0,0,41.64,176.543,1796652
-0.123413,-0.0696411,1.07318,2.2583,1.83105,-13.977,-0.118,0.008,29.63,-0.00624084,-0.0177155,0,0,0,0,0,41.64,176.566,1796682
0.0144043,-0.0440063,1.03003,2.74658,2.19727,-13.855,0.013,-0.038,29.84,-0.00640869,-0.0185699,0,0,0,0,0,41.65,176.587,1796697
0.104431,0.216064,1.11798,3.479,-2.2583,-13.916,0.223,0.141,30.27,-0.00671387,-0.0200958,0,0,0,0,0,41.65,176.622,1796727
-0.0181885,0.00012207,0.9198,0.366211,1.95312,-13.4277,0.004,0.015,30.7,-0.00683594,-0.0213776,0,0,0,0,0,41.65,176.646,1796757
0.0465698,0.156006,0.952576,1.40381,-1.46484,-15.7471,0.14,0.115,30.92,-0.0068512,-0.0219269,0,0,0,0,0,41.65,176.66,1796772
-0.0397949,0.0184326,1.0022,1.40381,0.244141,-14.1602,-0.003,0.041,31.14,-0.00675964,-0.0223846,0,0,0,0,0,41.65,176.678,1796787
0.00396729,0.0429077,1.03418,0.549316,0.488281,-14.4653,0.047,0.04,31.36,-0.00663757,-0.0227814,0,0,0,0,0,41.65,176.698,1796802
-0.0231934,-0.0130005,1.0177,1.09863,1.52588,-14.3433,-0.005,0.006,31.78,-0.00646973,-0.0239105,0,0,0,0,0,41.65,176.72,1796832
-0.0369263,-0.0760498,0.990417,1.77002,1.15967,-13.916,-0.051,-0.04,32.18,-0.00648499,-0.0254822,0,0,0,0,0,41.65,176.752,1796862
-0.0369263,-0.0760498,0.990417,1.77002,1.15967,-13.916,-0.051,-0.04,32.18,-0.00648499,-0.0254822,0,0,0,0,0,41.65,176.762,1796862
-0.0202026,0.0167847,1.05566,0,1.15967,-14.5264,0.014,0.029,32.59,-0.00654602,-0.0274353,0,0,0,0,0,41.65,176.779,1796892
-0.0360718,-0.0637817,0.987122,-0.12207,1.40381,-15.3198,-0.044,-0.03,32.81,-0.00657654,-0.0284271,0,0,0,0,0,41.65,176.798,1796907
-0.029541,-0.0395508,0.999512,-0.610352,1.09863,-16.7847,-0.025,-0.013,33.06,-0.00663757,-0.0294647,0,0,0,0,0,41.65,176.818,1796923
-0.112366,-0.0515137,0.981384,0.976562,2.68555,-14.9536,-0.101,0.022,33.51,-0.00717163,-0.0319214,0,0,0,0,0,41.65,176.838,1796952
-0.00543213,-0.0946045,0.964478,1.89209,0.427246,-14.5264,-0.037,-0.072,33.73,-0.00761414,-0.0332336,0,0,0,0,0,41.65,176.858,1796967
-0.0935669,-0.0717773,1.07458,3.23486,0.793457,-15.8081,-0.095,-0.004,33.97,-0.00813293,-0.0346069,0,0,0,0,0,41.65,176.878,1796982
-0.0944824,-0.143311,1.0553,-0.488281,1.83105,-17.395,-0.137,-0.061,34.44,-0.00942993,-0.0375366,0,0,0,0,0,41.65,176.902,1797012
-0.0045166,-0.135559,1.04083,-0.671387,1.95312,-16.4185,-0.06,-0.106,34.69,-0.0102539,-0.0391693,0,0,0,0,0,41.65,176.921,1797027
0.0289307,0.000671387,1.13373,1.58691,-0.549316,-17.5171,0.047,-0.012,34.95,-0.0110931,-0.0408783,0,0,0,0,0,41.65,176.939,1797042
-0.0911255,0.0664673,0.944031,0.549316,1.34277,-17.2729,-0.016,0.11,35.47,-0.0126343,-0.0444183,0,0,0,0,0,41.65,176.958,1797072
0.0322876,-0.0223999,1.03839,1.2207,-0.732422,-15.7471,0.034,-0.033,35.71,-0.013382,-0.0461426,0,0,0,0,0,41.65,176.986,1797087
-0.13385,-0.173828,1.09283,2.74658,2.01416,-15.4419,-0.189,-0.059,35.95,-0.0142365,-0.0479126,0,0,0,0,0,41.65,177.001,1797102
-0.0300903,0.098877,0.872864,-1.34277,-1.64795,-15.5029,0.051,0.099,36.42,-0.0159912,-0.051712,0,0,0,0,0,41.65,177.021,1797132
0.0114136,0.17688,0.927246,-0.366211,-1.77002,-14.4043,0.132,0.137,36.63,-0.0166931,-0.0534515,0,0,0,0,0,41.65,177.04,1797147
-0.0184937,0.0586548,0.971008,0.183105,-0.427246,-15.8691,0.039,0.06,36.86,-0.0172729,-0.055069,0,0,0,0,0,41.65,177.058,1797162
0.0110474,-0.0408936,0.978943,2.01416,0.305176,-14.7095,0.002,-0.037,37.31,-0.0185547,-0.0584412,0,0,0,0,0,41.65,177.079,1797192
0.0179443,-0.102661,0.949768,-0.305176,-0.793457,-15.686,-0.03,-0.09,37.54,-0.0192413,-0.060257,0,0,0,0,0,41.64,177.098,1797207
-0.0263672,-0.0635986,0.962219,1.40381,0.671387,-16.8457,-0.042,-0.031,38.02,-0.0206909,-0.0638275,0,0,0,0,0,41.64,177.123,1797237
-0.0825806,-0.0263062,0.969849,0,0.671387,-17.395,-0.063,0.032,38.28,-0.0214996,-0.0655823,0,0,0,0,0,41.64,177.138,1797252
0.057251,-0.0899048,1.08099,1.52588,-0.305176,-16.5405,0.007,-0.103,38.53,-0.0223541,-0.0673828,0,0,0,0,0,41.64,177.158,1797267
0.0286865,-0.166504,1.00458,0.488281,-0.427246,-15.686,-0.064,-0.146,38.77,-0.0232391,-0.0693512,0,0,0,0,0,41.64,177.179,1797282
0.0756226,0.0758057,1.04352,2.0752,-1.09863,-15.2588,0.124,0.012,39.26,-0.024826,-0.0714417,0,0,0,0,0,41.64,177.198,1797312
-0.02771,-0.144531,0.996216,1.89209,1.77002,-14.3433,-0.097,-0.091,39.7,-0.0264893,-0.0715942,0,0,0,0,0,41.64,177.237,1797342
-0.00567627,-0.0303345,1.034,0.854492,1.0376,-13.0615,-0.006,-0.018,40.11,-0.0285492,-0.0721741,0,0,0,0,0,41.64,177.258,1797372
0.0177002,0.277466,0.905212,0.976562,0.549316,-13.4888,0.207,0.202,40.31,-0.0294647,-0.0723877,0,0,0,0,0,41.64,177.279,1797387
0.0340576,-0.0602417,0.993958,1.95312,-1.2207,-14.3433,0.002,-0.066,40.52,-0.0302277,-0.0724945,0,0,0,0,0,41.64,177.298,1797402
     0,-0.125549,1.00128,3.17383,2.38037,-13.7939,-0.067,-0.095,40.92,-0.0320587,-0.072937,0,0,0,0,0,41.64,177.319,1797432
-0.0219116,-0.126953,1.01849,0.0610352,0.366211,-16.4795,-0.084,-0.08,41.15,-0.0331573,-0.0733185,0,0,0,0,0,41.64,177.34,1797447
-0.0167236,0.0230103,0.946838,-0.366211,-0.12207,-16.1743,0.017,0.028,41.39,-0.0342865,-0.0737457,0,0,0,0,0,41.64,177.361,1797462
-0.0210571,0.137329,0.992554,0,0.671387,-17.8223,0.091,0.116,41.93,-0.0362549,-0.0744171,0,0,0,0,0,41.64,177.381,1797492
0.0709229,0.144958,1.06976,1.09863,-0.244141,-16.7236,0.167,0.06,42.19,-0.0369873,-0.0746002,0,0,0,0,0,41.64,177.399,1797507
-0.0748291,-0.170898,1.03632,1.28174,0.0610352,-15.3198,-0.153,-0.075,42.43,-0.0377197,-0.0747833,0,0,0,0,0,41.64,177.418,1797522
0.0994263,-0.120483,1.06787,1.15967,-2.2583,-15.2588,0.007,-0.156,42.9,-0.0394745,-0.0753479,0,0,0,0,0,41.64,177.441,1797552
-0.0325317,0.012085,1.05994,1.52588,1.2207,-16.1743,0,0.03,43.15,-0.0403595,-0.0757751,0,0,0,0,0,41.64,177.459,1797567
0.0847168,-0.12915,1.0907,0.854492,-0.12207,-16.1133,-0.01,-0.152,43.39,-0.0403595,-0.0762787,0,0,0,0,0,41.64,177.478,1797582
0.0241699,-0.106384,1.05322,-0.183105,2.0752,-17.7612,-0.04,-0.094,43.91,-0.040802,-0.0777435,0,0,0,0,0,41.64,177.499,1797612
-0.0608521,-0.0596313,1.02789,-0.183105,1.83105,-19.043,-0.069,0,44.19,-0.0411835,-0.078598,0,0,0,0,0,41.64,177.518,1797627
-0.0385742,-0.203064,1.08313,-1.64795,1.89209,-18.5547,-0.152,-0.118,44.47,-0.0417328,-0.0795441,0,0,0,0,0,41.64,177.538,1797642
0.0664062,-0.115601,1.14447,1.0376,-0.183105,-16.7847,-0.016,-0.129,45.02,-0.0432587,-0.0817261,0,0,0,0,0,41.64,177.558,1797672
-0.202454,-0.175781,1.06787,2.01416,3.72314,-17.6392,-0.251,0.019,45.29,-0.0442505,-0.0829468,0,0,0,0,0,41.64,177.581,1797687
0.0452881,-0.0154419,0.985962,0.427246,-0.671387,-16.7847,0.036,-0.043,45.55,-0.0453949,-0.0841827,0,0,0,0,0,41.64,177.598,1797702
0.147461,0.198975,1.0517,-2.13623,-2.68555,-15.1367,0.262,0.031,46.04,-0.0476227,-0.0867004,0,0,0,0,0,41.67,177.619,1797732
0.0118408,0.107056,1.08893,1.34277,-1.09863,-18.0664,0.102,0.065,46.3,-0.0484161,-0.0878754,0,0,0,0,0,41.67,177.638,1797747
-0.0179443,-0.184448,1.16333,0.183105,-0.671387,-16.1133,-0.127,-0.113,46.55,-0.0492401,-0.0890961,0,0,0,0,0,41.67,177.659,1797762
0.0549316,0.0201416,0.966553,0.305176,-0.549316,-15.1978,0.067,-0.025,47.02,-0.0509796,-0.0915222,0,0,0,0,0,41.67,177.681,1797792
-0.125488,0.130249,0.947571,1.83105,0.976562,-15.5029,0.025,0.181,47.26,-0.0517578,-0.0926056,0,0,0,0,0,41.67,177.699,1797808
0.123596,0.000671387,0.984802,0.366211,-1.64795,-15.2588,0.099,-0.09,47.48,-0.0524445,-0.0936279,0,0,0,0,0,41.67,177.719,1797823
-0.136536,-0.148254,1.06445,2.44141,3.11279,-17.2729,-0.186,0.002,47.97,-0.053894,-0.0956573,0,0,0,0,0,41.67,177.739,1797853
0.0317993,-0.0463257,0.975464,-0.976562,1.28174,-16.7847,0.001,-0.054,48.23,-0.0548096,-0.0966797,0,0,0,0,0,41.67,177.759,1797868
0.00665283,0.0932617,0.861389,-1.46484,-1.28174,-17.334,0.086,0.057,48.48,-0.0556641,-0.097702,0,0,0,0,0,41.67,177.779,1797883
0.027771,-0.0803833,1.0321,-0.854492,0.0610352,-16.6016,-0.026,-0.072,48.99,-0.0571594,-0.0996246,0,0,0,0,0,41.67,177.798,1797913
-0.0310669,-0.0360107,0.955017,-0.610352,1.34277,-15.564,-0.033,0.001,49.24,-0.0579224,-0.100632,0,0,0,0,0,41.67,177.818,1797928
-0.0269165,-0.0757446,1.02783,1.15967,0.0610352,-15.8691,-0.06,-0.027,49.47,-0.0587616,-0.101669,0,0,0,0,0,41.67,177.838,1797943
0.0891113,-0.0548096,1.09973,0,0.915527,-14.7095,0.03,-0.101,49.94,-0.0605774,-0.104019,0,0,0,0,0,41.67,177.86,1797973
0.0410156,0.0373535,0.966187,0.854492,0.488281,-14.1602,0.068,-0.006,50.15,-0.0614166,-0.105316,0,0,0,0,0,41.67,177.88,1797988
-0.0401001,0.00750732,0.952148,0.12207,0.183105,-14.7095,-0.006,0.036,50.36,-0.0622253,-0.106613,0,0,0,0,0,41.67,177.901,1798003
0.0643311,0.0302124,0.895264,-1.58691,-1.58691,-15.3198,0.076,-0.029,50.8,-0.0634918,-0.108963,0,0,0,0,0,41.67,177.918,1798033
-0.0678101,0.0630493,0.941101,-0.610352,0.488281,-16.6016,0.019,0.093,51.03,-0.0639801,-0.110092,0,0,0,0,0,41.67,177.942,1798048
-0.00946045,-0.105652,1.07544,-0.305176,1.70898,-16.7847,-0.072,-0.057,51.28,-0.0645142,-0.111176,0,0,0,0,0,41.67,177.959,1798063
-0.0641479,-0.115845,1.05573,0.244141,1.15967,-15.686,-0.115,-0.02,51.75,-0.0660248,-0.113663,0,0,0,0,0,41.67,177.979,1798093
0.0750732,0.0418091,0.953613,1.46484,0.244141,-14.3433,0.093,-0.032,51.97,-0.0668945,-0.11499,0,0,0,0,0,41.67,177.998,1798108
-0.0637817,0.113586,1.03113,0.976562,2.38037,-14.7705,0.066,0.12,52.18,-0.0676575,-0.116257,0,0,0,0,0,41.67,178.018,1798123
0.0251465,0.0230103,1.15845,0,0.12207,-14.0381,0.05,-0.006,52.6,-0.068924,-0.118744,0,0,0,0,0,41.67,178.04,1798153
-0.0640259,0.0142212,0.883484,0,2.0752,-15.9912,-0.014,0.059,52.83,-0.0694885,-0.11998,0,0,0,0,0,41.67,178.059,1798168
-0.0169067,-0.193848,1.07184,-2.56348,0.732422,-16.1743,-0.149,-0.103,53.33,-0.0708923,-0.122482,0,0,0,0,0,41.67,178.085,1798198
-0.0372314,-0.0395508,1.02917,-0.671387,0.12207,-17.2729,-0.038,0.005,53.59,-0.0717926,-0.123856,0,0,0,0,0,41.67,178.098,1798213
0.147339,0.116699,1.05896,0.915527,-2.99072,-17.8223,0.197,-0.05,53.85,-0.0725861,-0.125244,0,0,0,0,0,41.67,178.118,1798228
-0.0603638,-0.0391235,1.05109,0.183105,0.610352,-18.4326,-0.05,0.025,54.13,-0.073288,-0.126663,0,0,0,0,0,41.67,178.14,1798243
-0.0268555,-0.0708008,0.962158,1.64795,0.305176,-17.5171,-0.059,-0.019,54.38,-0.0740509,-0.128067,0,0,0,0,0,41.67,178.158,1798258
-0.115051,-0.0128784,0.948181,-0.671387,3.05176,-17.7612,-0.062,0.086,54.91,-0.0755615,-0.131119,0,0,0,0,0,41.67,178.179,1798288
0.0337524,0.00842285,1.0907,-0.244141,-1.83105,-17.7612,0.043,-0.023,55.17,-0.0763397,-0.132614,0,0,0,0,0,41.67,178.199,1798303
-0.0527344,0.0234375,0.963135,0.0610352,0.549316,-18.9209,0.003,0.057,55.73,-0.077713,-0.135696,0,0,0,0,0,41.67,178.218,1798333
0.139038,0.243713,0.899597,-2.31934,-2.86865,-17.7002,0.294,0.021,56.01,-0.0781708,-0.137192,0,0,0,0,0,41.67,178.238,1798348
-0.0775146,-0.0482178,1.00562,0.305176,0.671387,-17.7612,-0.067,0.038,56.27,-0.078476,-0.138626,0,0,0,0,0,41.67,178.258,1798363
0.106567,-0.17041,1.0376,1.64795,-2.56348,-16.3574,-0.068,-0.182,56.78,-0.0793762,-0.141541,0,0,0,0,0,41.67,178.284,1798393
-0.0733032,0.0546265,0.970947,0.244141,-0.732422,-18.2495,0.019,0.092,57.04,-0.0799103,-0.143112,0,0,0,0,0,41.67,178.298,1798408
0.0733643,0.156982,1.07483,1.52588,-1.15967,-17.4561,0.187,0.024,57.3,-0.080307,-0.144608,0,0,0,0,0,41.67,178.319,1798423
-0.02948,-0.0827026,1.06097,0.244141,-0.183105,-19.5923,-0.07,-0.017,57.86,-0.0808411,-0.147476,0,0,0,0,0,41.67,178.338,1798453
-0.0205688,-0.00878906,1.03052,-1.40381,0.915527,-19.5312,-0.003,0.015,58.15,-0.0811768,-0.147476,0,0,0,0,0,41.67,178.358,1798468
0.0322266,-0.0449219,0.919189,-1.95312,-1.89209,-18.0664,-0.008,-0.048,58.43,-0.0815125,-0.147507,0,0,0,0,0,41.67,178.378,1798483
0.131226,0.0601807,1.01611,1.77002,-2.31934,-15.9302,0.133,-0.078,58.93,-0.0818481,-0.147461,0,0,0,0,0,41.67,178.399,1798513
-0.0142822,-0.0055542,0.965027,-2.19727,-0.671387,-16.2354,0.001,0.012,59.17,-0.0818329,-0.147476,0,0,0,0,0,41.67,178.419,1798528
0.100037,0.0953369,0.95752,-1.89209,-0.488281,-15.1367,0.146,-0.034,59.62,-0.0817261,-0.147507,0,0,0,0,0,41.67,178.444,1798558
-0.0626221,-0.017395,1.00775,0.305176,2.62451,-13.0615,-0.032,0.049,59.82,-0.081543,-0.147507,0,0,0,0,0,41.67,178.466,1798573
-0.027771,0.00854492,0.992371,0,1.2207,-14.0381,0.007,0.032,60.03,-0.0813751,-0.147461,0,0,0,0,0,41.67,178.479,1798588
-0.00567627,-0.00341797,0.956604,-1.46484,0.244141,-13.3057,0.007,0.006,60.24,-0.0813751,-0.147385,0,0,0,0,0,41.67,178.498,1798603
-0.10907,0.186951,0.921936,-0.915527,1.95312,-15.564,0.122,0.19,60.46,-0.0812836,-0.147171,0,0,0,0,0,41.67,178.518,1798618
0.109009,0.151306,1.05212,-3.90625,-3.72314,-17.7002,0.2,-0.018,60.98,-0.0804138,-0.146637,0,0,0,0,0,41.67,178.538,1798648
-0.0610352,-0.394653,1.24701,-2.68555,3.60107,-14.8315,-0.357,-0.131,61.21,-0.0799713,-0.1465,0,0,0,0,0,41.67,178.56,1798663
-0.0418701,0.115723,0.927368,-0.549316,1.95312,-15.7471,0.095,0.095,61.68,-0.0793457,-0.146439,0,0,0,0,0,41.67,178.579,1798693
0.0604858,0.0182495,1.05975,1.0376,-0.427246,-15.3809,0.06,-0.041,61.91,-0.0788879,-0.146347,0,0,0,0,0,41.67,178.6,1798708
0.036377,0.0304565,0.966858,0.366211,-0.12207,-13.7939,0.058,-0.014,62.13,-0.0783386,-0.146301,0,0,0,0,0,41.67,178.622,1798723
-0.0896606,-0.130737,0.991943,-0.488281,4.27246,-16.0522,-0.142,0.022,62.59,-0.0775757,-0.146393,0,0,0,0,0,41.67,178.638,1798753
0.027771,-0.0389404,0.97522,-0.183105,0.305176,-14.9536,-0.007,-0.04,62.83,-0.0773926,-0.146484,0,0,0,0,0,41.67,178.661,1798768
0.156311,0.0474243,0.940979,-2.0752,-0.305176,-15.625,0.127,-0.115,63.29,-0.0769348,-0.146454,0,0,0,0,0,41.67,178.695,1798799
0.057251,-0.0128784,1.11163,2.80762,1.15967,-15.3198,0.03,-0.054,63.77,-0.0760803,-0.146378,0,0,0,0,0,41.67,178.72,1798828
0.00994873,-0.184998,1.03119,-1.89209,2.38037,-16.4795,-0.147,-0.087,64.24,-0.0752411,-0.146469,0,0,0,0,0,41.67,178.749,1798859
0.0204468,0.000244141,1.10699,0.549316,-0.183105,-17.2729,0.026,-0.016,64.5,-0.0749512,-0.146622,0,0,0,0,0,41.67,178.767,1798873
0.0546265,0.0151367,1.06378,0.732422,-0.427246,-16.9067,0.053,-0.041,64.76,-0.0746002,-0.14682,0,0,0,0,0,41.67,178.78,1798888
-0.111877,0.0927124,1.02539,0.0610352,2.80762,-17.7002,0.052,0.142,65.03,-0.0741882,-0.146957,0,0,0,0,0,41.67,178.798,1798903
0.00952148,-0.203308,0.99176,-0.854492,-0.549316,-16.3574,-0.165,-0.091,65.53,-0.0733032,-0.14711,0,0,0,0,0,41.67,178.82,1798933
-0.020813,-0.0849609,1.01886,1.15967,1.77002,-15.9912,-0.07,-0.014,65.77,-0.0730743,-0.147293,0,0,0,0,0,41.67,178.839,1798948
0.0633545,-0.0346069,1.03156,2.62451,-0.732422,-15.8691,0.009,-0.07,66.01,-0.072876,-0.147537,0,0,0,0,0,41.67,178.861,1798963
0.0777588,0.138611,1.12732,-0.12207,-0.671387,-17.2729,0.175,-0.014,66.5,-0.0725555,-0.148071,0,0,0,0,0,41.67,178.878,1798993
-0.0101318,0.232544,0.836365,-1.40381,-1.2207,-17.0898,0.223,0.102,66.75,-0.0720978,-0.14827,0,0,0,0,0,41.67,178.9,1799008
0.00927734,0.071167,0.960327,0.305176,-1.09863,-19.7754,0.084,0.02,67.03,-0.0714417,-0.148392,0,0,0,0,0,41.67,178.919,1799023
0.118286,-0.0402222,1.01556,-1.09863,-2.80762,-17.1509,0.024,-0.123,67.58,-0.069931,-0.148697,0,0,0,0,0,41.67,178.939,1799053
-0.0338745,-0.0386963,1.00244,0,0,-17.5171,-0.032,0.019,67.84,-0.0691681,-0.148956,0,0,0,0,0,41.67,178.958,1799068
0.147034,0.0397949,1.11719,1.34277,-2.50244,-16.6016,0.109,-0.118,68.09,-0.0683441,-0.149292,0,0,0,0,0,41.67,178.982,1799083
-0.0326538,0.0446167,0.926575,0.549316,0.671387,-15.8081,0.044,0.049,68.57,-0.0664978,-0.149933,0,0,0,0,0,41.67,179,1799113
0.0227051,0.104431,0.996826,-0.793457,0.488281,-16.4795,0.122,0.019,68.8,-0.0654449,-0.150162,0,0,0,0,0,41.67,179.019,1799128
-0.0272217,0.045166,0.976746,-0.732422,1.40381,-15.686,0.048,0.044,69.04,-0.06427,-0.150345,0,0,0,0,0,41.67,179.039,1799144
0.0585327,0.0610962,0.917175,0,0.854492,-13.916,0.092,-0.03,69.49,-0.0617981,-0.150543,0,0,0,0,0,41.67,179.059,1799174
-0.0969238,0.20813,0.892151,-1.2207,-0.244141,-17.0288,0.176,0.165,69.73,-0.0603485,-0.150528,0,0,0,0,0,41.67,179.079,1799189
-0.0353394,0.250854,0.907227,-0.0610352,-0.12207,-16.4185,0.238,0.121,69.97,-0.0586243,-0.15033,0,0,0,0,0,41.67,179.102,1799204
-0.159607,-0.367432,1.1308,0.610352,4.82178,-16.3574,-0.381,0.03,70.48,-0.0553436,-0.149811,0,0,0,0,0,41.67,179.119,1799234
-0.093811,-0.329407,1.10248,0.610352,4.76074,-14.7095,-0.324,-0.018,70.72,-0.0543671,-0.149536,0,0,0,0,0,41.66,179.138,1799249
0.00982666,0.0224609,0.989014,-0.976562,1.83105,-15.5029,0.041,0,70.96,-0.0535736,-0.149277,0,0,0,0,0,41.66,179.159,1799264
0.078186,-0.0308228,1.02393,-2.44141,1.70898,-14.8926,0.013,-0.082,71.44,-0.0516205,-0.148712,0,0,0,0,0,41.66,179.178,1799294
0.00915527,-0.210999,1.0802,-0.427246,1.15967,-17.2729,-0.178,-0.073,71.69,-0.050705,-0.148544,0,0,0,0,0,41.66,179.198,1799309
-0.124084,-0.0170898,1.03558,-1.34277,3.41797,-17.0898,-0.035,0.114,71.95,-0.0499268,-0.148346,0,0,0,0,0,41.66,179.218,1799324
0.0314941,-0.0179443,1.07233,-1.15967,0.427246,-16.7236,0.012,-0.034,72.45,-0.048111,-0.148117,0,0,0,0,0,41.66,179.241,1799354
0.0814209,-0.0113525,1.10828,0.183105,-1.2207,-16.9067,0.034,-0.079,72.69,-0.0471191,-0.148148,0,0,0,0,0,41.66,179.258,1799369
-0.00891113,-0.0362549,1.03467,0.0610352,0.244141,-15.9912,-0.017,-0.001,72.94,-0.0460968,-0.148224,0,0,0,0,0,41.66,179.278,1799384
-0.101929,-0.036438,1.06024,1.77002,2.50244,-15.564,-0.044,0.088,73.4,-0.0439301,-0.14827,0,0,0,0,0,41.66,179.298,1799414
0.172729,-0.0268555,1.00458,-2.44141,-1.89209,-14.6484,0.041,-0.172,73.61,-0.0428162,-0.1483,0,0,0,0,0,41.66,179.318,1799429
-0.0731201,0.178711,0.963867,-0.732422,0.488281,-16.9678,0.169,0.12,73.86,-0.0415649,-0.148376,0,0,0,0,0,41.66,179.338,1799444
0.0132446,-0.115601,1.05688,-2.2583,-0.183105,-16.9067,-0.086,-0.043,74.36,-0.0388641,-0.148712,0,0,0,0,0,41.66,179.359,1799474
-0.0369263,-0.155273,1.05725,-0.915527,3.23486,-16.0522,-0.137,-0.004,74.61,-0.0376892,-0.148972,0,0,0,0,0,41.66,179.378,1799489
-0.00177002,-0.0698853,0.902222,0.793457,-0.12207,-15.1367,-0.049,-0.016,74.85,-0.0366364,-0.148972,0,0,0,0,0,41.66,179.399,1799504
0.106079,-0.121155,1.17834,-0.183105,-2.0752,-16.5405,-0.066,-0.133,75.31,-0.0349579,-0.148956,0,0,0,0,0,41.66,179.42,1799534
0.00646973,0.180237,0.98938,-0.183105,-0.427246,-16.6626,0.197,0.039,75.56,-0.0341034,-0.149033,0,0,0,0,0,41.66,179.441,1799549
-0.12146,-0.0218506,1.03052,0.610352,1.70898,-16.4795,-0.029,0.112,75.81,-0.0331421,-0.149017,0,0,0,0,0,41.66,179.459,1799564
0.152283,-0.0585327,1.1441,-1.70898,-3.17383,-17.5781,0.002,-0.161,76.34,-0.031311,-0.148911,0,0,0,0,0,41.66,179.478,1799594
-0.123779,-0.0324097,1.0199,-2.38037,-0.793457,-17.5171,-0.038,0.113,76.61,-0.030426,-0.148941,0,0,0,0,0,41.66,179.499,1799609
0.086853,-0.0723877,0.993896,-0.488281,-0.427246,-17.7612,-0.03,-0.1,76.87,-0.0295868,-0.148972,0,0,0,0,0,41.66,179.518,1799624
-0.0360107,-0.103455,0.999512,0,0.305176,-15.3198,-0.087,0.013,77.38,-0.0280457,-0.149231,0,0,0,0,0,41.66,179.544,1799654
0.076355,-0.10498,1.21704,-0.793457,0.732422,-15.3198,-0.059,-0.095,77.59,-0.02742,-0.149414,0,0,0,0,0,41.66,179.558,1799669
0.0178833,-0.09729,0.969482,-2.0752,2.80762,-15.1367,-0.069,-0.036,77.83,-0.0268707,-0.149704,0,0,0,0,0,41.66,179.58,1799684
-0.0010376,-0.0297241,0.996155,-0.671387,0.732422,-16.3574,-0.006,-0.003,78.31,-0.0259399,-0.150009,0,0,0,0,0,41.66,179.601,1799714
0.0198975,-0.121582,1.0423,-2.01416,0.244141,-14.7095,-0.091,-0.042,78.55,-0.0255585,-0.15004,0,0,0,0,0,41.66,179.618,1799729
-0.057373,-0.104187,0.977783,-0.427246,2.86865,-15.686,-0.09,0.037,78.78,-0.0252991,-0.15007,0,0,0,0,0,41.66,179.638,1799744
-0.0921631,0.0205078,0.896851,-2.0752,1.2207,-16.0522,0.024,0.095,79.26,-0.0249023,-0.150101,0,0,0,0,0,41.67,179.659,1799774
0.0325928,-0.0824585,1.07941,-1.58691,-0.488281,-16.4795,-0.049,-0.046,79.5,-0.0247192,-0.150055,0,0,0,0,0,41.67,179.685,1799789
0.0903931,-0.0145874,1.14716,-2.99072,-0.12207,-16.2964,0.029,-0.09,79.74,-0.0245514,-0.150101,0,0,0,0,0,41.67,179.699,1799804
-0.0879517,-0.12793,1.04065,1.70898,1.77002,-16.9067,-0.115,0.066,80.24,-0.0244446,-0.150223,0,0,0,0,0,41.67,179.719,1799834
-0.00689697,-0.0195312,1.00244,0.244141,1.2207,-14.8926,0.004,0.004,80.48,-0.0245361,-0.150208,0,0,0,0,0,41.67,179.739,1799849
-0.0852051,-0.184143,1.0946,0.305176,1.64795,-16.7847,-0.168,0.055,80.72,-0.0247345,-0.150146,0,0,0,0,0,41.67,179.758,1799864
0.0238037,-0.0160522,0.939758,-3.60107,-0.427246,-15.5029,0.012,-0.025,81.2,-0.0252838,-0.149948,0,0,0,0,0,41.67,179.781,1799894
0.00616455,0.146179,0.931946,-3.35693,0.366211,-16.8457,0.17,0.016,81.45,-0.0254211,-0.149872,0,0,0,0,0,41.67,179.799,1799909
0.0489502,0.0223389,0.933105,-3.84521,-0.488281,-15.3198,0.056,-0.044,81.68,-0.0253906,-0.149811,0,0,0,0,0,41.67,179.819,1799924
-0.045166,-0.0559082,0.985413,-0.915527,0.732422,-12.6343,-0.033,0.038,81.87,-0.0253601,-0.14975,0,0,0,0,0,41.67,179.838,1799939
0.00164795,-0.03125,0.951233,0.244141,-1.28174,-13.2446,-0.001,-0.004,82.25,-0.0255737,-0.149673,0,0,0,0,0,41.67,179.859,1799969
-0.0692749,-0.120178,1.06946,0,1.34277,-10.7422,-0.094,0.053,82.43,-0.0257874,-0.149643,0,0,0,0,0,41.67,179.879,1799984
0.0215454,-0.0391846,0.924988,0.0610352,0.976562,-10.7422,-0.007,-0.024,82.58,-0.026062,-0.149582,0,0,0,0,0,41.67,179.898,1800000
-0.0111084,-0.252563,1.05865,0.671387,0.427246,-13.0615,-0.22,-0.018,82.95,-0.0269012,-0.14946,0,0,0,0,0,41.67,179.92,1800029
-0.0911255,-0.178162,1.08716,-2.80762,2.31934,-15.2588,-0.152,0.071,83.18,-0.0276642,-0.149353,0,0,0,0,0,41.67,179.938,1800044
-0.039917,-0.143066,1.09082,-1.09863,2.2583,-12.2681,-0.109,0.025,83.61,-0.0296021,-0.149185,0,0,0,0,0,41.67,179.96,1800074
0.0125732,-0.0982666,1.02661,2.13623,1.77002,-11.7798,-0.061,-0.021,83.79,-0.0307617,-0.149124,0,0,0,0,0,41.67,179.979,1800089
0.0362549,-0.153137,1.03339,1.95312,1.0376,-11.9629,-0.112,-0.05,83.96,-0.0320282,-0.149094,0,0,0,0,0,41.67,179.999,1800104
0.0581055,0.0824585,1.02051,1.70898,-2.38037,-11.8408,0.123,-0.048,84.32,-0.0348663,-0.1492,0,0,0,0,0,41.67,180.018,1800134
-0.0529785,-0.0665283,1.09778,-0.549316,1.46484,-15.564,-0.032,0.047,84.54,-0.0362091,-0.149261,0,0,0,0,0,41.67,180.038,1800149
0.0032959,-0.0770874,0.998474,-1.70898,-0.610352,-14.1602,-0.04,-0.01,84.77,-0.0376129,-0.149307,0,0,0,0,0,41.67,180.059,1800164
-0.111938,-0.00421143,0.90802,-2.44141,0,-15.3198,0.021,0.111,85.24,-0.0404205,-0.149536,0,0,0,0,0,41.67,180.079,1800194
0.111694,0.0477905,1.05017,2.44141,-3.54004,-13.6719,0.096,-0.107,85.44,-0.0417328,-0.149643,0,0,0,0,0,41.67,180.099,1800209
-0.00756836,-0.0744629,0.952393,1.64795,0.488281,-14.2822,-0.038,0.003,85.66,-0.0430145,-0.149811,0,0,0,0,0,41.67,180.119,1800224
0.0596924,-0.286743,1.09924,0.610352,0.244141,-10.9863,-0.241,-0.078,86.03,-0.0458679,-0.150223,0,0,0,0,0,41.67,180.138,1800254
0.0324097,-0.0268555,0.976257,0.244141,0.244141,-13.3057,0.012,-0.032,86.22,-0.0475464,-0.150513,0,0,0,0,0,41.66,180.158,1800269
-0.088501,0.123962,0.907715,-1.0376,2.31934,-15.1367,0.152,0.096,86.44,-0.049118,-0.150772,0,0,0,0,0,41.66,180.183,1800284
0.11969,-0.0515137,1.05756,-1.40381,-0.610352,-12.6953,-0.005,-0.121,86.64,-0.0505829,-0.151047,0,0,0,0,0,41.66,180.198,1800300
-0.00457764,-0.162048,1.01874,-3.35693,1.58691,-15.9912,-0.122,-0.003,87.13,-0.0536804,-0.151703,0,0,0,0,0,41.66,180.218,1800329
0.0248413,-0.00268555,0.991943,1.40381,-1.09863,-13.0005,0.037,-0.025,87.34,-0.0553436,-0.152023,0,0,0,0,0,41.66,180.238,1800344
-0.046814,-0.160645,1.07257,1.89209,1.95312,-15.564,-0.121,0.039,87.56,-0.0570526,-0.152344,0,0,0,0,0,41.66,180.258,1800360
0.0710449,0.0735474,1.05286,3.11279,-1.83105,-14.7705,0.116,-0.069,88.04,-0.0605469,-0.152771,0,0,0,0,0,41.66,180.278,1800389
0.0232544,-0.0480957,1.00153,-1.09863,-1.83105,-15.7471,-0.008,-0.025,88.26,-0.0621796,-0.153046,0,0,0,0,0,41.66,180.298,1800404
-0.0057373,-0.0407715,1.0387,-0.0610352,0.427246,-13.916,0,0.003,88.72,-0.0653381,-0.153534,0,0,0,0,0,41.66,180.318,1800434
0.188538,-0.0300293,1.03137,-1.40381,-2.13623,-13.7329,0.014,-0.189,88.92,-0.0668793,-0.1539,0,0,0,0,0,41.66,180.338,1800449
-0.00128174,-0.0498047,0.994751,-1.58691,-0.854492,-14.2212,-0.009,0,89.13,-0.0668793,-0.154388,0,0,0,0,0,41.66,180.358,1800464
-0.0888672,-0.0387573,0.979431,-0.732422,0.610352,-13.7329,0,0.088,89.35,-0.0668793,-0.1548,0,0,0,0,0,41.66,180.378,1800480
0.103271,0.0139771,0.981384,2.99072,0.488281,-10.1318,0.055,-0.103,89.66,-0.0669861,-0.15567,0,0,0,0,0,41.66,180.4,1800510
-0.0211182,-0.0820312,1.02197,4.21143,0.488281,-12.3291,-0.041,0.02,89.83,-0.0670166,-0.156219,0,0,0,0,0,41.66,180.419,1800525
-0.0956421,-0.147095,1.03986,1.77002,2.56348,-12.5732,-0.105,0.094,90.02,-0.0671692,-0.156677,0,0,0,0,0,41.66,180.438,1800540
0.000671387,-0.0228271,1.00238,0.12207,1.28174,-14.7095,0.016,-0.001,90.44,-0.067627,-0.157547,0,0,0,0,0,41.66,180.458,1800570
-0.0618896,-0.0336914,1.03387,1.28174,1.40381,-17.7002,0.006,0.06,90.69,-0.0678406,-0.157974,0,0,0,0,0,41.66,180.478,1800585
-0.0234985,0.0561523,0.986572,0.366211,-0.183105,-19.8975,0.094,0.02,91.24,-0.0677795,-0.158783,0,0,0,0,0,41.66,180.499,1800615
-0.0784302,-0.0344849,1.05933,2.0752,1.83105,-22.8882,0.006,0.077,91.57,-0.0676422,-0.159119,0,0,0,0,0,41.66,180.518,1800630
0.0862427,-0.131287,1.01685,0.549316,0.0610352,-22.3999,-0.097,-0.084,91.91,-0.0675659,-0.15947,0,0,0,0,0,41.66,180.538,1800645
0.00183105,-0.00390625,1.00549,0.854492,0,-22.4609,0.032,-0.003,92.25,-0.0675354,-0.159866,0,0,0,0,0,41.66,180.558,1800660
0.0581665,-0.13324,1.02014,-2.31934,-1.15967,-20.874,-0.098,-0.053,92.9,-0.0674438,-0.160583,0,0,0,0,0,41.66,180.578,1800690
0.0206909,-0.050354,1.01288,-3.23486,0.366211,-19.4702,-0.012,-0.019,93.2,-0.0674896,-0.160995,0,0,0,0,0,41.66,180.601,1800705
0.0496216,-0.039856,0.972229,1.95312,-0.732422,-14.8315,-0.005,-0.049,93.68,-0.0675354,-0.161789,0,0,0,0,0,41.66,180.618,1800735
-0.0237427,-0.0783081,0.962952,2.92969,0.610352,-12.5122,-0.039,0.026,93.89,-0.0675812,-0.162201,0,0,0,0,0,41.66,180.638,1800750
0.0449219,-0.0787964,1.05798,3.05176,-0.244141,-12.4512,-0.041,-0.041,94.06,-0.067688,-0.162628,0,0,0,0,0,41.66,180.658,1800765
0.00201416,-0.0665894,1.07922,1.83105,0.915527,-12.6953,-0.025,0,94.26,-0.0678253,-0.163071,0,0,0,0,0,41.65,180.678,1800780
0.0253906,-0.0604858,0.990234,-0.305176,0.427246,-12.4512,-0.024,-0.022,94.63,-0.068222,-0.164047,0,0,0,0,0,41.65,180.699,1800810
-0.00958252,0.0408936,1.01459,0.12207,1.15967,-14.9536,0.079,0.003,94.84,-0.0684204,-0.164566,0,0,0,0,0,41.65,180.719,1800825
-0.0256348,-0.0306396,1.01971,1.52588,1.0376,-16.7236,0.009,0.025,95.33,-0.0686035,-0.164536,0,0,0,0,0,41.65,180.74,1800855
-0.0113525,-0.0188599,1.0451,2.2583,1.28174,-19.043,0.019,0.01,95.6,-0.0686646,-0.16449,0,0,0,0,0,41.65,180.759,1800870
-0.0020752,-0.0500488,1.02411,2.44141,0.671387,-18.7988,-0.013,0.004,95.88,-0.0686646,-0.164444,0,0,0,0,0,41.65,180.778,1800885
-0.0645752,-0.00799561,1.02313,1.0376,0.183105,-20.6299,0.033,0.062,96.47,-0.0684967,-0.164398,0,0,0,0,0,41.65,180.798,1800915
0.0282593,-0.0379028,1.00781,-0.732422,-0.12207,-22.3389,-0.007,-0.026,96.8,-0.0683594,-0.164337,0,0,0,0,0,41.65,180.818,1800930
0.0119019,-0.0501709,1.02246,-0.976562,0.244141,-22.583,-0.017,-0.008,97.14,-0.0683594,-0.164307,0,0,0,0,0,41.65,180.838,1800945
0.0527954,0.00012207,1.01471,-0.366211,0.488281,-20.4468,0.027,-0.055,97.79,-0.0685883,-0.164139,0,0,0,0,0,41.65,180.858,1800975
0.0527344,-0.0502319,0.989563,0.610352,0.427246,-19.4092,-0.023,-0.048,98.09,-0.0687256,-0.164124,0,0,0,0,0,41.65,180.878,1800990
-0.0272217,-0.0991211,1.04242,2.2583,1.09863,-17.6392,-0.059,0.038,98.36,-0.068924,-0.164108,0,0,0,0,0,41.65,180.898,1801005
0.0386963,-0.0174561,1.0575,2.86865,0.244141,-16.6626,0.011,-0.038,98.62,-0.0691528,-0.164093,0,0,0,0,0,41.65,180.919,1801020
-0.0281982,-0.0126953,1.01263,1.52588,0.732422,-17.395,0.023,0.027,99.11,-0.0694427,-0.164215,0,0,0,0,0,41.65,180.939,1801050
-0.019043,-0.0698242,1.03784,-1.09863,0.488281,-17.0288,-0.033,0.027,99.36,-0.0695801,-0.164261,0,0,0,0,0,41.65,180.96,1801065
0.00683594,-0.0541382,1.05225,-0.488281,1.0376,-18.6157,-0.021,-0.001,99.62,-0.0697327,-0.164276,0,0,0,0,0,41.65,180.978,1801080
0.0165405,-0.0402222,0.981018,0.183105,-0.488281,-17.6392,-0.012,-0.012,100.16,-0.0702057,-0.164276,0,0,0,0,0,41.65,180.998,1801110
-0.024292,-0.0637207,0.989502,0.488281,0,-16.9678,-0.027,0.031,100.42,-0.0704803,-0.164261,0,0,0,0,0,41.65,181.018,1801125
0.0271606,0.00195312,1.02338,1.83105,0.305176,-17.9443,0.026,-0.03,100.94,-0.0711365,-0.164185,0,0,0,0,0,41.65,181.04,1801155
-0.0553589,-0.157715,1.07208,1.58691,0.549316,-18.3105,-0.112,0.081,101.21,-0.0715332,-0.164108,0,0,0,0,0,41.65,181.058,1801170
0.0540771,-0.0927734,0.993164,-0.793457,0.549316,-16.9067,-0.072,-0.038,101.47,-0.072052,-0.164017,0,0,0,0,0,41.65,181.079,1801185
0.0162354,0.0518188,0.993591,1.64795,1.52588,-17.5781,0.076,-0.029,101.73,-0.0725708,-0.163971,0,0,0,0,0,41.65,181.099,1801200
-0.0327759,-0.0635376,1.02008,0.305176,1.70898,-18.0664,-0.025,0.041,102.27,-0.0736542,-0.163803,0,0,0,0,0,41.65,181.119,1801230
0.0776978,-0.0169678,0.983887,0.671387,0.671387,-18.6768,-0.005,-0.075,102.55,-0.0742493,-0.163727,0,0,0,0,0,41.65,181.138,1801245
0.00378418,0.0808105,1.01959,1.64795,0.488281,-18.9209,0.106,-0.025,102.83,-0.0747681,-0.163712,0,0,0,0,0,41.65,181.159,1801260
0.0324097,-0.0755615,1.02313,0.793457,1.09863,-18.5547,-0.053,-0.017,103.38,-0.0756836,-0.163513,0,0,0,0,0,41.66,181.178,1801290
-0.00683594,0.0719604,0.942627,-0.366211,-0.488281,-19.2261,0.097,-0.014,103.66,-0.0761108,-0.163406,0,0,0,0,0,41.66,181.199,1801305
-0.0148926,-0.0216064,1.03534,-0.12207,0.854492,-18.6768,0.01,0.014,104.24,-0.0767975,-0.163116,0,0,0,0,0,41.66,181.221,1801335
0.0455933,-0.0635376,0.992493,0.671387,-0.12207,-19.165,-0.046,-0.032,104.52,-0.0771484,-0.162979,0,0,0,0,0,41.66,181.239,1801350
-0.00189209,-0.000793457,0.981873,0.854492,-0.488281,-16.6626,0.026,-0.002,104.79,-0.0775299,-0.162842,0,0,0,0,0,41.66,181.259,1801365
-0.00787354,-0.034729,1.05896,1.34277,0.244141,-16.6016,-0.003,0.012,105.03,-0.0778809,-0.162704,0,0,0,0,0,41.66,181.279,1801381
-0.0221558,-0.0176392,1.02686,1.09863,0.305176,-17.5171,0.015,0.022,105.54,-0.0778809,-0.162476,0,0,0,0,0,41.66,181.299,1801410
0.0150146,-0.0336304,1.00189,-0.610352,0.488281,-17.7612,-0.01,-0.008,105.8,-0.0778809,-0.162369,0,0,0,0,0,41.66,181.324,1801425
0.00817871,-0.03479,1.00818,-2.19727,0.427246,-18.8599,-0.008,-0.002,106.35,-0.0778809,-0.162369,0,0,0,0,0,41.66,181.342,1801455
0.0119019,-0.0436401,0.994446,-0.976562,0.12207,-17.4561,-0.016,-0.004,106.92,-0.0779572,-0.162277,0,0,0,0,0,41.66,181.369,1801485
0.0119019,-0.0436401,0.994446,-0.976562,0.12207,-17.4561,-0.016,-0.004,106.92,-0.0779572,-0.162277,0,0,0,0,0,41.66,181.379,1801485
0.0340576,-0.0637207,0.99292,0.549316,0.183105,-16.1743,-0.042,-0.018,107.17,-0.078064,-0.162247,0,0,0,0,0,41.66,181.398,1801501
0.00646973,-0.0997925,1.01489,1.0376,-0.12207,-16.3574,-0.067,0.018,107.65,-0.0784454,-0.162094,0,0,0,0,0,41.66,181.42,1801530
0.0257568,-0.0460815,1.00037,0.854492,0.183105,-15.5029,-0.022,-0.016,107.89,-0.0787354,-0.161987,0,0,0,0,0,41.66,181.438,1801545
0.0259399,-0.0236206,1.01349,0.610352,0.0610352,-15.3198,0,-0.023,108.12,-0.0790253,-0.161926,0,0,0,0,0,41.66,181.458,1801561
0.024353,0.0407104,0.998718,1.52588,0.671387,-14.3433,0.059,-0.041,108.55,-0.0796509,-0.161835,0,0,0,0,0,41.66,181.478,1801590
-0.0107422,-0.0324097,1.01544,1.15967,0.549316,-15.1367,0.001,0.014,108.77,-0.0799103,-0.161819,0,0,0,0,0,41.66,181.498,1801605
0.00134277,-0.00476074,1.01825,0.12207,0.915527,-15.9912,0.023,-0.005,109.01,-0.0801697,-0.161804,0,0,0,0,0,41.66,181.518,1801621
-0.00421143,0.02771,1.01758,0.244141,1.46484,-20.1416,0.054,-0.011,109.56,-0.0805206,-0.161804,0,0,0,0,0,41.66,181.537,1801650
-0.0126953,0.0164795,0.985657,0.0610352,0.793457,-20.874,0.045,0,109.87,-0.0805969,-0.161804,0,0,0,0,0,41.66,181.559,1801665
0.019165,-0.0482788,1.02795,-0.854492,0.915527,-22.7051,-0.025,-0.007,110.2,-0.0806732,-0.161804,0,0,0,0,0,41.66,181.578,1801681
-0.0101318,0.022583,0.978088,-0.793457,-0.183105,-20.6299,0.05,-0.005,110.86,-0.080719,-0.161804,0,0,0,0,0,41.66,181.598,1801710
0.0162964,-0.0189209,0.995239,0.12207,0.244141,-20.5078,0.002,-0.015,111.16,-0.0806732,-0.161804,0,0,0,0,0,41.66,181.618,1801725
-0.0252686,-0.0541382,1.05249,1.09863,0.854492,-19.6533,-0.014,0.035,111.46,-0.0806274,-0.161789,0,0,0,0,0,41.66,181.638,1801741
0.0476074,-0.0159302,0.996704,0.305176,0.0610352,-18.7378,-0.007,-0.045,112.02,-0.0806885,-0.161743,0,0,0,0,0,41.66,181.659,1801770
-0.0228882,-0.0164795,1.02313,-0.12207,0.610352,-17.4561,0.019,0.02,112.29,-0.080719,-0.161758,0,0,0,0,0,41.66,181.682,1801786
0.0131226,-0.00170898,1.01105,-0.183105,0.671387,-17.0288,0.018,-0.019,112.55,-0.080719,-0.161758,0,0,0,0,0,41.65,181.698,1801801
0.00878906,0.00854492,1.0036,0.305176,0.549316,-17.8833,0.029,-0.018,113.07,-0.0805817,-0.161865,0,0,0,0,0,41.65,181.718,1801831
-0.00744629,0.0192871,1.0199,0.12207,0.549316,-17.7612,0.045,-0.008,113.34,-0.0804291,-0.161957,0,0,0,0,0,41.65,181.738,1801846
0.0118408,-0.0352783,1.00916,-0.549316,-0.12207,-18.0054,-0.012,-0.004,113.61,-0.0802612,-0.161957,0,0,0,0,0,41.65,181.758,1801861
-0.0184326,0.0103149,1.01526,-0.427246,0.183105,-17.5171,0.041,0.004,114.13,-0.079895,-0.161957,0,0,0,0,0,41.65,181.78,1801891
0.0114746,-0.0410156,1.00708,-0.244141,0.244141,-16.5405,-0.017,-0.001,114.39,-0.0796814,-0.161957,0,0,0,0,0,41.65,181.798,1801906
0.0275269,0.00189209,0.997131,0.305176,0.488281,-16.5405,0.013,-0.033,114.64,-0.0794678,-0.161987,0,0,0,0,0,41.65,181.819,1801921
-0.0169067,-0.0663452,1.02643,-0.244141,0.610352,-15.9912,-0.028,0.034,115.12,-0.078949,-0.162048,0,0,0,0,0,41.65,181.838,1801951
-0.00549316,-0.0869751,1.0564,-0.732422,1.09863,-15.9912,-0.05,0.033,115.36,-0.0787354,-0.162018,0,0,0,0,0,41.65,181.859,1801966
0.0299683,0.000976562,0.983826,-0.793457,0.366211,-15.8691,0.011,-0.035,115.6,-0.078537,-0.161987,0,0,0,0,0,41.65,181.878,1801981
0.00299072,-0.0254517,1.01135,-0.0610352,0.610352,-17.1509,0,0,116.09,-0.0781097,-0.162018,0,0,0,0,0,41.65,181.898,1802011
-0.00134277,0.00604248,0.987244,0.549316,0.366211,-17.7612,0.029,-0.01,116.36,-0.0778656,-0.162018,0,0,0,0,0,41.65,181.918,1802026
0.0228271,-0.0302124,1.00751,-0.12207,0.366211,-18.0664,-0.013,-0.015,116.88,-0.0773163,-0.162094,0,0,0,0,0,41.65,181.939,1802056
-0.0144653,0.00640869,0.986694,0.0610352,0.427246,-16.7236,0.035,0,117.14,-0.0770264,-0.162155,0,0,0,0,0,41.65,181.961,1802071
0.0283203,0.0141602,1.00024,0.305176,0.427246,-16.7236,0.022,-0.041,117.39,-0.0766907,-0.162247,0,0,0,0,0,41.65,181.979,1802086
-0.0128784,-0.0479126,1.04596,1.15967,1.52588,-18.8599,-0.012,0.024,117.66,-0.076355,-0.162354,0,0,0,0,0,41.65,182.001,1802101
0.0348511,0.0362549,0.972778,-1.09863,0.183105,-18.8599,0.037,-0.057,118.23,-0.0763397,-0.162567,0,0,0,0,0,41.65,182.018,1802131
-0.0144043,-0.00738525,0.992188,-0.671387,0.549316,-19.2871,0.022,0.006,118.51,-0.0762787,-0.16272,0,0,0,0,0,41.65,182.039,1802146
-0.00665283,-0.0145874,1.01459,-0.427246,0.244141,-18.3105,0.012,0.002,118.8,-0.0761871,-0.162872,0,0,0,0,0,41.65,182.058,1802161
-0.00115967,-0.147583,1.07861,-1.0376,1.09863,-18.1885,-0.104,0.062,119.33,-0.0761566,-0.162811,0,0,0,0,0,41.65,182.079,1802191
-0.0127563,-0.0863037,0.999573,-3.479,0.427246,-19.5312,-0.044,0.041,119.63,-0.0762939,-0.162704,0,0,0,0,0,41.65,182.099,1802206
-0.00408936,-0.0825195,0.975403,-3.72314,-0.366211,-16.1743,-0.045,0.032,119.88,-0.0764923,-0.162537,0,0,0,0,0,41.65,182.118,1802221
-0.00762939,-0.076416,0.993896,1.64795,0.549316,-13.2446,-0.036,0.032,120.33,-0.0770111,-0.162186,0,0,0,0,0,41.65,182.139,1802251
0.000976562,-0.123474,1.02002,2.19727,-0.0610352,-10.9253,-0.08,0.048,120.51,-0.0773621,-0.161942,0,0,0,0,0,41.65,182.161,1802266
0.0142822,-0.0335693,1.00909,1.64795,0.366211,-10.8032,-0.009,-0.008,120.66,-0.077774,-0.161682,0,0,0,0,0,41.65,182.179,1802281
0.00579834,-0.0254517,1.01575,2.44141,0.671387,-14.5264,0,-0.004,121.06,-0.0785828,-0.161682,0,0,0,0,0,41.64,182.198,1802311
0.0192261,-0.0279541,1.04456,1.52588,0.854492,-16.9678,-0.008,-0.014,121.3,-0.0789795,-0.161682,0,0,0,0,0,41.64,182.218,1802326
0.00799561,0.0357666,1.01227,0.793457,1.09863,-19.165,0.05,-0.037,121.58,-0.079361,-0.161728,0,0,0,0,0,41.64,182.239,1802341
0.00415039,-0.00146484,1.01221,1.0376,1.34277,-21.7895,0.018,-0.014,122.21,-0.0799713,-0.161896,0,0,0,0,0,41.64,182.259,1802371
-0.00439453,-0.0120239,1.00909,0.488281,1.15967,-22.3389,0.013,-0.001,122.54,-0.0799713,-0.161896,0,0,0,0,0,41.64,182.28,1802386
0.00860596,-0.0136719,1.01837,-0.183105,1.09863,-22.583,0.005,-0.012,122.88,-0.0799713,-0.161896,0,0,0,0,0,41.64,182.299,1802401
-0.00115967,0.0020752,1.01196,-1.83105,0.671387,-21.9116,0.023,-0.013,123.88,-0.079834,-0.161896,0,0,0,0,0,41.64,182.333,1802446
-0.00115967,0.0020752,1.01196,-1.83105,0.671387,-21.9116,0.023,-0.013,123.88,-0.079834,-0.161896,0,0,0,0,0,41.64,182.342,1802446
-0.0119019,0.00360107,1.01068,-1.70898,0.305176,-21.7285,0.031,-0.005,124.21,-0.0797272,-0.161896,0,0,0,0,0,41.64,182.358,1802461
0.00927734,-0.0113525,1.01678,-0.854492,0.427246,-20.5078,0.006,-0.015,124.83,-0.0796051,-0.161896,0,0,0,0,0,41.64,182.379,1802491
0.0131836,-0.0427246,0.981689,-0.427246,0.366211,-19.4702,-0.021,0,125.12,-0.0796051,-0.161896,0,0,0,0,0,41.64,182.398,1802506
-0.0020752,-0.0412598,1.01666,-0.366211,0.244141,-17.7002,-0.01,0.011,125.4,-0.0796509,-0.161896,0,0,0,0,0,41.64,182.418,1802521
0.0163574,-0.0245361,1.00781,-0.183105,0.183105,-15.3809,-0.007,-0.013,125.89,-0.0796967,-0.161896,0,0,0,0,0,41.64,182.439,1802551
-0.00915527,-0.039978,1.00909,0,0.549316,-14.3433,-0.005,0.016,126.11,-0.0796967,-0.161896,0,0,0,0,0,41.64,182.462,1802566
0.0100708,-0.0328369,1.00201,0.183105,0.549316,-14.0991,-0.01,-0.003,126.54,-0.0796967,-0.161896,0,0,0,0,0,41.64,182.481,1802596
-0.0107422,-0.0292358,1.01031,0.671387,0.549316,-14.1602,0.004,0.01,126.75,-0.0796967,-0.161896,0,0,0,0,0,41.64,182.504,1802611
-0.00640869,-0.00445557,1.0094,0.976562,0.549316,-15.3809,0.021,-0.007,126.97,-0.0796814,-0.161896,0,0,0,0,0,41.64,182.52,1802626
0.00012207,-0.00463867,1.00232,0.976562,0.12207,-16.2354,0.016,-0.012,127.21,-0.0796356,-0.161896,0,0,0,0,0,41.64,182.539,1802641
0.000976562,-0.0395508,1.02777,0.12207,0.427246,-19.6533,-0.011,0.008,127.76,-0.0795593,-0.161896,0,0,0,0,0,41.64,182.559,1802671
0.0137329,0.0090332,0.99469,-0.366211,0.0610352,-19.7144,0.018,-0.031,128.05,-0.0795593,-0.161911,0,0,0,0,0,41.64,182.579,1802686
-0.0032959,-0.0552979,1.02081,-0.793457,0.427246,-18.7988,-0.021,0.021,128.34,-0.0795593,-0.161926,0,0,0,0,0,41.64,182.599,1802702
0.00689697,-0.0222778,1.0061,-0.671387,0.366211,-12.8174,-0.001,-0.006,128.81,-0.0796204,-0.161942,0,0,0,0,0,41.64,182.619,1802731
-0.0139771,-0.0445557,1.01306,-0.12207,0.610352,-9.46045,-0.005,0.023,128.96,-0.0796204,-0.161926,0,0,0,0,0,41.64,182.639,1802746
-0.00152588,-0.0837402,1.01556,0,0.732422,-6.16455,-0.043,0.037,129.07,-0.0796509,-0.16188,0,0,0,0,0,41.64,182.658,1802762
0.00970459,-0.0666504,0.998718,-1.89209,-0.12207,1.70898,-0.036,0.017,129.12,-0.0799561,-0.161575,0,0,0,0,0,41.64,182.679,1802791
-0.0201416,-0.0178223,1.013,-1.09863,0.12207,2.80762,0.021,0.008,129.08,-0.0801697,-0.161377,0,0,0,0,0,41.64,182.698,1802806
-0.00634766,-0.0181885,0.994568,0.549316,-0.366211,3.05176,0.011,-0.001,129.03,-0.0803375,-0.161377,0,0,0,0,0,41.63,182.719,1802822
0.00787354,-0.0441284,1.02069,1.83105,-0.244141,1.83105,-0.017,0.003,128.95,-0.0803375,-0.161331,0,0,0,0,0,41.63,182.745,1802851
0.00146484,-0.0367432,1.01575,0.854492,-0.366211,0.732422,-0.007,0.004,128.94,-0.0803375,-0.161301,0,0,0,0,0,41.63,182.765,1802866
0.0117798,-0.0170288,1.01483,-0.671387,-0.549316,1.70898,0.001,-0.015,128.89,-0.0803375,-0.161301,0,0,0,0,0,41.63,182.782,1802896
0.00646973,-0.0107422,1.00397,-0.549316,-0.488281,1.83105,0.009,-0.015,128.87,-0.0803375,-0.161301,0,0,0,0,0,41.63,182.798,1802911
0.00854492,0.00402832,1.01007,0.244141,-0.12207,2.01416,0.019,-0.026,128.84,-0.0803375,-0.161331,0,0,0,0,0,41.63,182.82,1802926
0.00970459,-0.000610352,1.01178,0.549316,0.183105,0.610352,0.013,-0.023,128.79,-0.0803375,-0.16156,0,0,0,0,0,41.63,182.86,1802971
-0.00427246,-0.0055542,1.0119,-0.549316,0.12207,-0.0610352,0.018,-0.009,128.78,-0.0803375,-0.161804,0,0,0,0,0,41.63,182.899,1803002
-0.00750732,-0.0233765,1.01013,-0.976562,-0.0610352,-0.732422,0.006,0.004,128.8,-0.0802612,-0.161804,0,0,0,0,0,41.63,182.923,1803031
0.013916,-0.0241089,1.00922,-0.854492,-0.183105,-0.0610352,-0.007,-0.011,128.8,-0.0802155,-0.161804,0,0,0,0,0,41.63,182.932,1803046
0.00274658,-0.0238647,1.01105,-0.427246,0,0.427246,0,-0.003,128.8,-0.0802155,-0.161804,0,0,0,0,0,41.63,182.953,1803062
0.0140991,-0.0385132,1.01416,-0.244141,-0.366211,0.244141,-0.018,-0.003,128.79,-0.0802155,-0.161804,0,0,0,0,0,41.63,182.962,1803076
0.00567627,-0.0304565,1.01483,-0.0610352,-0.244141,0.0610352,-0.006,-0.001,128.79,-0.0802155,-0.161804,0,0,0,0,0,41.63,182.98,1803091
0.00500488,-0.0338135,1.00659,0.427246,0.183105,0.427246,-0.009,0.001,128.78,-0.0802155,-0.161804,0,0,0,0,0,41.63,182.998,1803106
0.00671387,-0.0349731,1.00879,0.305176,0.0610352,0.366211,-0.011,0,128.77,-0.0802155,-0.161804,0,0,0,0,0,41.63,183.018,1803122
-0.0129395,-0.0216675,1.01764,0.244141,0.0610352,1.95312,0.011,0.007,128.75,-0.0802155,-0.161804,0,0,0,0,0,41.63,183.038,1803152
0.00610352,-0.0262451,1.0155,0.0610352,0.12207,3.72314,-0.003,-0.004,128.7,-0.0802155,-0.161804,0,0,0,0,0,41.63,183.063,1803166
-6.10352e-05,-0.0106201,1.00623,0.183105,0,5.12695,0.012,-0.009,128.63,-0.0802155,-0.161804,0,0,0,0,0,41.63,183.079,1803182
-0.00244141,-0.0134277,1.01471,-0.244141,-0.488281,6.04248,0.011,-0.005,128.46,-0.0802155,-0.161804,0,0,0,0,0,41.63,183.099,1803212
0.00262451,-0.0115356,1.01538,-0.244141,-0.488281,5.92041,0.009,-0.01,128.37,-0.0802155,-0.161804,0,0,0,0,0,41.63,183.118,1803227
-0.00012207,-0.0230103,1.00891,-0.244141,-0.549316,6.16455,0.002,-0.001,128.27,-0.0802155,-0.161804,0,0,0,0,0,41.63,183.138,1803242
0.00909424,-0.0332031,1.01025,-0.0610352,-0.610352,10.9863,-0.011,-0.002,128.03,-0.0802155,-0.161804,0,0,0,0,0,41.63,183.161,1803272
0.0176392,-0.0427856,1.01788,0.305176,-0.305176,12.7563,-0.024,-0.003,127.85,-0.0802307,-0.161804,0,0,0,0,0,41.63,183.179,1803287
-0.00640869,-0.0273438,1.00635,0.12207,0,13.7329,0.002,0.006,127.64,-0.0802765,-0.161804,0,0,0,0,0,41.63,183.198,1803302
0.00469971,-0.0180054,1.00909,-0.12207,-0.488281,16.2964,0.003,-0.008,127.18,-0.0803223,-0.161804,0,0,0,0,0,41.61,183.219,1803332
-0.000427246,-0.0162354,1.00629,0.610352,-0.671387,17.6392,0.007,-0.005,126.92,-0.0803223,-0.161804,0,0,0,0,0,41.61,183.24,1803347
-0.0144043,-0.0263062,1.01007,0.671387,-0.244141,19.043,0.007,0.012,126.64,-0.0803223,-0.161804,0,0,0,0,0,41.61,183.258,1803362
-0.00311279,-0.0131226,1.01947,-0.12207,-1.09863,19.8364,0.011,-0.004,126.05,-0.0803223,-0.161804,0,0,0,0,0,41.61,183.279,1803392
-0.00231934,-0.0344849,1.01111,-0.793457,-0.976562,20.1416,-0.006,0.007,125.75,-0.0803223,-0.161804,0,0,0,0,0,41.61,183.3,1803407
0.0158081,-0.0133057,1.02167,-0.427246,-1.15967,21.2402,0,-0.019,125.44,-0.0803223,-0.161804,0,0,0,0,0,41.61,183.318,1803422
0.0162964,-0.0241089,0.983093,-0.366211,-1.34277,28.3813,-0.008,-0.013,124.7,-0.0803223,-0.161804,0,0,0,0,0,41.61,183.338,1803452
0.0415649,-0.0222168,1.06519,0.183105,-0.854492,30.5786,-0.018,-0.036,124.24,-0.0803223,-0.161835,0,0,0,0,0,41.61,183.358,1803467
0.0109863,-0.0514526,0.977478,-0.610352,-1.52588,32.1045,-0.027,0.005,123.31,-0.0803375,-0.161911,0,0,0,0,0,41.61,183.384,1803497
0.0221558,-0.0181885,1.01477,-0.793457,-2.13623,33.6914,-0.004,-0.022,122.82,-0.080368,-0.161957,0,0,0,0,0,41.61,183.398,1803512
-0.0137939,-0.0130005,1.03046,-0.183105,-1.34277,33.6304,0.019,0.005,122.31,-0.0803986,-0.162018,0,0,0,0,0,41.61,183.42,1803527
-0.00921631,-0.0146484,0.996216,0.915527,-1.40381,34.668,0.014,0.002,121.8,-0.0803986,-0.162079,0,0,0,0,0,41.61,183.439,1803542
-0.00256348,-0.0431519,1.04138,-0.12207,-1.70898,35.7666,-0.012,0.011,120.72,-0.0803986,-0.162079,0,0,0,0,0,41.61,183.459,1803572
-0.00708008,-0.032959,1.01245,-0.976562,-1.70898,36.8652,-0.001,0.01,120.18,-0.0803986,-0.162079,0,0,0,0,0,41.61,183.478,1803587
0.0184937,0.000732422,1.00598,-0.854492,-1.52588,37.9639,0.015,-0.028,119.61,-0.0803986,-0.162079,0,0,0,0,0,41.61,183.5,1803602
-0.0239258,-0.0288086,1.01111,-0.0610352,-1.40381,36.2549,0.01,0.023,118.5,-0.0803986,-0.16214,0,0,0,0,0,41.61,183.519,1803632
0.0123291,-0.0211792,0.987854,0.671387,-1.95312,35.0952,-0.001,-0.011,117.97,-0.0803986,-0.16214,0,0,0,0,0,41.61,183.538,1803647
0.0117798,0.000854492,1.02087,1.52588,-1.2207,33.5083,0.019,-0.02,117.45,-0.0803986,-0.16217,0,0,0,0,0,41.61,183.559,1803662
-0.000732422,-0.0446167,1.03387,1.15967,-1.09863,34.79,-0.015,0.011,116.43,-0.0803986,-0.162262,0,0,0,0,0,41.61,183.578,1803692
-0.0022583,-0.0358887,1.01398,0.0610352,-1.0376,34.729,-0.007,0.009,115.91,-0.0803986,-0.162262,0,0,0,0,0,41.61,183.599,1803707
-0.00372314,-0.0109863,1.00977,-1.0376,-1.46484,35.2783,0.015,0,115.39,-0.0803986,-0.162262,0,0,0,0,0,41.61,183.618,1803722
0.0114136,0.00457764,0.99884,-0.244141,-1.40381,34.4849,0.023,-0.02,114.33,-0.0803833,-0.162277,0,0,0,0,0,41.61,183.639,1803752
-0.0045166,-0.0116577,0.99231,0.0610352,-1.09863,34.4238,0.014,0.001,113.81,-0.0803223,-0.162308,0,0,0,0,0,41.61,183.658,1803767
0.0180664,-0.00653076,1.02887,1.34277,-1.64795,33.2642,0.01,-0.021,113.31,-0.0802612,-0.162338,0,0,0,0,0,41.61,183.678,1803782
0.00982666,-0.0452881,0.998596,0.671387,-1.34277,34.0576,-0.022,0.002,112.31,-0.0802765,-0.16246,0,0,0,0,0,41.61,183.698,1803812
0.0128784,-0.0335083,1.02515,0,-1.15967,34.1797,-0.012,-0.005,111.8,-0.080307,-0.16246,0,0,0,0,0,41.61,183.718,1803827
0.00604248,-0.0192871,1.02393,-0.976562,-0.732422,35.6445,0.003,-0.004,111.27,-0.0803528,-0.16246,0,0,0,0,0,41.64,183.741,1803842
0.015686,-0.0103149,1.00922,-0.427246,-0.732422,36.0107,0.008,-0.016,110.18,-0.0803528,-0.16246,0,0,0,0,0,41.64,183.758,1803872
-0.00280762,-0.0125732,1.00793,-0.0610352,-0.610352,34.8511,0.012,0.001,109.65,-0.0803528,-0.16246,0,0,0,0,0,41.64,183.778,1803887
-0.0174561,-0.00994873,0.993591,0.549316,-0.793457,34.4238,0.019,0.014,109.13,-0.0803528,-0.16246,0,0,0,0,0,41.64,183.799,1803902
0.00378418,-0.038208,1.03253,0.915527,-0.671387,34.3628,-0.013,0.003,108.11,-0.0803528,-0.16246,0,0,0,0,0,41.64,183.818,1803932
-0.0258179,-0.0326538,1.02887,0.366211,-1.28174,35.2783,0,0.03,107.58,-0.0803528,-0.16243,0,0,0,0,0,41.64,183.838,1803947
0.00152588,-0.0430298,1.01526,-0.549316,-1.28174,36.0718,-0.018,0.007,107.05,-0.0803528,-0.162384,0,0,0,0,0,41.64,183.858,1803963
-0.00970459,-0.0252075,1.01312,-1.09863,-1.2207,37.1094,0.002,0.012,105.95,-0.0803528,-0.162338,0,0,0,0,0,41.64,183.88,1803992
0.0144653,-0.00805664,0.993896,-0.244141,-1.28174,36.5601,0.012,-0.015,105.39,-0.0803528,-0.162338,0,0,0,0,0,41.64,183.898,1804007
0.0153198,-0.000671387,1.00433,0.915527,-1.34277,35.5225,0.018,-0.017,104.85,-0.0803528,-0.162338,0,0,0,0,0,41.64,183.918,1804023
0.00897217,-0.0220337,1.01093,1.09863,-1.15967,34.3628,0,-0.005,103.8,-0.0803528,-0.162338,0,0,0,0,0,41.64,183.941,1804052
-0.000793457,-0.026001,1.02185,0.183105,-1.0376,34.79,-0.001,0.005,103.28,-0.0803528,-0.162338,0,0,0,0,0,41.64,183.959,1804067
-0.00769043,-0.0245361,1.01996,-1.34277,-0.854492,36.0107,0.001,0.011,102.21,-0.0803528,-0.162338,0,0,0,0,0,41.64,183.983,1804097
-0.00335693,-0.0325928,0.998657,-1.58691,-0.671387,35.9497,-0.007,0.008,101.67,-0.0803528,-0.162338,0,0,0,0,0,41.64,183.998,1804112
0.0132446,-0.00823975,1.00641,-0.427246,-1.09863,35.4004,0.013,-0.012,101.13,-0.0803528,-0.162338,0,0,0,0,0,41.64,184.02,1804127
-0.012207,0.00012207,1.00116,0.549316,-0.915527,34.1187,0.025,0.011,100.62,-0.0803223,-0.162338,0,0,0,0,0,41.64,184.038,1804143
0.00732422,-0.0266724,1.02527,1.64795,-1.09863,33.02,-0.004,-0.002,99.61,-0.0802155,-0.162338,0,0,0,0,0,41.64,184.059,1804172
-0.00897217,-0.0158081,1.02307,0.854492,-0.854492,33.4473,0.008,0.011,99.12,-0.0802155,-0.162338,0,0,0,0,0,41.64,184.078,1804187
0.00219727,-0.0423584,1.02118,-0.305176,-1.09863,34.9731,-0.019,0.004,98.6,-0.0802155,-0.162338,0,0,0,0,0,41.64,184.101,1804203
-0.00567627,-0.0205688,1.00769,-1.95312,-0.854492,36.1328,0.003,0.009,97.52,-0.0802155,-0.162338,0,0,0,0,0,41.64,184.119,1804232
0.00610352,0.00524902,1.00134,-1.34277,-1.09863,35.9497,0.027,-0.005,96.99,-0.0802002,-0.162338,0,0,0,0,0,41.64,184.138,1804247
0.00946045,-0.00823975,1.01801,1.34277,-0.732422,34.3628,0.013,-0.007,95.92,-0.0800476,-0.162338,0,0,0,0,0,41.64,184.161,1804277
-0.0148926,-0.0299683,1.02527,1.2207,-0.732422,34.3628,-0.005,0.019,95.41,-0.0800476,-0.162338,0,0,0,0,0,41.64,184.178,1804292
-0.00616455,-0.0209961,1.00623,0.915527,-0.854492,34.6069,0.001,0.009,94.9,-0.0800476,-0.162338,0,0,0,0,0,41.64,184.199,1804307
0.0119019,-0.0282593,1.01593,0.12207,-1.15967,34.6069,-0.007,-0.007,94.38,-0.0800476,-0.162338,0,0,0,0,0,41.64,184.221,1804323
0.00445557,-0.0386963,1.03577,-1.09863,-0.854492,36.6821,-0.015,0,93.29,-0.0800476,-0.162308,0,0,0,0,0,41.64,184.238,1804352
0.00543213,-0.00793457,1.00098,-1.0376,-0.732422,36.1328,0.014,-0.002,92.75,-0.0800476,-0.162277,0,0,0,0,0,41.64,184.259,1804367
0.003479,-0.00646973,0.974854,-0.610352,-0.976562,36.8652,0.015,0,92.19,-0.0800476,-0.162277,0,0,0,0,0,41.64,184.278,1804383
-0.00756836,-0.0195923,1.01624,1.28174,-0.244141,35.2783,0.002,0.01,91.12,-0.0799713,-0.162277,0,0,0,0,0,41.64,184.298,1804412
0.000244141,-0.0305786,1.02686,1.64795,-1.15967,35.3394,-0.008,0.003,90.59,-0.0799103,-0.162277,0,0,0,0,0,41.64,184.318,1804427
-0.000366211,-0.0313721,1.01953,0.12207,-1.2207,35.7056,-0.009,0.003,90.06,-0.0799103,-0.162277,0,0,0,0,0,41.64,184.338,1804443
0.00439453,-0.0151367,1.02142,-0.732422,-1.40381,36.9873,0.006,0,88.95,-0.0799103,-0.162277,0,0,0,0,0,41.64,184.358,1804472
-0.0172729,-0.027832,1.00555,-1.70898,-0.305176,37.0483,-0.006,0.02,88.4,-0.0799103,-0.162262,0,0,0,0,0,41.64,184.38,1804487
0.00457764,0.00280762,0.994385,-0.12207,-0.793457,36.499,0.024,0,87.85,-0.0799103,-0.162247,0,0,0,0,0,41.64,184.398,1804503
-0.0183716,-0.0203857,1.00201,0.915527,-0.732422,35.9497,0,0.021,86.77,-0.079834,-0.162186,0,0,0,0,0,41.64,184.418,1804533
0.00531006,-0.0334473,1.03314,1.40381,-1.77002,36.1328,-0.011,-0.002,86.22,-0.079834,-0.162155,0,0,0,0,0,41.64,184.439,1804548
0.00311279,-0.0378418,1.02808,0,-1.70898,36.377,-0.016,0,85.68,-0.079834,-0.162109,0,0,0,0,0,41.64,184.459,1804563
0.00579834,-0.0221558,1.0083,-1.09863,-1.40381,36.9263,0,-0.002,84.56,-0.079834,-0.161972,0,0,0,0,0,41.64,184.478,1804593
0.0045166,-0.0262451,1.02435,-1.09863,-0.976562,37.1094,-0.004,-0.001,84.01,-0.079834,-0.161896,0,0,0,0,0,41.64,184.499,1804608
-0.000854492,-0.0158691,0.994385,-0.793457,-1.09863,37.8418,0.005,0.004,83.44,-0.079834,-0.161896,0,0,0,0,0,41.64,184.518,1804623
0.000610352,-0.00268555,1.01385,1.34277,-0.549316,37.7197,0.018,0.005,82.32,-0.0797577,-0.161896,0,0,0,0,0,41.64,184.539,1804653
-0.000183105,-0.0371094,1.03406,1.28174,-1.15967,38.3301,-0.016,0.001,81.74,-0.0797119,-0.161896,0,0,0,0,0,41.64,184.56,1804668
0.00427246,-0.0263672,1.01672,0.427246,-1.2207,38.147,-0.005,-0.001,81.17,-0.0797119,-0.161896,0,0,0,0,0,41.64,184.579,1804683
-0.0142822,-0.0148926,1.01971,-1.34277,-1.09863,38.8794,0.003,0.018,80.01,-0.0797119,-0.161896,0,0,0,0,0,41.64,184.599,1804713
0.000671387,-0.0155029,0.996704,-1.58691,-0.549316,38.3911,0.005,0.003,79.43,-0.0797119,-0.161896,0,0,0,0,0,41.64,184.618,1804728
-0.00482178,-0.000427246,1.00061,-0.976562,-0.488281,37.9639,0.019,0.011,78.85,-0.0797119,-0.161896,0,0,0,0,0,41.64,184.639,1804743
6.10352e-05,-0.0160522,1.01392,1.64795,-0.793457,36.1938,0.004,0.003,77.75,-0.0796356,-0.161896,0,0,0,0,0,41.64,184.66,1804773
-0.00653076,-0.0371094,1.01349,0.793457,-1.52588,36.6211,-0.018,0.005,77.2,-0.0795898,-0.161896,0,0,0,0,0,41.64,184.678,1804788
-0.00250244,-0.0507812,1.01831,0.0610352,-0.976562,36.6821,-0.03,-0.001,76.65,-0.0795898,-0.161896,0,0,0,0,0,41.64,184.699,1804803
-0.0178223,-0.0144043,1.01715,-1.64795,-1.09863,36.5601,0.001,0.021,75.54,-0.0795593,-0.161835,0,0,0,0,0,41.64,184.72,1804833
0.00689697,0.0100098,1.02972,-0.610352,-0.915527,32.1655,0.031,0.004,75.04,-0.0794983,-0.161774,0,0,0,0,0,41.64,184.744,1804848
-0.00476074,0.00750732,1.00305,-0.610352,-0.488281,28.7476,0.025,0.014,74.6,-0.079422,-0.161774,0,0,0,0,0,41.62,184.758,1804863
0.00213623,-0.00201416,1.00085,0.610352,-0.549316,24.4141,0.017,0.005,73.81,-0.0792999,-0.161774,0,0,0,0,0,41.62,184.778,1804893
0.0251465,-0.0163574,1.03577,1.15967,-0.549316,23.0103,0.01,-0.019,73.46,-0.0792999,-0.161774,0,0,0,0,0,41.62,184.798,1804908
-0.0143433,-0.0241089,1.03143,0,-0.305176,21.8506,-0.008,0.015,73.13,-0.0792999,-0.161774,0,0,0,0,0,41.62,184.818,1804923
0.010437,0.000671387,1.01837,-1.2207,-0.610352,19.4092,0.022,0,72.51,-0.0792999,-0.161774,0,0,0,0,0,41.62,184.838,1804953
-0.0143433,-0.00909424,1.00983,-1.34277,0,19.2261,0.005,0.019,72.23,-0.0792694,-0.161774,0,0,0,0,0,41.62,184.858,1804968
-0.00701904,-0.0124512,0.989441,0.244141,-0.427246,19.5923,0.004,0.011,71.93,-0.0792236,-0.161774,0,0,0,0,0,41.62,184.878,1804983
-0.0164795,-0.041626,1.02252,0.732422,-0.244141,20.0806,-0.026,0.01,71.34,-0.0792542,-0.161774,0,0,0,0,0,41.62,184.898,1805013
-0.00524902,-0.0471802,1.01764,0.183105,-0.549316,21.0571,-0.027,-0.001,71.03,-0.0793152,-0.161774,0,0,0,0,0,41.62,184.918,1805028
-0.0114746,-0.0346069,1.01349,-1.0376,-0.427246,22.1558,-0.017,0.008,70.7,-0.0794067,-0.161774,0,0,0,0,0,41.62,184.938,1805043
-0.0161743,0.00646973,0.997986,-0.183105,-0.732422,24.1089,0.019,0.026,69.99,-0.0794067,-0.161743,0,0,0,0,0,41.62,184.959,1805073
0.00598145,0.00256348,1.00879,0.671387,-0.427246,20.813,0.022,0.004,69.67,-0.0793762,-0.161713,0,0,0,0,0,41.62,184.978,1805088
0.00872803,0.00836182,1.01245,0.12207,-0.549316,18.0054,0.029,0.003,69.38,-0.0793152,-0.161667,0,0,0,0,0,41.62,184.998,1805103
0.00482178,0.00469971,1.00775,-0.0610352,-0.366211,11.5967,0.023,0.005,68.95,-0.0791016,-0.161667,0,0,0,0,0,41.62,185.02,1805133
0.0124512,0.00640869,1.00708,-0.0610352,-0.549316,8.60596,0.027,0,68.81,-0.0789337,-0.161667,0,0,0,0,0,41.62,185.041,1805148
-0.00939941,-0.0269775,1.01312,-0.427246,0,6.95801,-0.011,0.007,68.7,-0.0787811,-0.161667,0,0,0,0,0,41.62,185.058,1805163
0.00305176,0.0129395,1.00781,-0.976562,-0.0610352,4.15039,0.03,0.01,68.53,-0.0787659,-0.161667,0,0,0,0,0,41.62,185.078,1805193
-0.0232544,-0.00970459,1.00415,-0.305176,0.427246,2.80762,0,0.026,68.47,-0.0787354,-0.161636,0,0,0,0,0,41.62,185.098,1805208
-0.00372314,-0.0262451,1.00922,0.549316,-0.12207,1.0376,-0.008,0.002,68.45,-0.0787048,-0.161591,0,0,0,0,0,41.62,185.118,1805223
-0.017395,-0.0344238,1.01587,-0.427246,0.183105,-0.854492,-0.02,0.011,68.47,-0.0787354,-0.161545,0,0,0,0,0,41.62,185.143,1805253
0.00170898,-0.00842285,0.998047,0,-0.427246,-0.854492,0.01,0.003,68.48,-0.0787659,-0.161545,0,0,0,0,0,41.62,185.158,1805268
-0.0155029,-0.00775146,1.01013,0.427246,-0.12207,-0.12207,0.004,0.019,68.48,-0.0787659,-0.161545,0,0,0,0,0,41.62,185.179,1805283
-0.00219727,-0.0245972,1.01837,0.976562,-0.488281,0.12207,-0.006,0,68.48,-0.0787659,-0.161545,0,0,0,0,0,41.62,185.198,1805298
0.0020752,0.000915527,1.01544,-0.183105,-0.427246,-0.183105,0.018,0.006,68.48,-0.0787659,-0.161545,0,0,0,0,0,41.62,185.219,1805328
-0.000183105,0.00567627,1.0083,-0.0610352,-0.12207,-0.488281,0.022,0.01,68.48,-0.0787354,-0.161545,0,0,0,0,0,41.62,185.238,1805343
0.0221558,-0.0458374,1.01227,-0.12207,0.366211,0.427246,-0.017,-0.029,68.48,-0.0786591,-0.16156,0,0,0,0,0,41.63,185.262,1805373
-0.0117798,-0.00488281,0.998291,-0.183105,0.183105,0.549316,0.007,0.016,68.47,-0.0786591,-0.161591,0,0,0,0,0,41.63,185.279,1805388
-0.00500488,-0.0163574,1.00482,-0.305176,-0.12207,-1.2207,0,0.005,68.49,-0.0786591,-0.161606,0,0,0,0,0,41.63,185.304,1805418
-0.00805664,-0.0358887,1.02039,-0.244141,-0.244141,-2.13623,-0.019,0.001,68.52,-0.0786591,-0.161606,0,0,0,0,0,41.63,185.318,1805433
-0.0126953,-0.0170288,1.00653,-0.0610352,-0.244141,-2.80762,-0.003,0.012,68.55,-0.0786591,-0.161606,0,0,0,0,0,41.63,185.341,1805448
-0.00280762,-0.0144043,1.00238,-0.0610352,-0.366211,-3.54004,0.002,0.004,68.6,-0.0786591,-0.161606,0,0,0,0,0,41.63,185.359,1805464
-0.00115967,-0.00531006,1.01373,-0.0610352,-0.427246,-5.18799,0.011,0.006,68.74,-0.0786591,-0.161606,0,0,0,0,0,41.63,185.379,1805493
0.00378418,0.0088501,1.00854,0.305176,-0.305176,-7.14111,0.026,0.006,68.83,-0.0786285,-0.161606,0,0,0,0,0,41.63,185.399,1805508
-0.015686,0.0180054,1.01306,0.610352,0.366211,-14.0381,0.027,0.027,69,-0.0785675,-0.161575,0,0,0,0,0,41.63,185.419,1805524
0.00976562,-0.00305176,1.01868,-0.0610352,0.0610352,-20.9351,0.016,-0.003,69.54,-0.0784912,-0.161469,0,0,0,0,0,41.63,185.439,1805553
0.0100708,-0.00927734,1.00476,0.12207,0.305176,-23.6816,0.01,-0.006,69.89,-0.0784912,-0.161469,0,0,0,0,0,41.63,185.459,1805568
-0.000671387,-0.0240479,1.02222,0.610352,0.671387,-23.8037,-0.007,-0.001,70.24,-0.0784912,-0.161469,0,0,0,0,0,41.63,185.479,1805584
0.00238037,-0.0175781,1.00909,0.305176,0.915527,-24.6582,0,-0.002,70.61,-0.0784912,-0.161469,0,0,0,0,0,41.63,185.498,1805598
-0.0130615,-0.000183105,1.02179,0.183105,0.549316,-26.001,0.011,0.017,71.38,-0.0784912,-0.161469,0,0,0,0,0,41.63,185.519,1805628
-0.00292969,-0.00341797,1.01233,0.244141,0.671387,-26.6724,0.011,0.006,71.77,-0.0784912,-0.161469,0,0,0,0,0,41.63,185.539,1805644
-0.0127563,-0.0211182,1.0177,-0.244141,0.549316,-25.8789,-0.008,0.01,72.57,-0.0784912,-0.161469,0,0,0,0,0,41.63,185.559,1805673
-0.00726318,-0.0227051,1.01147,-0.793457,0.427246,-25.5737,-0.008,0.004,72.95,-0.0784912,-0.161469,0,0,0,0,0,41.63,185.579,1805688
-0.0106812,-0.0244141,1.01379,-0.671387,0.305176,-23.8037,-0.01,0.007,73.32,-0.0784912,-0.161469,0,0,0,0,0,41.63,185.599,1805704
-0.0262451,0.000488281,1.01862,0.732422,0.427246,-28.8086,0.009,0.029,74.08,-0.0784302,-0.161392,0,0,0,0,0,41.63,185.625,1805733
0.00366211,-0.0349121,1.02258,0.732422,0,-31.189,-0.017,-0.009,74.54,-0.0783997,-0.161316,0,0,0,0,0,41.63,185.638,1805748
0.0195923,-0.015625,1.01312,0.0610352,-0.305176,-33.4473,0.005,-0.019,75.03,-0.0783997,-0.161316,0,0,0,0,0,41.63,185.659,1805764
0.0145264,0.00842285,1.01776,0.610352,0.610352,-37.5977,0.026,-0.008,76.12,-0.0783081,-0.161316,0,0,0,0,0,41.63,185.678,1805794
0.00286865,-0.00842285,0.99469,-0.12207,0.915527,-39.5508,0.007,-0.001,76.7,-0.0782166,-0.161316,0,0,0,0,0,41.63,185.698,1805808
-0.0115967,-0.00720215,1.0351,-0.671387,1.58691,-42.7246,0.006,0.013,77.32,-0.0782166,-0.161316,0,0,0,0,0,41.63,185.718,1805824
0.00970459,-0.0184937,0.997559,0.427246,1.40381,-42.6636,-0.001,-0.01,78.61,-0.0782166,-0.161316,0,0,0,0,0,41.63,185.738,1805854
-0.00128174,-0.0140381,1.00421,0.915527,1.52588,-42.5415,0.001,0,79.25,-0.0782166,-0.161316,0,0,0,0,0,41.63,185.76,1805869
-0.0130005,0.048584,1.02319,0.854492,0.793457,-46.6919,0.06,0.022,79.92,-0.0781708,-0.161301,0,0,0,0,0,41.64,185.778,1805884
-0.026062,-0.0610962,1.00641,-1.09863,0.793457,-53.1006,-0.049,0.017,81.48,-0.0779877,-0.161148,0,0,0,0,0,41.64,185.798,1805914
0.0275269,0.0216675,1.00867,-1.52588,0.854492,-52.5513,0.04,-0.024,82.26,-0.0779114,-0.161057,0,0,0,0,0,41.64,185.818,1805929
-0.00738525,-0.0205688,0.997131,-0.732422,1.2207,-53.7109,-0.006,0.004,83.07,-0.0778046,-0.16098,0,0,0,0,0,41.64,185.839,1805944
-0.00244141,0.00854492,0.993347,0,0.793457,-52.4292,0.023,0.002,84.65,-0.077652,-0.160873,0,0,0,0,0,41.64,185.86,1805974
-0.0145874,0.00012207,1.00427,0.427246,1.28174,-54.4434,0.014,0.013,85.46,-0.0775452,-0.160828,0,0,0,0,0,41.64,185.878,1805989
0.0245361,-0.0255127,1.00079,0,0.976562,-53.9551,-0.008,-0.026,86.27,-0.0775452,-0.160797,0,0,0,0,0,41.64,185.898,1806004
0.0158691,-0.0571289,1.03815,-0.488281,2.50244,-61.2793,-0.04,-0.019,88,-0.0775757,-0.160767,0,0,0,0,0,41.64,185.92,1806034
0.0323486,0.0151978,1.01385,-0.183105,1.09863,-65.4907,0.031,-0.034,88.96,-0.0776215,-0.160812,0,0,0,0,0,41.64,185.938,1806049
-0.0107422,-0.0377808,0.997681,-0.244141,1.95312,-69.8242,-0.023,0.008,89.99,-0.077652,-0.160858,0,0,0,0,0,41.64,185.959,1806064
0.0595703,-0.0368652,1.0589,-0.366211,1.89209,-70.4956,-0.023,-0.061,92.1,-0.0777435,-0.161011,0,0,0,0,0,41.64,185.978,1806094
-0.0163574,0.0239868,1.01624,0.427246,1.83105,-71.3501,0.039,0.011,93.16,-0.077774,-0.161148,0,0,0,0,0,41.64,185.998,1806109
-0.0743408,0.00933838,1.00403,-0.427246,1.46484,-72.2656,0.029,0.069,94.24,-0.0777435,-0.161224,0,0,0,0,0,41.64,186.018,1806124
0.0239868,-0.0205078,1.04779,-1.15967,2.2583,-72.1436,-0.007,-0.027,96.43,-0.077652,-0.16127,0,0,0,0,0,41.64,186.038,1806154
0.0362549,0.00238037,0.987488,-0.610352,0.976562,-71.5332,0.012,-0.041,97.5,-0.077652,-0.161331,0,0,0,0,0,41.64,186.061,1806169
0.0166016,-0.00604248,1.02417,-0.183105,0.488281,-74.8291,0.006,-0.021,98.6,-0.077652,-0.161453,0,0,0,0,0,41.64,186.081,1806184
0.0198364,-0.0515747,1.03589,-0.12207,1.15967,-79.4678,-0.038,-0.016,100.98,-0.0776978,-0.161591,0,0,0,0,0,41.64,186.099,1806214
0.0689087,-0.00512695,1.04822,-0.488281,1.09863,-80.0781,-0.003,-0.073,102.17,-0.0777588,-0.161697,0,0,0,0,0,41.64,186.119,1806229
0.000610352,-0.0599976,0.993225,-0.366211,2.2583,-85.4492,-0.043,0.007,103.43,-0.0778503,-0.161865,0,0,0,0,0,41.64,186.138,1806244
0.0462036,0.0401001,1.01874,0,2.86865,-84.9609,0.041,-0.063,106,-0.0782013,-0.162186,0,0,0,0,0,41.64,186.16,1806274
0.0588989,-0.0113525,1.05145,-0.854492,2.01416,-88.0737,-0.012,-0.061,107.3,-0.0783539,-0.16246,0,0,0,0,0,41.64,186.179,1806289
-0.0733032,-0.076355,0.988098,-1.0376,4.39453,-88.501,-0.033,0.085,108.63,-0.078537,-0.162704,0,0,0,0,0,41.64,186.199,1806304
0.0900269,-0.0811768,1.09656,-0.488281,2.86865,-85.9375,-0.092,-0.065,111.22,-0.079071,-0.163132,0,0,0,0,0,41.64,186.219,1806334
-0.0448608,0.019165,1.01434,0.366211,3.72314,-89.1113,0.049,0.023,112.54,-0.0794067,-0.163391,0,0,0,0,0,41.64,186.238,1806349
-0.0498047,-0.0280151,0.937134,-1.15967,3.35693,-89.5386,0.008,0.045,113.89,-0.0796967,-0.163605,0,0,0,0,0,41.64,186.258,1806364
0.0396118,0.0388184,1.02295,-1.0376,2.19727,-91.0644,0.031,-0.065,116.57,-0.0803375,-0.164078,0,0,0,0,0,41.62,186.279,1806394
-0.0357056,-0.0652466,0.963928,-0.366211,2.92969,-98.6938,-0.027,0.049,118.01,-0.0806732,-0.164352,0,0,0,0,0,41.62,186.298,1806409
0.0679321,-0.0293579,1.008,-1.09863,2.62451,-98.3887,-0.045,-0.058,119.49,-0.0810394,-0.164642,0,0,0,0,0,41.62,186.319,1806424
-0.0748291,-0.0961304,0.995667,-0.366211,3.72314,-103.577,-0.027,0.1,122.52,-0.0816803,-0.165482,0,0,0,0,0,41.62,186.34,1806454
0.0618896,-0.0924683,1.02216,1.0376,5.12695,-102.783,-0.098,-0.014,124.07,-0.0820618,-0.165848,0,0,0,0,0,41.62,186.36,1806469
0.0336304,-0.012146,1.02258,0.549316,3.84521,-101.624,-0.016,-0.036,125.6,-0.0825195,-0.166245,0,0,0,0,0,41.62,186.381,1806484
0.0745239,-0.106628,1.01483,1.09863,3.96728,-102.783,-0.118,-0.008,128.67,-0.0834656,-0.167038,0,0,0,0,0,41.62,186.399,1806514
-6.10352e-05,-0.0238647,0.993896,0.12207,3.60107,-102.539,-0.007,-0.001,130.21,-0.0840454,-0.167038,0,0,0,0,0,41.62,186.418,1806529
-0.024231,0.0186157,1.02832,-0.427246,3.84521,-101.074,0.04,-0.013,131.73,-0.08461,-0.167038,0,0,0,0,0,41.62,186.441,1806544
-0.0114136,-0.000793457,0.976257,-1.52588,2.0752,-101.562,0.017,-0.01,134.78,-0.0857849,-0.167175,0,0,0,0,0,41.62,186.458,1806574
-0.0196533,-0.0395508,1.02246,-0.610352,2.50244,-101.685,-0.003,0.021,136.3,-0.0857849,-0.167252,0,0,0,0,0,41.62,186.478,1806589
0.0239868,-0.145264,1.05493,0,3.2959,-102.112,-0.106,0.07,137.84,-0.0858612,-0.167267,0,0,0,0,0,41.62,186.498,1806604
0.0181274,0.00238037,1.0033,-0.0610352,2.0752,-102.051,-0.003,-0.034,139.37,-0.0859985,-0.167252,0,0,0,0,0,41.62,186.517,1806619
0.0461426,-0.0955811,1.03381,0.488281,2.56348,-101.44,-0.087,0.026,142.41,-0.0864258,-0.167252,0,0,0,0,0,41.62,186.54,1806649
0.0357666,-0.041626,1.00854,-0.488281,2.13623,-102.478,-0.045,-0.008,143.94,-0.0867615,-0.167236,0,0,0,0,0,41.62,186.559,1806664
0.0202026,-0.0272827,0.944153,-1.28174,3.23486,-101.807,-0.024,-0.008,148.55,-0.0879974,-0.16745,0,0,0,0,0,41.62,186.599,1806709
0.000671387,0.0078125,1.0094,0.366211,3.96728,-101.501,0.009,-0.03,150.08,-0.0884705,-0.167587,0,0,0,0,0,41.62,186.618,1806725
0.0196533,0.0314331,0.977783,0,2.99072,-102.234,0.001,-0.06,153.12,-0.0895233,-0.167953,0,0,0,0,0,41.62,186.638,1806754
0.0134277,-0.0657349,1.00867,0.854492,3.11279,-102.6,-0.036,0.029,154.66,-0.0900879,-0.168167,0,0,0,0,0,41.62,186.658,1806769
0.0748291,-0.0999146,1.03119,-0.549316,1.89209,-102.966,-0.105,0.036,156.2,-0.0907593,-0.16835,0,0,0,0,0,41.62,186.678,1806785
0.0136108,-0.0606079,1.00781,-0.12207,3.23486,-104.065,-0.032,0.027,159.32,-0.0921631,-0.168747,0,0,0,0,0,41.62,186.698,1806814
0.0174561,-0.0123901,1.05615,0.12207,3.05176,-104.553,-0.018,-0.02,160.88,-0.0928802,-0.168961,0,0,0,0,0,41.62,186.719,1806829
-0.0283813,-0.0153809,0.994446,0.793457,4.3335,-105.591,0.023,-0.001,162.46,-0.0936127,-0.169189,0,0,0,0,0,41.62,186.738,1806845
0.0733643,0.00549316,1.02643,0.12207,2.31934,-106.689,-0.069,-0.049,165.66,-0.0951385,-0.16922,0,0,0,0,0,41.62,186.758,1806874
-0.0452271,-0.0240479,1.00336,0.671387,4.63867,-107.666,0.038,0.008,167.26,-0.0959625,-0.169281,0,0,0,0,0,41.62,186.782,1806889
0.0294189,-0.0859375,1.04675,1.64795,3.90625,-108.582,-0.047,0.052,168.88,-0.0967865,-0.169296,0,0,0,0,0,41.64,186.798,1806905
0.0518188,0.0192871,0.997498,0.366211,3.41797,-107.849,-0.049,-0.052,170.51,-0.0976868,-0.169327,0,0,0,0,0,41.64,186.818,1806919
0.0119019,0.0216675,1.04596,2.68555,2.56348,-107.971,-0.013,-0.047,173.75,-0.0994263,-0.169693,0,0,0,0,0,41.64,186.838,1806949
0.00408936,-0.0515747,1.04053,2.13623,3.60107,-104.248,-0.012,0.027,175.33,-0.100296,-0.169952,0,0,0,0,0,41.64,186.858,1806965
0.0698853,-0.0148926,1.03314,0.0610352,1.09863,-104.065,-0.076,-0.01,178.46,-0.102036,-0.170425,0,0,0,0,0,41.64,186.878,1806994
-0.02771,0.0293579,1.00269,-0.427246,2.68555,-102.051,0.022,-0.052,-179.99,-0.102951,-0.170715,0,0,0,0,0,41.64,186.899,1807009
-0.00762939,0.00378418,1.02612,-0.366211,1.89209,-101.807,0,-0.027,-178.46,-0.103836,-0.171051,0,0,0,0,0,41.64,186.918,1807025
-0.00531006,0.135986,0.980957,0.366211,2.19727,-99.3652,-0.012,-0.158,-175.44,-0.10582,-0.171921,0,0,0,0,0,41.64,186.938,1807054
-0.00701904,-0.0172119,1.0415,1.52588,2.19727,-98.938,0.001,-0.006,-173.95,-0.106842,-0.172531,0,0,0,0,0,41.64,186.958,1807069
0.129456,-0.0570679,1.02612,0.305176,1.58691,-99.8535,-0.128,0.05,-172.47,-0.107971,-0.173111,0,0,0,0,0,41.64,186.979,1807085
-0.00378418,-0.10498,1.052,0.366211,3.23486,-99.3042,0.014,0.08,-169.48,-0.110291,-0.174149,0,0,0,0,0,41.64,186.998,1807114
0.0728149,-0.03479,1.02838,0,3.35693,-101.318,-0.072,0.027,-167.97,-0.111465,-0.174576,0,0,0,0,0,41.64,187.019,1807129
-0.071106,0.0598145,0.997314,0.366211,5.12695,-101.685,0.046,-0.096,-166.45,-0.112671,-0.175049,0,0,0,0,0,41.64,187.039,1807145
0.0888062,0.0125122,0.98999,0.671387,3.54004,-102.539,-0.098,-0.007,-163.39,-0.115173,-0.176102,0,0,0,0,0,41.64,187.059,1807174
-0.0784912,0.0261841,0.968506,2.13623,4.82178,-103.638,0.056,-0.068,-161.84,-0.116501,-0.176697,0,0,0,0,0,41.64,187.079,1807189
0.0220337,0.020813,1.02692,1.34277,2.74658,-102.966,-0.039,-0.031,-160.29,-0.117828,-0.177338,0,0,0,0,0,41.64,187.098,1807205
0.0418701,-0.083313,1.02063,0.12207,2.44141,-103.821,-0.02,0.073,-158.74,-0.119186,-0.177963,0,0,0,0,0,41.64,187.119,1807220
0.0321655,-0.0140991,1.02179,0.305176,2.01416,-104.065,-0.036,0.007,-155.63,-0.121872,-0.179199,0,0,0,0,0,41.64,187.139,1807250
0.101379,0.0413208,0.989807,-0.793457,1.46484,-104.675,-0.122,-0.01,-154.06,-0.123322,-0.179199,0,0,0,0,0,41.64,187.159,1807265
-0.0585327,0.0360107,0.986633,0.549316,2.86865,-105.53,0.021,-0.076,-152.48,-0.124832,-0.17926,0,0,0,0,0,41.64,187.178,1807280
0.0396118,-0.00665283,1.05664,1.64795,3.11279,-105.347,-0.045,0.007,-149.33,-0.128021,-0.17952,0,0,0,0,0,41.64,187.199,1807310
-0.000793457,-0.0436401,1.00177,0.610352,3.96728,-105.408,0.009,0.02,-147.74,-0.129684,-0.179642,0,0,0,0,0,41.64,187.218,1807325
-0.0130615,-0.0483398,1.0174,-1.15967,4.5166,-105.53,0.023,0.015,-144.59,-0.133087,-0.179703,0,0,0,0,0,41.64,187.239,1807355
0.0153809,-0.0591431,0.981934,-0.366211,3.84521,-104.736,0.007,0.042,-143.01,-0.134781,-0.179657,0,0,0,0,0,41.64,187.26,1807370
0.0720215,0.0126953,1.00757,0.183105,3.60107,-104.431,-0.08,0.02,-141.45,-0.13652,-0.179581,0,0,0,0,0,41.64,187.28,1807385
-0.055481,0.0661621,1.02997,0.12207,4.69971,-104.736,-0.017,-0.101,-139.87,-0.138321,-0.17955,0,0,0,0,0,41.64,187.298,1807400
0.108398,-0.0863647,1.01556,1.2207,2.74658,-104.248,-0.037,0.124,-136.75,-0.141983,-0.179504,0,0,0,0,0,41.63,187.318,1807430
-0.0482178,-0.034729,1.03717,-0.244141,3.78418,-105.591,0.039,-0.022,-135.16,-0.143814,-0.179352,0,0,0,0,0,41.63,187.338,1807445
0.000732422,-0.0811768,1.02649,0,3.60107,-106.201,0.038,0.045,-133.57,-0.145599,-0.179184,0,0,0,0,0,41.63,187.359,1807460
-0.0384521,0.0554199,1.00342,0.427246,3.41797,-106.323,-0.036,-0.075,-130.4,-0.149261,-0.178635,0,0,0,0,0,41.63,187.383,1807490
-0.0229492,-0.0189819,0.979675,1.77002,4.27246,-106.567,0.01,-0.014,-128.79,-0.151138,-0.178406,0,0,0,0,0,41.63,187.4,1807505
0.103149,0.0134888,0.992676,1.77002,2.44141,-105.469,-0.092,0.065,-127.2,-0.153076,-0.178146,0,0,0,0,0,41.63,187.419,1807520
0.017334,-0.053833,1.01221,3.60107,4.02832,-106.934,0.016,0.037,-124.02,-0.156998,-0.17749,0,0,0,0,0,41.63,187.438,1807550
0.0232544,-0.0139771,1.01001,1.52588,2.56348,-105.591,-0.019,0.021,-122.43,-0.156998,-0.177109,0,0,0,0,0,41.63,187.458,1807565
-0.000305176,0.0297852,0.979797,0.732422,3.66211,-106.934,-0.043,-0.019,-120.83,-0.157043,-0.176712,0,0,0,0,0,41.63,187.478,1807580
-0.0818481,-0.0474243,1.02301,0.793457,3.41797,-106.201,0.061,-0.053,-117.62,-0.157211,-0.175888,0,0,0,0,0,41.63,187.499,1807610
0.00421143,0.00671387,1.02325,0.793457,3.17383,-107.117,-0.027,-0.001,-116.02,-0.157272,-0.175507,0,0,0,0,0,41.63,187.519,1807625
-0.0707397,-0.0463867,1.03729,2.01416,3.23486,-106.873,0.051,-0.048,-112.79,-0.157471,-0.174744,0,0,0,0,0,41.63,187.54,1807655
0.0392456,-0.00817871,1.02338,1.83105,3.17383,-107.605,-0.024,0.04,-111.19,-0.157547,-0.174362,0,0,0,0,0,41.63,187.558,1807670
0.0894165,0.000549316,0.969055,1.2207,1.89209,-108.765,-0.047,0.085,-109.55,-0.157669,-0.173904,0,0,0,0,0,41.63,187.579,1807685
0.0610352,0.0668945,0.999939,-0.488281,2.13623,-109.07,-0.098,0.042,-106.3,-0.158081,-0.172989,0,0,0,0,0,41.63,187.6,1807715
-0.00933838,-0.0593872,0.988831,0.732422,3.05176,-109.985,0.043,0.008,-104.65,-0.158371,-0.172516,0,0,0,0,0,41.63,187.618,1807730
-0.0460205,-0.0122681,1.05682,0.915527,3.78418,-106.75,0.004,-0.038,-103.04,-0.15863,-0.172058,0,0,0,0,0,41.63,187.638,1807745
0.0876465,0.0320435,1.00659,-0.12207,2.44141,-107.361,-0.066,0.083,-101.44,-0.15892,-0.17157,0,0,0,0,0,41.63,187.658,1807760
-0.0435791,0.0617676,1.01013,1.70898,2.38037,-104.553,-0.071,-0.046,-98.23,-0.159729,-0.170471,0,0,0,0,0,41.63,187.678,1807790
0.0992432,0.0112305,0.959412,0.549316,0.732422,-106.506,-0.038,0.102,-96.65,-0.160233,-0.169891,0,0,0,0,0,41.63,187.698,1807805
-0.0372314,-0.0985107,0.998169,0.671387,2.31934,-106.445,0.085,-0.022,-95.06,-0.160706,-0.169266,0,0,0,0,0,41.63,187.719,1807820
0.239075,-0.0551758,0.911133,-3.05176,0.549316,-103.271,0.033,0.247,-91.91,-0.16124,-0.16803,0,0,0,0,0,41.63,187.738,1807850
-0.00402832,0.213867,0.955017,2.50244,1.34277,-108.765,-0.229,0.001,-90.28,-0.161591,-0.167175,0,0,0,0,0,41.63,187.758,1807865
0.10907,-0.0641479,1.005,-0.488281,2.38037,-107.422,0.054,0.114,-87.09,-0.162567,-0.165588,0,0,0,0,0,41.63,187.784,1807895
-0.0338135,-0.0194092,1.02759,0.244141,3.60107,-108.032,0.001,-0.026,-85.46,-0.16301,-0.164719,0,0,0,0,0,41.63,187.798,1807910
0.00183105,-0.106506,1.02386,-1.09863,1.77002,-106.567,0.091,0,-83.85,-0.163391,-0.163864,0,0,0,0,0,41.64,187.821,1807925
0.0350952,0.104736,0.995361,0.732422,1.89209,-106.812,-0.111,0.061,-80.66,-0.164185,-0.161957,0,0,0,0,0,41.64,187.838,1807955
-0.000183105,0.0148315,0.967102,0.976562,0.854492,-106.812,-0.027,0.012,-79.06,-0.164734,-0.160919,0,0,0,0,0,41.64,187.858,1807970
-0.0227661,0.0157471,1.03583,1.83105,3.2959,-106.689,-0.033,-0.007,-77.46,-0.165314,-0.160919,0,0,0,0,0,41.64,187.878,1807985
0.0745239,-0.0214233,0.931885,-0.671387,0.427246,-108.032,0.029,0.076,-74.23,-0.166641,-0.160782,0,0,0,0,0,41.64,187.898,1808015
-0.0939331,-0.0610962,1.1189,-0.244141,2.80762,-107.239,0.016,-0.094,-72.63,-0.167282,-0.16069,0,0,0,0,0,41.64,187.918,1808030
0.0198975,-0.157593,1.08081,-1.58691,2.80762,-106.628,0.144,-0.019,-71.03,-0.167816,-0.160675,0,0,0,0,0,41.64,187.938,1808046
-0.0316772,0.0491333,1.05963,-0.0610352,1.70898,-106.018,-0.069,0.002,-67.79,-0.168625,-0.160553,0,0,0,0,0,41.64,187.96,1808075
0.0219116,-0.0020752,0.992859,-1.15967,0.976562,-106.689,0,0.032,-66.2,-0.169098,-0.160446,0,0,0,0,0,41.64,187.978,1808090
0.0311279,-0.0297241,1.01062,-0.183105,2.19727,-105.835,0.028,0.028,-64.6,-0.16954,-0.160294,0,0,0,0,0,41.64,187.999,1808106
0.0101318,-0.0571899,0.978516,-0.915527,1.2207,-106.14,0.044,-0.004,-61.44,-0.170532,-0.160126,0,0,0,0,0,41.64,188.019,1808135
-0.0109863,-0.0421143,1.02271,-0.793457,3.72314,-106.018,0.019,-0.016,-59.85,-0.17099,-0.160126,0,0,0,0,0,41.64,188.049,1808150
0.0465698,0.0942993,0.962769,-0.915527,2.68555,-103.882,-0.066,0.104,-58.28,-0.171494,-0.160065,0,0,0,0,0,41.64,188.06,1808166
-0.0149536,-0.012207,1.02094,-0.244141,2.99072,-105.896,-0.009,-0.003,-55.11,-0.172348,-0.159714,0,0,0,0,0,41.64,188.081,1808195
-0.0131226,0.065918,1.02869,0.0610352,3.60107,-106.262,-0.07,0.045,-53.51,-0.172806,-0.1595,0,0,0,0,0,41.64,188.1,1808210
0.0803223,-0.0201416,0.993164,-0.549316,2.13623,-108.093,0.055,0.067,-51.9,-0.173264,-0.15921,0,0,0,0,0,41.64,188.119,1808226
-0.038147,0.0224609,1.01959,-1.0376,2.38037,-105.835,-0.051,0.002,-50.3,-0.173721,-0.158859,0,0,0,0,0,41.64,188.139,1808240
0.0422974,-0.142639,1.0083,-1.58691,2.13623,-102.112,0.124,-0.047,-47.17,-0.174789,-0.158096,0,0,0,0,0,41.64,188.158,1808270
-0.0553589,-0.100037,1.06396,-0.793457,2.92969,-99.0601,0.023,-0.089,-45.68,-0.175186,-0.157791,0,0,0,0,0,41.64,188.182,1808286
0.0167847,-0.0858154,1.03748,-0.732422,2.74658,-97.5342,0.063,-0.029,-44.21,-0.175552,-0.157578,0,0,0,0,0,41.64,188.198,1808300
-0.0246582,0.0410156,0.997681,-0.12207,2.74658,-91.4917,-0.054,0.034,-41.41,-0.176071,-0.157074,0,0,0,0,0,41.64,188.22,1808330
0.0210571,0.00732422,1.02435,-0.732422,2.99072,-90.21,0.003,0.04,-40.05,-0.176361,-0.156738,0,0,0,0,0,41.64,188.238,1808346
0.0808716,-0.0622559,1.02991,-1.89209,1.58691,-87.2192,0.093,0.024,-38.72,-0.176575,-0.156372,0,0,0,0,0,41.64,188.258,1808360
-0.0100708,0.00183105,1.02759,-0.671387,3.60107,-88.623,-0.016,0.019,-36.06,-0.176865,-0.155716,0,0,0,0,0,41.64,188.28,1808390
0.0679321,-0.0263672,1.02136,-1.52588,2.31934,-88.8672,0.063,0.04,-34.73,-0.176987,-0.155365,0,0,0,0,0,41.64,188.301,1808406
-0.0262451,-0.0335693,1.0462,-0.244141,3.66211,-84.4116,-0.01,-0.016,-32.13,-0.177094,-0.154861,0,0,0,0,0,41.59,188.32,1808435
0.00408936,-0.0130005,1.06244,-0.0610352,4.27246,-82.2754,0.004,0.017,-30.88,-0.177094,-0.154861,0,0,0,0,0,41.59,188.339,1808450
0.0423584,-0.0820923,0.969727,-1.09863,2.2583,-79.895,0.072,-0.025,-29.68,-0.177032,-0.154877,0,0,0,0,0,41.59,188.364,1808466
-0.0423584,-0.117798,0.995056,-1.40381,3.23486,-80.5054,0.014,-0.097,-28.47,-0.176926,-0.154968,0,0,0,0,0,41.59,188.378,1808480
0.13147,0.0280151,1.00677,-1.64795,1.52588,-74.585,0.102,0.111,-26.16,-0.176697,-0.155273,0,0,0,0,0,41.59,188.403,1808510
-0.0817871,-0.0632935,1.05585,0.366211,3.11279,-74.4019,-0.051,-0.061,-23.91,-0.176392,-0.15535,0,0,0,0,0,41.59,188.434,1808541
0.0384521,-0.0721436,1.02441,0.549316,2.86865,-77.1484,0.061,-0.024,-21.68,-0.176102,-0.155457,0,0,0,0,0,41.59,188.458,1808571
-0.0463867,-0.0175781,0.965942,0.0610352,2.50244,-76.355,-0.037,-0.005,-20.52,-0.175919,-0.155518,0,0,0,0,0,41.59,188.478,1808586
0.0581055,0.053833,0.988464,-0.183105,3.05176,-75.8057,0.039,0.097,-18.25,-0.175583,-0.155487,0,0,0,0,0,41.59,188.504,1808616
-0.0245972,0.0172119,0.956726,0.305176,2.19727,-78.186,-0.027,0.036,-17.08,-0.1754,-0.155319,0,0,0,0,0,41.59,188.518,1808631
-0.0953369,0.012085,0.992493,0.183105,3.05176,-77.3926,-0.092,0.013,-15.91,-0.175293,-0.155136,0,0,0,0,0,41.59,188.539,1808646
0.0335083,-0.0767212,1.0578,0.183105,3.2959,-77.6367,0.055,-0.035,-14.76,-0.175201,-0.154968,0,0,0,0,0,41.59,188.559,1808661
-0.0123901,-0.0549927,1.005,-0.0610352,2.01416,-78.5522,0.004,-0.028,-12.42,-0.17485,-0.154694,0,0,0,0,0,41.59,188.58,1808691
0.0184326,-0.00866699,0.986023,-0.488281,2.01416,-77.1484,0.025,0.023,-11.25,-0.174622,-0.154556,0,0,0,0,0,41.59,188.6,1808706
0.0166626,0.0519409,1.02106,-0.427246,2.38037,-77.0874,0.013,0.083,-10.1,-0.174377,-0.154358,0,0,0,0,0,41.59,188.619,1808721
-0.0394287,-0.0518188,1.03723,0.976562,3.17383,-76.9043,-0.024,-0.027,-7.79,-0.17392,-0.153839,0,0,0,0,0,41.59,188.639,1808751
-0.000488281,0.0230103,1.00781,1.64795,2.80762,-75.7446,0.004,0.051,-6.65,-0.173737,-0.153564,0,0,0,0,0,41.59,188.658,1808766
0.0637207,-0.0118408,1.01282,0.976562,2.19727,-76.2329,0.073,0.02,-4.38,-0.173355,-0.152954,0,0,0,0,0,41.59,188.681,1808796
0.00128174,0.0264893,1.00629,0.671387,2.31934,-77.6978,0.009,0.054,-3.22,-0.173096,-0.152588,0,0,0,0,0,41.59,188.698,1808811
-0.0168457,-0.0606079,1.01111,0.244141,3.23486,-77.2095,-0.003,-0.033,-2.06,-0.173096,-0.152222,0,0,0,0,0,41.59,188.719,1808826
0.0415039,-0.0480347,1.04584,0.305176,3.05176,-78.6743,0.053,-0.019,-0.89,-0.17305,-0.151886,0,0,0,0,0,41.59,188.738,1808841
-0.0289917,-0.0579834,1.01489,0.366211,2.80762,-79.7729,-0.017,-0.03,1.48,-0.172974,-0.151245,0,0,0,0,0,41.59,188.759,1808871
0.00317383,-0.0595093,0.999451,0.488281,3.23486,-79.6509,0.013,-0.033,2.68,-0.172974,-0.15097,0,0,0,0,0,41.59,188.779,1808886
-0.0266113,-0.053833,1.05371,-0.244141,3.479,-80.5054,-0.015,-0.024,3.88,-0.172974,-0.150742,0,0,0,0,0,41.59,188.799,1808901
-0.0875854,-0.0925903,0.981567,-0.671387,3.60107,-78.6133,-0.082,-0.054,6.3,-0.173019,-0.150406,0,0,0,0,0,41.59,188.819,1808931
0.0491943,-0.0708008,1.0116,0.610352,2.86865,-75.5005,0.056,-0.048,7.43,-0.17308,-0.150345,0,0,0,0,0,41.59,188.838,1808946
0.0274048,-0.000488281,1.0072,0.976562,1.83105,-77.5757,0.044,0.023,8.59,-0.17308,-0.150299,0,0,0,0,0,41.59,188.859,1808961
0.015564,-0.0146484,1.02252,3.84521,2.68555,-73.7915,0.03,0.01,10.87,-0.173157,-0.15036,0,0,0,0,0,41.59,188.879,1808991
-0.0827026,-0.105896,1.0791,4.39453,4.45557,-77.1484,-0.083,-0.057,12.01,-0.173264,-0.150452,0,0,0,0,0,41.59,188.898,1809006
-0.0253296,-0.0189819,1.00983,2.01416,3.2959,-76.4771,-0.009,0.013,14.33,-0.173401,-0.151016,0,0,0,0,0,41.59,188.919,1809036
0.019165,0.0231323,1.06744,1.0376,2.44141,-78.5522,0.046,0.043,15.5,-0.17337,-0.151306,0,0,0,0,0,41.59,188.938,1809051
0.000305176,-0.00921631,0.974243,-0.976562,2.19727,-79.7119,0.017,0.015,16.69,-0.173309,-0.15155,0,0,0,0,0,41.59,188.958,1809066
-0.0734863,-0.0357666,1.0274,0.305176,3.96728,-79.4678,-0.058,0.013,17.88,-0.173264,-0.151779,0,0,0,0,0,41.59,188.978,1809081
-0.00878906,-0.0985107,1.00232,0.610352,3.23486,-79.4067,-0.019,-0.065,20.26,-0.173294,-0.152313,0,0,0,0,0,41.59,189,1809111
-0.0390015,-0.0471191,0.993225,-0.549316,2.62451,-79.2236,-0.029,-0.006,21.45,-0.173355,-0.152664,0,0,0,0,0,41.59,189.021,1809126
-0.0601807,-0.0432739,0.990479,2.31934,3.41797,-77.5757,-0.047,0.007,23.81,-0.173492,-0.152664,0,0,0,0,0,41.59,189.039,1809156
-0.0127563,-0.0751953,1.05951,2.86865,2.31934,-78.2471,-0.016,-0.039,24.98,-0.173599,-0.152695,0,0,0,0,0,41.59,189.059,1809171
-0.00933838,-0.146729,0.993774,1.15967,2.44141,-78.8574,-0.047,-0.105,26.16,-0.173752,-0.152802,0,0,0,0,0,41.59,189.079,1809186
-0.0410767,-0.0228271,1.06604,1.2207,2.74658,-76.2939,-0.018,0.021,27.31,-0.173965,-0.152985,0,0,0,0,0,41.59,189.099,1809201
-0.0176392,-0.0181274,0.931946,0.854492,2.80762,-77.8198,0,0.012,29.66,-0.174316,-0.153305,0,0,0,0,0,41.59,189.119,1809231
-0.0252075,0.00592041,1.11237,1.70898,1.83105,-77.6367,0.011,0.04,30.82,-0.174484,-0.153427,0,0,0,0,0,41.59,189.138,1809246
-0.0344849,-0.0045166,0.977966,2.01416,2.86865,-80.2612,-0.005,0.033,32.02,-0.174484,-0.153503,0,0,0,0,0,41.59,189.158,1809261
0.0344238,-0.046875,1.08563,-0.244141,1.58691,-79.0405,0.032,-0.039,34.41,-0.174515,-0.153549,0,0,0,0,0,41.59,189.182,1809291
-0.0453491,-0.0375366,0.947266,-0.427246,3.54004,-78.9185,-0.032,0.012,35.59,-0.17453,-0.153595,0,0,0,0,0,41.59,189.201,1809306
