raw_accel_x,raw_accel_y,raw_accel_z,raw_gyro_x,raw_gyro_y,raw_gyro_z,world_accel_x,world_accel_y,yaw,x,y,z,left_encoder_rate,right_encoder_rate,left_motor,right_motor,temp,fpga time,navx time
0.00775146,0.00665283,1.01251,-0.0610352,-0.12207,0.0610352,0.001,-0.004,-0.16,-6.10352e-05,-1.52588e-05,0,0,0,0,0,41.75,107.714,1727826
0.00775146,0.00665283,1.01251,-0.0610352,-0.12207,0.0610352,0.001,-0.004,-0.16,-6.10352e-05,-1.52588e-05,0,0,0,0,0,41.75,107.724,1727826
0.0098877,0.0111084,1.01501,0.0610352,-0.0610352,-0.0610352,0.003,0,0,0,0,0,0,0,0,0,41.75,107.739,1727840
0.00756836,0.0111084,1.01074,-0.0610352,-0.0610352,0.0610352,0,0,0,0,0,0,0,0,0,0,41.75,107.76,1727870
0.0088501,0.0110474,1.00922,0.12207,0,0,0.002,0,0,0,0,0,0,0,0,0,41.75,107.779,1727886
0.00793457,0.0133057,1.00934,0,0.12207,0.0610352,0.001,0.001,0,0,0,0,0,0,0,0,41.75,107.799,1727901
0.00439453,0.0131226,1.01111,-0.12207,-0.12207,0.0610352,-0.002,0.001,0,0,0,0,0,0,0,0,41.75,107.818,1727930
0.00750732,0.0109863,1.01965,-0.0610352,-0.0610352,0.0610352,0,0,0,0,0,0,0,0,0,0,41.75,107.838,1727946
0.00823975,0.00946045,1.0155,0,-0.0610352,-0.0610352,0.001,-0.002,0,0,0,0,0,0,0,0,41.75,107.864,1727975
0.00616455,0.00878906,1.01428,-0.0610352,-0.12207,-0.0610352,0,-0.002,0,0,0,0,0,0,0,0,41.75,107.879,1727990
0.00531006,0.0101318,1.01093,-0.0610352,-0.0610352,0.0610352,-0.001,-0.001,0,0,0,0,0,0,0,0,41.75,107.899,1728006
0.00848389,0.00909424,1.01038,0,0.0610352,0.12207,0.001,-0.002,0,0,0,0,0,0,0,0,41.75,107.919,1728020
0.00579834,0.0124512,1.01093,0,0,0,0,0.001,0,0,0,0,0,0,0,0,41.75,107.939,1728050
0.00964355,0.0140991,1.01251,0.0610352,0,-0.0610352,0.002,0.002,0,0,0,0,0,0,0,0,41.75,107.959,1728066
0.00622559,0.0101929,1.01453,-0.0610352,-0.0610352,-0.0610352,0,-0.001,0,0,0,0,0,0,0,0,41.75,107.979,1728080
0.00689697,0.0142822,1.01245,0.0610352,0.12207,0,0,0.002,0,0,0,0,0,0,0,0,41.75,107.998,1728110
0.00457764,0.00982666,1.005,-0.0610352,0,-0.12207,-0.002,-0.001,0,0,0,0,0,0,0,0,41.75,108.019,1728126
0.00695801,0.0148315,1.01514,0,0.0610352,-0.0610352,0,0.003,0,0,0,0,0,0,0,0,41.75,108.039,1728140
0.00561523,0.010376,1.01288,0,0.0610352,0,-0.001,-0.001,0,0,0,0,0,0,0,0,41.75,108.058,1728170
0.00579834,0.00793457,1.00745,-0.0610352,-0.12207,-0.0610352,0,-0.003,0,0,0,0,0,0,0,0,41.75,108.079,1728186
0.0078125,0.0113525,1.01526,0,0,0.0610352,0.001,0,0,0,0,0,0,0,0,0,41.75,108.1,1728201
0.00714111,0.0100708,1.00891,-0.0610352,-0.12207,-0.0610352,0,-0.001,0,0,0,0,0,0,0,0,41.75,108.118,1728216
0.00799561,0.0125122,1.01715,0.0610352,0,0,0.001,0.001,0,0,0,0,0,0,0,0,41.75,108.139,1728246
0.0065918,0.0128174,1.01343,0.0610352,0.0610352,0,0,0.001,0,0,0,0,0,0,0,0,41.75,108.159,1728261
0.00769043,0.0119629,1.01038,-0.0610352,-0.12207,0,0,0,0,0,0,0,0,0,0,0,41.75,108.178,1728291
0.00476074,0.0122681,1.01056,0.0610352,0,-0.0610352,-0.001,0,0,0,0,0,0,0,0,0,41.76,108.199,1728306
0.00836182,0.0118408,1.01239,0.12207,0,0,0.001,0,0,0,0,0,0,0,0,0,41.76,108.229,1728336
0.00506592,0.0120239,1.01123,0.12207,0,0,-0.001,0,0,0,0,0,0,0,0,0,41.76,108.241,1728351
0.00909424,0.0119629,1.01404,0,-0.0610352,0,0.002,0,0,0,0,0,0,0,0,0,41.76,108.258,1728366
0.00524902,0.0100098,1.01025,-0.0610352,-0.0610352,0,-0.001,-0.001,0,0,0,0,0,0,0,0,41.76,108.278,1728381
0.00494385,0.0112915,1.01117,0,-0.0610352,0,-0.001,0,0,0,0,0,0,0,0,0,41.76,108.298,1728411
0.00689697,0.00878906,1.00958,-0.0610352,-0.0610352,0,0,-0.002,0,0,0,0,0,0,0,0,41.76,108.318,1728426
0.00994873,0.0123901,1.01398,0,-0.12207,-0.0610352,0.003,0,0,0,0,0,0,0,0,0,41.76,108.338,1728441
0.00640869,0.0101318,1.008,-0.12207,-0.12207,0,0,-0.001,0,0,0,0,0,0,0,0,41.76,108.358,1728471
0.00592041,0.0149536,1.00995,-0.0610352,-0.12207,-0.0610352,0,0.003,0,0,0,0,0,0,0,0,41.76,108.378,1728486
0.00738525,0.0112305,1.01044,0.0610352,-0.12207,0,0,0,0,0,0,0,0,0,0,0,41.76,108.398,1728501
0.00726318,0.012085,1.00745,0,0,0,0,0,0,0,0,0,0,0,0,0,41.76,108.419,1728531
0.00799561,0.0113525,1.01422,-0.0610352,-0.12207,0,0.001,0,0,0,0,0,0,0,0,0,41.76,108.439,1728546
0.00598145,0.00689697,1.00928,0,0.0610352,-0.12207,0,-0.004,0,0,0,0,0,0,0,0,41.76,108.459,1728561
0.00634766,0.00732422,1.01324,0,-0.0610352,-0.0610352,0,-0.004,0,0,0,0,0,0,0,0,41.76,108.479,1728591
0.00872803,0.0151367,1.01288,0,0,-0.12207,0.001,0.003,0,0,0,0,0,0,0,0,41.76,108.498,1728606
0.00396729,0.010498,1.01044,0,-0.0610352,0,-0.002,0,0,0,0,0,0,0,0,0,41.76,108.518,1728621
0.00494385,0.0123901,1.01233,-0.12207,-0.0610352,-0.0610352,-0.001,0,0,0,0,0,0,0,0,0,41.76,108.54,1728651
0.00775146,0.00848389,1.01624,0,0,-0.0610352,0,-0.002,0,0,0,0,0,0,0,0,41.76,108.559,1728666
0.00592041,0.0124512,1.01648,0,0,0.0610352,0,0,0,0,0,0,0,0,0,0,41.76,108.579,1728681
0.00714111,0.0128784,1.01044,0,0,-0.0610352,0,0.001,0,0,0,0,0,0,0,0,41.76,108.599,1728711
0.00695801,0.00964355,1.01154,0,0.12207,0,0,-0.001,0,0,0,0,0,0,0,0,41.76,108.619,1728726
0.00976562,0.0140991,1.00824,0.0610352,0,-0.0610352,0.003,0.002,0,0,0,0,0,0,0,0,41.76,108.639,1728742
0.0065918,0.0100708,1.01324,0.0610352,0,0,0,-0.001,0,0,0,0,0,0,0,0,41.76,108.659,1728771
0.00866699,0.00927734,1.01184,-0.0610352,-0.0610352,-0.12207,0.001,-0.002,0,0,0,0,0,0,0,0,41.76,108.679,1728786
0.00708008,0.0112915,1.01495,0,0.12207,-0.0610352,0,0,0,0,0,0,0,0,0,0,41.76,108.699,1728801
0.00750732,0.0115967,1.01453,0,0,-0.0610352,0,0,0,0,0,0,0,0,0,0,41.73,108.72,1728831
0.00726318,0.0112305,1.01605,0,0.12207,0.0610352,0,0,0,0,0,0,0,0,0,0,41.73,108.739,1728846
0.00891113,0.00897217,1.00629,-0.0610352,-0.12207,0,0.002,-0.002,0,0,0,0,0,0,0,0,41.73,108.758,1728861
0.00854492,0.0126343,1.01093,-0.0610352,-0.0610352,0.0610352,0.001,0.001,0,0,0,0,0,0,0,0,41.73,108.78,1728891
0.00866699,0.0124512,1.01025,0,0,0.0610352,0.001,0.001,0,0,0,0,0,0,0,0,41.73,108.802,1728906
0.00860596,0.010376,1.01178,-0.12207,-0.0610352,0.12207,0.001,0,0,0,0,0,0,0,0,0,41.73,108.82,1728921
0.00537109,0.0128174,1.01318,-0.0610352,-0.0610352,-0.0610352,-0.001,0.001,0,0,0,0,0,0,0,0,41.73,108.839,1728951
0.00787354,0.00793457,1.00616,-0.0610352,-0.12207,-0.0610352,0.001,-0.003,0,0,0,0,0,0,0,0,41.73,108.858,1728966
0.00439453,0.0106201,1.01416,-0.0610352,-0.12207,0.0610352,-0.002,0,0,0,0,0,0,0,0,0,41.73,108.878,1728981
0.00665283,0.00836182,1.01434,0,0.0610352,-0.0610352,0,-0.002,0,0,0,0,0,0,0,0,41.73,108.899,1729011
0.00927734,0.010498,1.01624,0,0,0.0610352,0.002,0,0,0,0,0,0,0,0,0,41.73,108.919,1729027
0.00592041,0.0115356,1.01324,-0.0610352,-0.0610352,0,0,0,0,0,0,0,0,0,0,0,41.73,108.939,1729041
0.00787354,0.00915527,1.0108,-0.0610352,-0.0610352,-0.0610352,0.001,-0.002,0,0,0,0,0,0,0,0,41.73,108.959,1729071
0.00805664,0.013916,1.01282,0,0,0,0.001,0.002,0,0,0,0,0,0,0,0,41.73,108.979,1729087
0.00927734,0.0108032,1.01184,-0.0610352,-0.0610352,0,0.002,0,0,0,0,0,0,0,0,0,41.73,108.998,1729101
0.00732422,0.0122681,1.00385,-0.0610352,0,0,0,0.001,0,0,0,0,0,0,0,0,41.73,109.019,1729131
0.00537109,0.00927734,1.01251,-0.12207,-0.12207,0.0610352,-0.001,-0.001,0,0,0,0,0,0,0,0,41.73,109.048,1729161
0.00537109,0.00927734,1.01251,-0.12207,-0.12207,0.0610352,-0.001,-0.001,0,0,0,0,0,0,0,0,41.73,109.06,1729161
0.00933838,0.012146,1.01215,-0.0610352,-0.0610352,-0.0610352,0.002,0,0,0,0,0,0,0,0,0,41.73,109.078,1729176
0.0045166,0.0116577,1.01495,0,0.0610352,-0.0610352,-0.002,0,0,0,0,0,0,0,0,0,41.73,109.099,1729207
0.0078125,0.0106201,1.01538,0,0.0610352,-0.0610352,0,0,0,0,0,0,0,0,0,0,41.73,109.119,1729223
0.00671387,0.0134888,1.01215,-0.0610352,-0.0610352,0,0,0.002,0,0,0,0,0,0,0,0,41.73,109.139,1729251
0.00646973,0.0133667,1.013,-0.0610352,-0.0610352,-0.12207,0,0.002,0,0,0,0,0,0,0,0,41.73,109.158,1729267
0.0106201,0.0111084,1.01178,0,0.0610352,-0.12207,0.003,0,0,0,0,0,0,0,0,0,41.73,109.185,1729296
0.00836182,0.010437,1.00983,-0.0610352,-0.0610352,-0.0610352,0.001,0,0,0,0,0,0,0,0,0,41.73,109.202,1729311
0.00714111,0.0115967,1.01129,0,0.12207,0,0,0,0,0,0,0,0,0,0,0,41.78,109.227,1729341
0.00714111,0.0115967,1.01129,0,0.12207,0,0,0,0,0,0,0,0,0,0,0,41.78,109.238,1729341
0.0078125,0.0109863,1.01337,0.0610352,0,0.0610352,0,0,0,0,0,0,0,0,0,0,41.78,109.275,1729387
0.00933838,0.0101318,1.013,0,0.0610352,0.0610352,0.002,-0.001,0,0,0,0,0,0,0,0,41.78,109.299,1729401
0.00708008,0.0088501,1.013,-0.0610352,-0.0610352,0.0610352,0,-0.002,0,0,0,0,0,0,0,0,41.78,109.333,1729431
0.00585938,0.00836182,1.0144,0.0610352,-0.0610352,0.12207,-0.001,-0.003,0,0,0,0,0,0,0,0,41.78,109.341,1729447
0.00872803,0.0100098,1.01361,-0.12207,-0.0610352,0,0.001,-0.001,0,0,0,0,0,0,0,0,41.78,109.359,1729461
0.00970459,0.0126953,1.00977,0.12207,0,-0.0610352,0.002,0.001,0,0,0,0,0,0,0,0,41.78,109.378,1729491
0.00708008,0.0111084,1.0144,-0.0610352,-0.0610352,-0.0610352,0,0,0,0,0,0,0,0,0,0,41.78,109.403,1729507
0.00738525,0.0126343,1.01025,0,0,0.0610352,0,0.001,0,0,0,0,0,0,0,0,41.78,109.419,1729521
0.0067749,0.0115356,1.01263,0.0610352,0,0,0,0,0,0,0,0,0,0,0,0,41.78,109.438,1729537
0.00537109,0.0105591,1.0108,-0.0610352,-0.0610352,0.0610352,-0.001,0,0,0,0,0,0,0,0,0,41.78,109.462,1729567
0.0088501,0.0140991,1.01465,-0.0610352,-0.0610352,0,0.001,0.002,0,0,0,0,0,0,0,0,41.78,109.487,1729597
0.00927734,0.00793457,1.00903,0,0.0610352,0,0.002,-0.003,0,0,0,0,0,0,0,0,41.78,109.499,1729612
0.00872803,0.0123291,1.01599,0,0.0610352,-0.0610352,0.001,0,0,0,0,0,0,0,0,0,41.78,109.518,1729627
0.0045166,0.0105591,1.01349,0,0,-0.12207,-0.002,0,0,0,0,0,0,0,0,0,41.78,109.544,1729657
0.00598145,0.010376,1.01312,0,0.12207,-0.0610352,-0.001,0,0,0,0,0,0,0,0,0,41.78,109.564,1729672
0.00848389,0.00964355,1.01721,-0.0610352,-0.0610352,-0.0610352,0.001,-0.001,0,0,0,0,0,0,0,0,41.78,109.579,1729687
0.00726318,0.0108032,1.01434,0,0,-0.0610352,0,0,0,0,0,0,0,0,0,0,41.78,109.599,1729702
0.00665283,0.0115356,1.0058,0,0,0,0,0,0,0,0,0,0,0,0,0,41.78,109.619,1729717
0.00836182,0.0122681,1.01056,0,0,-0.0610352,0.001,0.001,0,0,0,0,0,0,0,0,41.78,109.639,1729747
0.00805664,0.010437,1.01337,-0.0610352,-0.0610352,0.0610352,0.001,0,0,0,0,0,0,0,0,0,41.78,109.661,1729762
0.00701904,0.0113525,1.00989,-0.0610352,-0.0610352,-0.0610352,0,0,0,0,0,0,0,0,0,0,41.78,109.68,1729792
0.00646973,0.00805664,1.01215,-0.0610352,-0.0610352,0.0610352,0,-0.003,0,0,0,0,0,0,0,0,41.78,109.699,1729807
0.00738525,0.0115967,1.01337,0,0,0,0,0,0,0,0,0,0,0,0,0,41.78,109.718,1729822
0.00701904,0.0119629,1.01495,-0.0610352,-0.244141,0,0,0,0,0,0,0,0,0,0,0,41.75,109.739,1729852
0.0043335,0.00897217,1.01422,0.0610352,0,-0.0610352,-0.002,-0.002,0,0,0,0,0,0,0,0,41.75,109.759,1729867
0.00610352,0.0101318,1.01215,0,-0.0610352,0.0610352,0,-0.001,0,0,0,0,0,0,0,0,41.75,109.784,1729897
0.00610352,0.0101318,1.01215,0,-0.0610352,0.0610352,0,-0.001,0,0,0,0,0,0,0,0,41.75,109.798,1729897
0.0055542,0.0115967,1.01038,0,-0.0610352,-0.12207,-0.001,0,0,0,0,0,0,0,0,0,41.75,109.818,1729927
0.00805664,0.0137939,1.0144,0,0,0,0.001,0.002,0,0,0,0,0,0,0,0,41.75,109.842,1729942
0.00866699,0.0100708,1.00983,-0.12207,-0.0610352,-0.0610352,0.001,-0.001,0.01,0,0,0,0,0,0,0,41.75,109.859,1729972
0.0057373,0.0117798,1.01044,0.12207,0,-0.12207,-0.001,0,0.01,0,0,0,0,0,0,0,41.75,109.879,1729987
0.00378418,0.0102539,1.00964,0.12207,0,0,-0.003,-0.001,0.01,0,0,0,0,0,0,0,41.75,109.899,1730002
0.00604248,0.0146484,1.00647,0,0,0,0,0.003,0.01,0,0,0,0,0,0,0,41.75,109.919,1730032
0.010376,0.0113525,1.01172,-0.0610352,-0.183105,-0.0610352,0.003,0,0.01,0,0,0,0,0,0,0,41.75,109.939,1730047
0.00927734,0.00762939,1.01282,0,0,-0.0610352,0.002,-0.003,0.01,0,0,0,0,0,0,0,41.75,109.961,1730062
0.00469971,0.0119629,1.01007,-0.0610352,-0.0610352,-0.0610352,-0.002,0,0.01,0,0,0,0,0,0,0,41.75,109.982,1730092
0.00927734,0.0117188,1.00885,-0.0610352,-0.0610352,0,0.002,0,0.01,0,0,0,0,0,0,0,41.75,109.999,1730107
0.00512695,0.0055542,1.00604,0.12207,0.0610352,0,-0.001,-0.005,0.01,0,0,0,0,0,0,0,41.75,110.018,1730122
0.00946045,0.00866699,1.01514,0.0610352,0.0610352,0,0.002,-0.002,0.01,0,0,0,0,0,0,0,41.75,110.038,1730152
0.00628662,0.0126953,1.01294,-0.0610352,-0.12207,0.0610352,0,0.001,0.01,0,0,0,0,0,0,0,41.75,110.058,1730167
0.0067749,0.00933838,1.01141,-0.0610352,-0.0610352,0.12207,0,-0.001,0.01,0,0,0,0,0,0,0,41.75,110.079,1730182
0.00531006,0.012146,1.01001,0.0610352,0,0.0610352,-0.001,0,0,0,0,0,0,0,0,0,41.75,110.098,1730197
0.00665283,0.0115356,1.01752,-0.12207,-0.0610352,0.0610352,0,0,0,0,0,0,0,0,0,0,41.75,110.118,1730227
0.00793457,0.00860596,1.01257,0.0610352,0,0,0.001,-0.002,0,0,0,0,0,0,0,0,41.75,110.138,1730242
0.00512695,0.0112305,1.01465,0.12207,0.0610352,-0.0610352,-0.001,0,0,0,0,0,0,0,0,0,41.75,110.158,1730272
0.00726318,0.0107422,1.00824,0,0.0610352,0,0,0,0,0,0,0,0,0,0,0,41.75,110.18,1730287
0.00518799,0.0110474,1.01282,0,-0.12207,0,-0.001,0,0,0,0,0,0,0,0,0,41.75,110.198,1730302
0.00744629,0.0120239,1.00928,0,0,0,0,0,0,0,0,0,0,0,0,0,41.75,110.218,1730332
0.00354004,0.010437,1.01282,0.0610352,0.0610352,-0.0610352,-0.003,0,0,0,0,0,0,0,0,0,41.77,110.238,1730347
0.00799561,0.0102539,1.01483,0,0,-0.0610352,0.001,-0.001,0,0,0,0,0,0,0,0,41.77,110.258,1730362
0.00775146,0.0124512,1.01099,0,0,0.0610352,0,0.001,0,0,0,0,0,0,0,0,41.77,110.28,1730392
0.00421143,0.013916,1.01447,0.0610352,0,0.0610352,-0.002,0.002,0,0,0,0,0,0,0,0,41.77,110.298,1730408
0.00964355,0.00640869,1.01123,-0.0610352,-0.12207,0,0.002,-0.004,0,0,0,0,0,0,0,0,41.77,110.318,1730422
0.00561523,0.0108032,1.00873,0.12207,0.0610352,-0.12207,-0.001,0,0,0,0,0,0,0,0,0,41.77,110.34,1730452
0.00695801,0.0119629,1.00751,0,0,-0.0610352,0,0,0,0,0,0,0,0,0,0,41.77,110.358,1730468
0.00732422,0.0116577,1.01361,0.0610352,0.0610352,0,0,0,0,0,0,0,0,0,0,0,41.77,110.379,1730482
0.00488281,0.0119629,1.01422,0.0610352,0.12207,-0.0610352,-0.001,0,0,0,0,0,0,0,0,0,41.77,110.398,1730512
0.00750732,0.0131226,1.01178,0,0,0.0610352,0,0.001,0,0,0,0,0,0,0,0,41.77,110.422,1730528
0.0067749,0.012085,1.01477,0.12207,0,0.0610352,0,0,0,0,0,0,0,0,0,0,41.77,110.438,1730542
0.00738525,0.010376,1.00818,0,0,-0.0610352,0,0,0,0,0,0,0,0,0,0,41.77,110.459,1730572
0.00701904,0.0108032,1.0141,-0.0610352,-0.183105,0,0,0,0,0,0,0,0,0,0,0,41.77,110.48,1730588
0.00549316,0.0110474,1.01447,0,0,0.0610352,-0.001,0,0,0,0,0,0,0,0,0,41.77,110.498,1730602
0.00762939,0.0116577,1.01404,0,0,0,0,0,0,0,0,0,0,0,0,0,41.77,110.518,1730617
0.0043335,0.0111694,1.01532,0,0.0610352,0,-0.002,0,0,0,0,0,0,0,0,0,41.77,110.538,1730648
0.00769043,0.012146,1.01288,0.0610352,0,0,0.001,0,0,0,0,0,0,0,0,0,41.77,110.558,1730662
0.0065918,0.0106201,1.01221,-0.0610352,-0.0610352,-0.0610352,0,0,0,0,0,0,0,0,0,0,41.77,110.579,1730677
0.00531006,0.0115967,1.0163,0,-0.0610352,0,-0.001,0,0,0,0,0,0,0,0,0,41.77,110.6,1730708
0.00463867,0.012085,1.01117,0.0610352,0,0,-0.002,0,0,0,0,0,0,0,0,0,41.77,110.618,1730722
0.00408936,0.0110474,1.01813,0.0610352,0.0610352,0,-0.002,0,0,0,0,0,0,0,0,0,41.77,110.641,1730752
0.00616455,0.012207,1.0152,0,0,0.0610352,0,0,0,0,0,0,0,0,0,0,41.77,110.66,1730768
0.00732422,0.0117188,1.01654,0.0610352,0.244141,0.12207,0,0,0,0,0,0,0,0,0,0,41.77,110.679,1730782
0.00665283,0.0122681,1.01178,-0.0610352,-0.0610352,0,0,0,0,0,0,0,0,0,0,0,41.77,110.698,1730812
0.00567627,0.013916,1.01233,-0.12207,-0.12207,-0.12207,-0.001,0.002,0,0,0,0,0,0,0,0,41.77,110.718,1730828
0.00915527,0.00891113,1.01202,0.0610352,0,0.0610352,0.002,-0.002,0,0,0,0,0,0,0,0,41.77,110.742,1730843
0.00598145,0.0101318,1.01428,0,0,-0.0610352,0,-0.001,0,0,0,0,0,0,0,0,41.76,110.76,1730857
0.00708008,0.00756836,1.01282,-0.183105,-0.12207,0,0,-0.003,0,0,0,0,0,0,0,0,41.76,110.78,1730888
0.00634766,0.0106812,1.01379,0,0,0.0610352,0,0,0,0,0,0,0,0,0,0,41.76,110.802,1730903
0.00720215,0.00994873,1.01184,0.12207,0.12207,-0.0610352,0,-0.001,0,0,0,0,0,0,0,0,41.76,110.82,1730918
0.00622559,0.00964355,1.01093,0.0610352,0,0,0,-0.001,0,0,0,0,0,0,0,0,41.76,110.839,1730948
0.00695801,0.0133057,1.01196,-0.0610352,-0.0610352,0,0,0.001,0,0,0,0,0,0,0,0,41.76,110.86,1730963
0.00805664,0.0125122,1.00934,0.12207,-0.0610352,0,0.001,0.001,0,0,0,0,0,0,0,0,41.76,110.879,1730978
0.0100098,0.00854492,1.00952,0.0610352,-0.0610352,-0.0610352,0.003,-0.002,0,0,0,0,0,0,0,0,41.76,110.899,1731008
0.00402832,0.0105591,1.01398,0.0610352,0,0,-0.002,0,0,0,0,0,0,0,0,0,41.76,110.919,1731023
0.00378418,0.00915527,1.01343,-0.0610352,-0.0610352,0.0610352,-0.002,-0.002,0,0,0,0,0,0,0,0,41.76,110.939,1731053
0.00524902,0.012207,1.01575,0,0,0,-0.001,0,0,0,0,0,0,0,0,0,41.76,110.959,1731068
0.00756836,0.0131226,1.01141,-0.0610352,0,0.0610352,0,0.001,0,0,0,0,0,0,0,0,41.76,110.979,1731083
0.00762939,0.00964355,1.01099,-0.183105,-0.0610352,-0.0610352,0,-0.001,0,0,0,0,0,0,0,0,41.76,110.999,1731113
0.00750732,0.00842285,1.01556,-0.0610352,-0.0610352,0.0610352,0,-0.003,0,0,0,0,0,0,0,0,41.76,111.025,1731128
0.00860596,0.0109863,1.01282,0,-0.0610352,-0.0610352,0.001,0,0,0,0,0,0,0,0,0,41.76,111.038,1731143
0.00891113,0.0117188,1.01782,0,0.0610352,0,0.002,0,0,0,0,0,0,0,0,0,41.76,111.064,1731173
0.00708008,0.010498,1.01093,0,0.0610352,0,0,0,0,0,0,0,0,0,0,0,41.76,111.079,1731188
0.00463867,0.0113525,1.01392,0.0610352,0,-0.0610352,-0.002,0,0,0,0,0,0,0,0,0,41.76,111.1,1731203
0.00830078,0.0106812,1.00964,-0.0610352,-0.0610352,0.183105,0.001,0,0,0,0,0,0,0,0,0,41.76,111.119,1731218
0.00646973,0.0130005,1.01111,-0.0610352,-0.0610352,0,0,0.001,0,0,0,0,0,0,0,0,41.76,111.139,1731248
0.00805664,0.0108032,1.01862,0,0,-0.0610352,0.001,0,0,0,0,0,0,0,0,0,41.76,111.159,1731263
0.00628662,0.00622559,1.00995,-0.12207,-0.0610352,-0.0610352,0,-0.005,0,0,0,0,0,0,0,0,41.76,111.18,1731293
0.00738525,0.0133667,1.01678,0,0.12207,-0.0610352,0,0.001,0,0,0,0,0,0,0,0,41.76,111.198,1731308
0.00616455,0.0106812,1.01196,-0.12207,-0.12207,-0.0610352,0,0,0,0,0,0,0,0,0,0,41.76,111.219,1731323
0.00653076,0.0136108,1.01038,-0.0610352,-0.0610352,0.12207,0,0.002,0,0,0,0,0,0,0,0,41.76,111.239,1731338
0.00500488,0.0111694,1.0116,0.12207,0,-0.12207,-0.001,0,0,0,0,0,0,0,0,0,41.78,111.259,1731368
0.0020752,0.0125732,1.01514,0,-0.0610352,0,-0.004,0.001,0,0,0,0,0,0,0,0,41.78,111.279,1731383
0.00585938,0.0123901,1.0127,0.12207,0,-0.183105,0,0,0,0,0,0,0,0,0,0,41.78,111.299,1731413
0.00750732,0.0101929,1.01202,0.0610352,0.0610352,0,0,-0.001,0,0,0,0,0,0,0,0,41.78,111.318,1731428
0.00592041,0.00933838,1.0144,0,0,-0.0610352,0,-0.002,0,0,0,0,0,0,0,0,41.78,111.338,1731443
0.00457764,0.0114746,1.01501,0.12207,0.0610352,0,-0.002,0,0,0,0,0,0,0,0,0,41.78,111.358,1731473
0.00646973,0.00878906,1.00958,0,-0.12207,0.12207,0,-0.002,0,0,0,0,0,0,0,0,41.78,111.378,1731488
0.00823975,0.0126953,1.01501,0.12207,0,0.244141,0.001,0.001,0,0,0,0,0,0,0,0,41.78,111.398,1731503
0.00231934,0.0109253,1.0127,0.0610352,0,0.183105,-0.004,0,0,0,0,0,0,0,0,0,41.78,111.418,1731518
0.00836182,0.0161133,1.0072,0.0610352,0.0610352,-0.12207,0.001,0.004,0,0,0,0,0,0,0,0,41.78,111.438,1731548
0.00567627,0.0100098,1.01038,0,-0.0610352,-0.0610352,-0.001,-0.001,0,0,0,0,0,0,0,0,41.78,111.458,1731563
0.00878906,0.010498,1.00732,0.12207,0.12207,0,0.002,-0.001,0,0,0,0,0,0,0,0,41.78,111.48,1731593
0.00531006,0.0134888,1.00769,0.0610352,0,0.12207,-0.001,0.001,0,0,0,0,0,0,0,0,41.78,111.498,1731608
0.00366211,0.0128174,1.01288,0,0,0.12207,-0.003,0.001,0,0,0,0,0,0,0,0,41.78,111.518,1731623
0.00598145,0.0124512,1.013,0,0,-0.244141,0,0,0,0,0,0,0,0,0,0,41.78,111.538,1731638
0.00689697,0.0126343,1.01337,-0.0610352,-0.183105,0,0,0,0,0,0,0,0,0,0,0,41.78,111.558,1731668
0.00817871,0.0115967,1.01599,-0.0610352,-0.0610352,-0.12207,0.001,0,0,0,0,0,0,0,0,0,41.78,111.578,1731683
0.0105591,0.0116577,1.01501,-0.183105,0.0610352,-0.0610352,0.003,0,0,0,0,0,0,0,0,0,41.78,111.599,1731698
0.00823975,0.0100098,1.01141,-0.305176,-0.0610352,0,0.001,-0.001,0,0,0,0,0,0,0,0,41.78,111.62,1731729
0.00463867,0.0114746,1.01544,-0.0610352,0,-0.0610352,-0.002,0,0,0,0,0,0,0,0,0,41.78,111.638,1731743
0.00708008,0.0102539,1.01538,-0.0610352,0,-0.12207,0,-0.001,0,0,0,0,0,0,0,0,41.78,111.658,1731758
0.00695801,0.00762939,1.00983,-0.12207,0,-0.0610352,0,-0.003,0,0,0,0,0,0,0,0,41.78,111.678,1731789
0.0078125,0.00830078,1.01331,0,0.0610352,-0.12207,0,-0.003,0,0,0,0,0,0,0,0,41.78,111.714,1731818
0.0101929,0.0102539,1.00952,0.0610352,0.0610352,-0.183105,0.003,-0.001,0,0,0,0,0,0,0,0,41.78,111.738,1731849
0.00994873,0.00848389,1.00745,0.183105,0,-0.366211,0.003,-0.002,0,0,0,0,0,0,0,0,41.78,111.758,1731863
0.00512695,0.0114136,1.01526,0.12207,0.183105,-0.183105,-0.001,0,0,0,0,0,0,0,0,0,41.73,111.778,1731878
0.0022583,0.00878906,1.01465,0.305176,0.0610352,0.12207,-0.004,-0.002,0,0,0,0,0,0,0,0,41.73,111.799,1731909
0.00860596,0.0130005,1.01556,0.427246,0,0.244141,0.001,0.001,0,0,0,0,0,0,0,0,41.73,111.818,1731923
0.0214844,-0.0274048,1.01178,-0.488281,0.0610352,-0.427246,0.014,-0.038,0,0,-1.52588e-05,0,0,0,0,0,41.73,111.839,1731938
0.0131226,-0.0501099,1.01801,-7.56836,0.12207,-2.2583,0.006,-0.056,0.07,0,-0.00038147,0,0,0,0,0,41.73,111.858,1731969
0.0123901,0.112305,0.928162,-4.69971,-0.854492,-1.77002,0.006,0.107,0.09,0,-0.000579834,0,0,0,0,0,41.73,111.879,1731983
0.0106201,0.0227051,0.983398,2.74658,0.610352,-0.732422,0.004,0.017,0.11,0,-0.000686646,0,0,0,0,0,41.73,111.898,1731998
0.00860596,-0.0784302,1.01837,1.15967,-0.12207,-0.915527,0.001,-0.083,0.12,0,-0.00131226,0,0,0,0,0,41.73,111.919,1732029
-0.00891113,0.0167236,0.985291,0.0610352,0.366211,-2.0752,-0.015,0.012,0.15,0,-0.00177002,0,0,0,0,0,41.73,111.939,1732043
0.0100708,-0.00262451,1.01062,-0.671387,-0.12207,-2.99072,0.003,-0.007,0.18,0,-0.00177002,0,0,0,0,0,41.73,111.959,1732058
-0.0167236,0.000732422,0.989441,-0.0610352,0.183105,-3.66211,-0.023,-0.003,0.3,0,-0.00177002,0,0,0,0,0,41.73,111.979,1732089
0.0272217,0.0078125,1.02277,0.549316,0.427246,-4.02832,0.02,0.003,0.35,-1.52588e-05,-0.00177002,0,0,0,0,0,41.73,111.998,1732103
-0.0153198,-0.00390625,1.02142,0.427246,0.427246,-4.5166,-0.021,-0.008,0.42,-4.57764e-05,-0.00177002,0,0,0,0,0,41.73,112.018,1732118
0.0172729,-0.0691528,1.02795,-2.44141,0.366211,-3.05176,0.01,-0.072,0.54,-0.000106812,-0.00189209,0,0,0,0,0,41.73,112.038,1732149
-0.0147705,-0.0204468,0.995605,-3.78418,0.12207,-2.80762,-0.02,-0.021,0.59,-0.000137329,-0.00205994,0,0,0,0,0,41.73,112.058,1732163
0.017334,0.022522,0.956543,-2.62451,-0.183105,-1.34277,0.012,0.021,0.62,-0.000183105,-0.00222778,0,0,0,0,0,41.73,112.079,1732179
0.00164795,-0.0684814,1.01062,3.54004,0.244141,0.12207,-0.004,-0.07,0.62,-0.000228882,-0.00247192,0,0,0,0,0,41.73,112.098,1732209
0.00537109,-0.0646362,1.01141,2.68555,-0.12207,0.366211,0,-0.066,0.62,-0.000228882,-0.00270081,0,0,0,0,0,41.73,112.119,1732224
0.00128174,-0.00231934,1.00708,-1.46484,0.12207,-2.01416,-0.004,-0.003,0.65,-0.000228882,-0.00323486,0,0,0,0,0,41.73,112.141,1732254
0.0446167,0.0499878,1.01282,0,0.366211,-3.54004,0.039,0.048,0.69,-0.000198364,-0.00346375,0,0,0,0,0,41.73,112.158,1732269
-0.022644,6.10352e-05,1.05139,-0.305176,0.610352,-3.2959,-0.028,-0.001,0.74,-0.000167847,-0.00366211,0,0,0,0,0,41.73,112.178,1732284
0.0248413,-0.0145874,1.00018,0.488281,0.427246,-4.27246,0.019,-0.016,0.8,-0.000137329,-0.00387573,0,0,0,0,0,41.73,112.199,1732299
-0.0152588,0.0457764,0.998413,0.671387,0.12207,-3.35693,-0.019,0.044,0.93,-0.000137329,-0.00442505,0,0,0,0,0,41.73,112.22,1732329
0.0164795,0.0281982,1.00909,2.68555,0.427246,-4.21143,0.011,0.025,0.99,-0.000137329,-0.00465393,0,0,0,0,0,41.73,112.239,1732344
-0.00476074,-0.00201416,1.01288,2.13623,0,-6.10352,-0.01,-0.005,1.07,-0.000137329,-0.00486755,0,0,0,0,0,41.73,112.258,1732359
-0.00585938,0.0422363,1.01941,0.671387,0.12207,-5.18799,-0.01,0.038,1.24,-0.000137329,-0.00535583,0,0,0,0,0,41.74,112.279,1732389
0.0134277,0.0483398,1.00708,2.56348,0.671387,-4.88281,0.009,0.043,1.31,-0.000137329,-0.00553894,0,0,0,0,0,41.74,112.3,1732404
0.0200806,-0.0102539,0.999939,3.17383,0.610352,-4.27246,0.014,-0.016,1.38,-0.000137329,-0.00570679,0,0,0,0,0,41.74,112.318,1732419
0.0135498,0.0234375,1.01746,3.2959,0.366211,-4.63867,0.009,0.015,1.49,-0.000137329,-0.00585938,0,0,0,0,0,41.74,112.339,1732449
-0.0055542,-0.00195312,1.02167,3.35693,0.244141,-4.3335,-0.01,-0.01,1.56,-0.000137329,-0.00585938,0,0,0,0,0,41.74,112.359,1732464
0.00128174,-0.0185547,0.990662,2.19727,0.183105,-2.68555,-0.003,-0.027,1.61,-0.000137329,-0.00588989,0,0,0,0,0,41.74,112.379,1732479
-0.0164795,0.0171509,1.0354,1.89209,0.610352,-2.50244,-0.02,0.006,1.68,-0.000106812,-0.00596619,0,0,0,0,0,41.74,112.401,1732509
-0.0141602,0.0413818,1.01837,1.95312,-0.244141,-3.23486,-0.017,0.03,1.72,-0.000106812,-0.00596619,0,0,0,0,0,41.74,112.419,1732524
-0.0193481,0.0078125,0.992859,2.44141,0,-3.35693,-0.023,-0.003,1.82,-0.000106812,-0.00592041,0,0,0,0,0,41.74,112.44,1732554
0.0253906,0.0128174,1.0177,3.479,0.244141,-3.05176,0.021,-0.001,1.87,-0.000106812,-0.00592041,0,0,0,0,0,41.74,112.465,1732569
0.0219727,0.0223999,1.04089,3.60107,0.12207,-3.11279,0.017,0.006,1.91,-7.62939e-05,-0.00592041,0,0,0,0,0,41.74,112.479,1732584
-0.00384521,0.0258179,1.01648,3.78418,-0.671387,-3.72314,-0.007,0.01,1.97,-4.57764e-05,-0.00592041,0,0,0,0,0,41.74,112.499,1732599
0.0043335,-0.0328979,0.982239,-1.09863,0.366211,-2.38037,-0.001,-0.048,2.08,-4.57764e-05,-0.00608826,0,0,0,0,0,41.74,112.521,1732629
0.00701904,-0.0355835,1.0097,-4.02832,1.09863,-2.19727,0,-0.049,2.11,-4.57764e-05,-0.00627136,0,0,0,0,0,41.74,112.543,1732644
0.00457764,0.10144,1.07361,-5.79834,1.70898,-3.96728,0.003,0.087,2.16,-4.57764e-05,-0.00642395,0,0,0,0,0,41.74,112.558,1732659
0.0125122,0.0804443,0.966125,-3.96728,0.854492,-4.27246,0.011,0.07,2.3,-4.57764e-05,-0.00656128,0,0,0,0,0,41.74,112.578,1732689
-0.00537109,-0.00976562,1.06049,-3.05176,1.46484,-5.85937,-0.009,-0.019,2.38,-4.57764e-05,-0.00657654,0,0,0,0,0,41.74,112.604,1732704
0.00427246,0.019104,1.06805,-2.92969,0.854492,-7.14111,0.001,0.009,2.49,-4.57764e-05,-0.0065918,0,0,0,0,0,41.74,112.618,1732719
0.003479,0.0139771,0.957642,-1.83105,0.793457,-6.22559,0.001,0.006,2.66,-0.000106812,-0.0065918,0,0,0,0,0,41.74,112.638,1732749
-0.0065918,-0.0194702,1.05518,-1.64795,0.732422,-6.71387,-0.01,-0.026,2.77,-0.000152588,-0.00660706,0,0,0,0,0,41.74,112.661,1732764
0.0237427,0.0560913,0.936584,-1.77002,-0.244141,-4.39453,0.024,0.049,2.91,-0.000137329,-0.00663757,0,0,0,0,0,41.74,112.679,1732794
0.00604248,-0.038208,0.976685,-1.52588,0.549316,-4.39453,0.001,-0.044,2.98,-0.00012207,-0.00663757,0,0,0,0,0,41.74,112.698,1732809
-0.0314941,-0.00317383,1.10522,-2.56348,0.488281,-4.57764,-0.033,-0.007,3.05,-0.00012207,-0.00666809,0,0,0,0,0,41.74,112.718,1732824
0.0491333,0.0259399,1.03546,-3.17383,0,-3.90625,0.048,0.018,3.11,-0.000106812,-0.00666809,0,0,0,0,0,41.74,112.738,1732839
-0.0253906,-0.0430908,0.99646,-1.64795,1.40381,-4.15039,-0.029,-0.045,3.24,0,-0.00660706,0,0,0,0,0,41.74,112.758,1732869
-0.03479,0.0775146,1.14532,-0.12207,1.09863,-2.56348,-0.032,0.075,3.28,0,-0.00654602,0,0,0,0,0,41.74,112.778,1732884
-0.00427246,-0.140747,1.0296,-0.976562,0.549316,-2.44141,-0.014,-0.143,3.31,-3.05176e-05,-0.00654602,0,0,0,0,0,41.74,112.798,1732899
-0.0542603,-0.150391,1.16559,-0.12207,0.366211,-2.74658,-0.064,-0.15,3.42,-7.62939e-05,-0.00675964,0,0,0,0,0,41.74,112.818,1732929
0.0117798,0.0180664,1.12457,-0.854492,0.488281,-2.86865,0.011,0.013,3.46,-0.000167847,-0.00700378,0,0,0,0,0,41.74,112.838,1732944
-0.0483398,-0.0511475,0.957153,-0.183105,0.427246,-4.3335,-0.052,-0.05,3.52,-0.000289917,-0.00727844,0,0,0,0,0,41.74,112.859,1732959
-0.0212402,0.0165405,1.03662,0.976562,0.244141,-4.57764,-0.02,0.015,3.64,-0.000595093,-0.00779724,0,0,0,0,0,41.74,112.878,1732989
0.078064,-0.0322876,1.0202,-1.28174,-1.89209,-3.479,0.074,-0.04,3.7,-0.000717163,-0.00804138,0,0,0,0,0,41.74,112.898,1733004
-0.0498657,0.0238037,0.954346,0.610352,0.671387,-3.05176,-0.049,0.024,3.75,-0.000823975,-0.00830078,0,0,0,0,0,41.74,112.919,1733019
0.0535278,0.00683594,1.08197,0.915527,-0.915527,-2.99072,0.052,0,3.84,-0.00105286,-0.00871277,0,0,0,0,0,41.74,112.938,1733050
-0.0331421,0.0530396,1.01971,0.488281,-0.244141,-3.84521,-0.03,0.051,3.89,-0.00114441,-0.00888062,0,0,0,0,0,41.74,112.958,1733064
-0.00488281,0.00317383,1.00751,0.610352,0.854492,-4.76074,-0.006,0,4.01,-0.00123596,-0.00912476,0,0,0,0,0,41.74,112.984,1733094
-0.0186768,0.0419922,1.09784,0.305176,-0.0610352,-6.46973,-0.017,0.038,4.1,-0.001297,-0.00923157,0,0,0,0,0,41.74,112.998,1733110
0.00317383,-0.0423584,1.01703,-0.366211,-0.366211,-5.61523,-0.001,-0.047,4.19,-0.001297,-0.00933838,0,0,0,0,0,41.74,113.018,1733124
0.0430298,0.0249023,0.965088,-0.549316,0.12207,-5.85937,0.043,0.017,4.28,-0.00126648,-0.00946045,0,0,0,0,0,41.74,113.039,1733139
0.00183105,-0.0772705,0.992554,-1.83105,-1.09863,-4.57764,-0.005,-0.081,4.46,-0.00117493,-0.00965881,0,0,0,0,0,41.74,113.059,1733170
0.00970459,0.0481567,0.982117,-0.854492,-0.183105,-4.21143,0.012,0.042,4.51,-0.00117493,-0.0098114,0,0,0,0,0,41.74,113.078,1733184
-0.00872803,-0.0177612,1.02637,-1.09863,0.976562,-4.39453,-0.011,-0.021,4.58,-0.00117493,-0.00993347,0,0,0,0,0,41.74,113.098,1733199
-0.0184326,0.104797,1.04742,-0.305176,-0.12207,-3.11279,-0.01,0.101,4.68,-0.00117493,-0.0101013,0,0,0,0,0,41.74,113.118,1733230
0.00793457,0.00360107,0.989014,-0.793457,0.427246,-3.2959,0.007,-0.001,4.72,-0.00117493,-0.0100708,0,0,0,0,0,41.74,113.138,1733244
-0.00189209,-0.0385742,1.00232,-2.01416,-0.488281,-2.31934,-0.006,-0.041,4.77,-0.00117493,-0.0100708,0,0,0,0,0,41.74,113.16,1733259
0.0222168,0.0244751,0.994629,-1.89209,-0.427246,-3.78418,0.023,0.019,4.88,-0.00115967,-0.00996399,0,0,0,0,0,41.74,113.179,1733290
0.0100098,-0.0291748,1.0036,-2.44141,0.305176,-3.35693,0.006,-0.032,4.93,-0.00114441,-0.00990295,0,0,0,0,0,41.74,113.199,1733304
0.00775146,0.015564,1.11871,-2.13623,0.915527,-3.17383,0.008,0.012,4.98,-0.00109863,-0.00984192,0,0,0,0,0,41.74,113.221,1733319
-0.000488281,0.0852051,0.993896,-0.671387,-0.610352,-2.99072,0.006,0.083,5.1,-0.000946045,-0.00958252,0,0,0,0,0,41.74,113.238,1733350
0.0310669,0.0712891,1.00372,-0.549316,0.427246,-2.56348,0.036,0.066,5.13,-0.000823975,-0.00932312,0,0,0,0,0,41.74,113.258,1733364
0.0280762,0.078186,0.993225,-0.183105,0.366211,-2.19727,0.034,0.074,5.17,-0.000671387,-0.00895691,0,0,0,0,0,41.74,113.278,1733379
-0.00482178,0.0490723,0.957031,-0.854492,-0.671387,-2.44141,0,0.048,5.24,-0.000427246,-0.00810242,0,0,0,0,0,41.74,113.299,1733410
0.0266113,0.0109253,1.05988,-0.244141,-0.0610352,-2.62451,0.026,0.008,5.27,-0.000320435,-0.00761414,0,0,0,0,0,41.74,113.318,1733424
0.0252686,0.0141602,0.971008,-1.58691,-0.671387,-4.15039,0.025,0.011,5.38,-0.000106812,-0.00682068,0,0,0,0,0,41.74,113.343,1733455
0.0219727,0.0501099,1.02051,-0.915527,-0.671387,-2.80762,0.026,0.048,5.43,3.05176e-05,-0.00640869,0,0,0,0,0,41.74,113.361,1733470
0.00250244,0.0648804,1.05432,-0.12207,0.915527,-3.23486,0.008,0.064,5.47,0.000198364,-0.00592041,0,0,0,0,0,41.74,113.378,1733484
0.0234985,-0.00183105,1.03601,-0.549316,0.732422,-4.57764,0.022,-0.003,5.54,0.000396729,-0.00538635,0,0,0,0,0,41.74,113.398,1733499
0.0287476,0.0334473,0.984314,-0.854492,1.0376,-5.00488,0.031,0.031,5.67,0.000762939,-0.00419617,0,0,0,0,0,41.74,113.418,1733530
-0.010498,-0.015625,1.02539,0.366211,1.15967,-5.85937,-0.012,-0.013,5.76,0.000961304,-0.0035553,0,0,0,0,0,41.74,113.439,1733545
0.012146,-0.0748901,0.988647,-2.80762,-0.488281,-4.82178,0.004,-0.074,5.83,0.00115967,-0.00299072,0,0,0,0,0,41.74,113.459,1733560
-0.0323486,-0.0532837,1.00555,-1.2207,0.549316,-4.94385,-0.037,-0.048,5.99,0.00157166,-0.00184631,0,0,0,0,0,41.74,113.479,1733590
-0.0161743,-0.0296021,1.07196,-2.56348,-0.12207,-4.63867,-0.018,-0.025,6.05,0.0017395,-0.00131226,0,0,0,0,0,41.74,113.499,1733605
0.0303955,0.0717773,1.02496,-3.11279,-0.671387,-4.82178,0.038,0.07,6.13,0.00192261,-0.000747681,0,0,0,0,0,41.74,113.519,1733620
-0.0651855,0.0148315,0.997498,-0.610352,0,-5.92041,-0.062,0.025,6.28,0.00228882,0.000473022,0,0,0,0,0,41.74,113.539,1733650
0.0284424,-0.0103149,1.10522,-1.2207,-0.732422,-8.60596,0.027,-0.009,6.4,0.00244141,0.00109863,0,0,0,0,0,41.74,113.559,1733665
0.0580444,0.0128174,0.953552,-1.34277,0.488281,-10.9863,0.059,0.009,6.54,0.00263977,0.0017395,0,0,0,0,0,41.74,113.579,1733680
0.0186157,0.0045166,1.0412,0.366211,0.915527,-18.4326,0.019,0.004,6.99,0.00314331,0.00309753,0,0,0,0,0,41.74,113.6,1733710
-0.0111084,-0.0327148,0.986572,-1.95312,1.46484,-23.1934,-0.015,-0.028,7.63,0.00376892,0.00447083,0,0,0,0,0,41.74,113.638,1733740
-0.0291748,0.0425415,1.06866,-3.78418,1.95312,-24.7192,-0.02,0.05,8.38,0.00428772,0.00570679,0,0,0,0,0,41.74,113.662,1733770
-0.0107422,-0.0202026,0.988159,-2.19727,0.915527,-24.1089,-0.011,-0.014,8.75,0.00450134,0.0063324,0,0,0,0,0,41.74,113.679,1733785
-0.0678101,-0.0227051,1.06219,0.0610352,0.915527,-23.3765,-0.067,-0.006,9.1,0.00466919,0.00695801,0,0,0,0,0,41.74,113.699,1733800
0.0322266,-0.0427856,1.03497,-0.0610352,0.427246,-18.3716,0.028,-0.043,9.71,0.00479126,0.00790405,0,0,0,0,0,41.74,113.719,1733830
-0.0644531,0.0250854,1.04694,-0.0610352,0,-17.7612,-0.055,0.041,9.99,0.00482178,0.0083313,0,0,0,0,0,41.74,113.738,1733845
-0.0405884,0.0236206,1.0224,-0.671387,-0.793457,-16.6626,-0.031,0.035,10.24,0.004776,0.00880432,0,0,0,0,0,41.74,113.759,1733860
0.0203247,-0.0158691,1.02948,-0.671387,-0.488281,-17.9443,0.02,-0.014,10.76,0.00476074,0.00930786,0,0,0,0,0,41.74,113.784,1733890
-0.0550537,0.0112915,0.995728,-2.19727,-0.244141,-16.6016,-0.048,0.027,11.01,0.00474548,0.00930786,0,0,0,0,0,41.74,113.798,1733905
0.0661011,0.0157471,0.999939,-1.58691,1.09863,-17.5781,0.071,0.008,11.27,0.00476074,0.00933838,0,0,0,0,0,41.72,113.818,1733920
-0.0187988,0.0125122,1.02319,-1.15967,-0.244141,-18.9209,-0.011,0.022,11.83,0.00497437,0.00961304,0,0,0,0,0,41.72,113.838,1733950
0.0146484,0.0310059,0.970886,-0.427246,1.58691,-18.9819,0.024,0.033,12.11,0.00509644,0.0098114,0,0,0,0,0,41.72,113.859,1733965
0.000732422,0.0447998,0.949036,0.610352,0.915527,-19.165,0.014,0.049,12.4,0.00526428,0.0100708,0,0,0,0,0,41.72,113.878,1733980
-0.0167236,0.00909424,0.99469,0,1.15967,-19.043,-0.008,0.018,12.96,0.00563049,0.0107727,0,0,0,0,0,41.72,113.899,1734010
0.0227661,-0.059082,1.00854,-1.0376,0.671387,-20.2026,0.014,-0.056,13.25,0.00582886,0.0111084,0,0,0,0,0,41.72,113.918,1734025
-0.0509644,-0.0558472,1.06659,-1.89209,-0.183105,-19.7144,-0.056,-0.035,13.55,0.00598145,0.0113831,0,0,0,0,0,41.72,113.938,1734040
-0.00592041,0.00726318,1.07678,-0.610352,0.12207,-19.104,0.002,0.017,14.12,0.00621033,0.0117645,0,0,0,0,0,41.72,113.964,1734070
-0.0184937,-0.0278931,1.00934,-2.31934,-0.976562,-17.6392,-0.018,-0.014,14.39,0.00621033,0.0119324,0,0,0,0,0,41.72,113.979,1734085
0.0118408,-0.00183105,1.01678,0.0610352,-0.427246,-14.6484,0.017,0.003,14.63,0.00621033,0.0119324,0,0,0,0,0,41.72,113.999,1734100
0.0238647,0.069458,1.06635,-0.427246,-0.671387,-8.54492,0.047,0.07,14.96,0.00614929,0.0119781,0,0,0,0,0,41.72,114.018,1734130
-0.0414429,-0.0397339,1.11206,1.89209,1.2207,-7.56836,-0.043,-0.018,15.07,0.00613403,0.0120544,0,0,0,0,0,41.72,114.04,1734145
-0.0267334,-0.0721436,0.988342,-0.488281,0.549316,-4.3335,-0.038,-0.054,15.16,0.00604248,0.012085,0,0,0,0,0,41.72,114.059,1734160
-0.0668335,-0.101074,1.0235,-4.27246,1.09863,-2.99072,-0.084,-0.07,15.27,0.00587463,0.0119934,0,0,0,0,0,41.72,114.078,1734190
0.0378418,-0.0302124,0.991089,-2.19727,-0.244141,-0.366211,0.035,-0.029,15.28,0.0057373,0.0118561,0,0,0,0,0,41.72,114.098,1734205
0.0267944,-0.012146,0.970032,-0.488281,1.0376,-1.09863,0.028,-0.009,15.29,0.00566101,0.011673,0,0,0,0,0,41.72,114.118,1734220
0.0248413,-0.0367432,1.03827,0.183105,-0.732422,-0.0610352,0.021,-0.031,15.28,0.00549316,0.0116577,0,0,0,0,0,41.72,114.138,1734250
-0.0238647,-0.0450439,0.97467,0.793457,0.244141,-0.549316,-0.028,-0.027,15.29,0.00540161,0.0115814,0,0,0,0,0,41.72,114.159,1734265
-0.020752,-0.0740967,1.0824,0,-1.34277,0.0610352,-0.032,-0.055,15.29,0.00526428,0.0114594,0,0,0,0,0,41.72,114.18,1734280
-0.00744629,0.0275269,0.983704,-2.62451,-0.915527,1.89209,0.006,0.039,15.28,0.00511169,0.0112305,0,0,0,0,0,41.72,114.198,1734310
0.0214844,-0.0447998,0.984253,-2.0752,-0.793457,5.12695,0.014,-0.037,15.21,0.00511169,0.0111389,0,0,0,0,0,41.72,114.221,1734325
-0.00878906,0.0995483,0.994507,0.732422,-0.427246,5.67627,0.022,0.109,15.13,0.00514221,0.0110931,0,0,0,0,0,41.72,114.238,1734340
0.000915527,0.00543213,0.960144,-1.70898,-0.671387,9.33838,0.007,0.016,14.92,0.00517273,0.0111237,0,0,0,0,0,41.72,114.261,1734371
-0.0167847,-0.0251465,1.04053,0,0.427246,8.8501,-0.018,-0.008,14.78,0.00517273,0.0111237,0,0,0,0,0,41.72,114.282,1734385
0.00878906,0.022583,1.00739,1.0376,-0.671387,10.9863,0.018,0.031,14.63,0.00517273,0.0111389,0,0,0,0,0,41.72,114.298,1734400
-0.0160522,0.00250244,0.968872,-1.2207,-0.427246,10.8032,-0.01,0.017,14.28,0.00526428,0.011322,0,0,0,0,0,41.75,114.32,1734431
-0.0158691,-0.0333862,1.03497,0.305176,-0.915527,11.8408,-0.019,-0.016,14.11,0.0052948,0.011322,0,0,0,0,0,41.75,114.338,1734445
-0.0338135,-0.0439453,1.02283,0.671387,-1.46484,11.4136,-0.039,-0.022,13.59,0.00538635,0.0111542,0,0,0,0,0,41.75,114.379,1734491
-0.0274658,-0.0234375,1.0722,-0.0610352,-1.34277,11.9629,-0.029,-0.004,13.41,0.00535583,0.0110626,0,0,0,0,0,41.75,114.398,1734505
0.0299683,0.0343628,0.983582,-0.610352,-1.77002,10.2539,0.039,0.038,13.08,0.00543213,0.0110779,0,0,0,0,0,41.75,114.425,1734535
0.0333252,0.0734253,1.03131,0.183105,-1.58691,10.8032,0.05,0.076,12.92,0.00556946,0.0111847,0,0,0,0,0,41.75,114.439,1734551
-0.0178833,-0.0112915,0.965393,-0.183105,-0.366211,9.58252,-0.018,0.004,12.77,0.00572205,0.0113678,0,0,0,0,0,41.75,114.459,1734565
0.0929565,0.00744629,0.964355,-0.0610352,-1.28174,9.39941,0.093,-0.001,12.62,0.00592041,0.0115356,0,0,0,0,0,41.75,114.479,1734580
0.0231934,0.0175171,1.00439,-0.610352,-0.488281,9.33838,0.026,0.024,12.34,0.00653076,0.0120392,0,0,0,0,0,41.75,114.498,1734611
0.0257568,0.100403,0.952637,0,-0.549316,9.39941,0.046,0.104,12.07,0.00724792,0.0128174,0,0,0,0,0,41.75,114.533,1734640
0.0257568,0.100403,0.952637,0,-0.549316,9.39941,0.046,0.104,12.07,0.00724792,0.0128174,0,0,0,0,0,41.75,114.542,1734640
0.00952148,-0.0720215,1.00305,-0.183105,-0.732422,9.82666,-0.005,-0.06,11.77,0.00808716,0.013916,0,0,0,0,0,41.75,114.558,1734671
0.00506592,-0.0314941,0.972107,-0.183105,-1.09863,9.15527,-0.002,-0.02,11.63,0.00808716,0.0144043,0,0,0,0,0,41.75,114.578,1734685
0.0032959,-0.039917,1.03784,-0.427246,-0.732422,9.82666,-0.005,-0.028,11.33,0.00816345,0.0153198,0,0,0,0,0,41.75,114.615,1734715
0.0869751,0.100891,1.01855,0.854492,-1.46484,9.70459,0.103,0.094,11.03,0.00834656,0.0161896,0,0,0,0,0,41.75,114.638,1734745
0.0303955,0.161621,0.969055,0.854492,-0.610352,8.8501,0.058,0.164,10.89,0.00857544,0.0168152,0,0,0,0,0,41.75,114.658,1734760
0.0180054,0.0523071,1.05768,1.0376,0.427246,9.52148,0.024,0.059,10.47,0.009552,0.0192566,0,0,0,0,0,41.75,114.695,1734805
-0.0271606,-0.0585938,1.00891,-1.2207,0.0610352,10.5591,-0.039,-0.042,10.32,0.00993347,0.0201569,0,0,0,0,0,41.75,114.719,1734820
0.0550537,0.0310059,1.01538,-0.0610352,-0.671387,11.9629,0.056,0.031,9.98,0.0107574,0.0219421,0,0,0,0,0,41.75,114.743,1734851
0.0400391,0.0316772,0.935242,-0.732422,-1.77002,12.6953,0.042,0.035,9.62,0.0115967,0.02388,0,0,0,0,0,41.75,114.767,1734881
0.0400391,0.0316772,0.935242,-0.732422,-1.77002,12.6953,0.042,0.035,9.62,0.0115967,0.02388,0,0,0,0,0,41.75,114.782,1734881
-0.0201416,-0.0145264,1.03656,-0.305176,-0.854492,12.146,-0.025,0,9.26,0.0124054,0.0258942,0,0,0,0,0,41.75,114.799,1734911
0.0344238,-0.0211182,1.03522,-1.52588,-0.427246,11.9019,0.026,-0.014,8.87,0.0131989,0.0280151,0,0,0,0,0,41.76,114.828,1734941
0.00500488,0.0408936,1.01703,-1.2207,0.305176,11.5356,0.006,0.051,8.7,0.0136414,0.0291138,0,0,0,0,0,41.76,114.844,1734956
0.0617065,0.0296021,0.948853,-0.732422,-1.0376,10.8032,0.061,0.031,8.53,0.0141296,0.0302582,0,0,0,0,0,41.76,114.864,1734971
0.0493164,-0.00311279,0.988586,1.58691,-0.0610352,10.3149,0.043,0,8.38,0.014679,0.0314331,0,0,0,0,0,41.76,114.88,1734986
-0.0043335,0.0722656,0.919189,0.12207,-0.549316,11.0474,0.001,0.083,7.87,0.0163727,0.0346985,0,0,0,0,0,41.76,114.927,1735031
-0.0302734,-0.079895,1.08221,0.732422,0.12207,12.4512,-0.045,-0.062,7.69,0.016922,0.0358276,0,0,0,0,0,41.76,114.939,1735046
-0.0106812,-0.0775757,1.00726,0.0610352,-0.0610352,9.94873,-0.025,-0.063,7.36,0.0180206,0.0379028,0,0,0,0,0,41.76,114.966,1735076
-0.0106812,-0.0775757,1.00726,0.0610352,-0.0610352,9.94873,-0.025,-0.063,7.36,0.0180206,0.0379028,0,0,0,0,0,41.76,114.979,1735076
0.0396118,0.115356,1.00098,-0.915527,-0.305176,10.437,0.048,0.121,7.03,0.0191193,0.0399628,0,0,0,0,0,41.76,115.002,1735106
0.0338745,0.022522,0.945435,0.305176,-0.488281,11.5356,0.031,0.029,6.86,0.0197296,0.041153,0,0,0,0,0,41.76,115.019,1735121
0.0303955,-0.0195312,1.04419,0.12207,0.488281,11.4746,0.022,-0.01,6.5,0.0209808,0.0434265,0,0,0,0,0,41.76,115.038,1735151
-0.00836182,0.0389404,0.966248,-1.0376,-0.427246,11.7187,-0.008,0.05,6.32,0.0216217,0.0445557,0,0,0,0,0,41.76,115.064,1735166
0.0230103,-0.0205078,0.976318,0.366211,0.366211,11.4746,0.015,-0.011,6.15,0.0216217,0.0457153,0,0,0,0,0,41.76,115.08,1735181
-0.00238037,0.0341187,1.02661,-0.610352,-0.854492,12.8784,-0.004,0.046,5.77,0.0216217,0.0479584,0,0,0,0,0,41.76,115.107,1735211
0.0107422,-0.0283203,0.992859,-0.0610352,-0.915527,13.3057,0.002,-0.017,5.57,0.0216217,0.0491028,0,0,0,0,0,41.76,115.119,1735226
0.036438,-0.0598755,1.0119,-0.366211,-0.366211,13.1836,0.025,-0.051,5.17,0.021637,0.0490723,0,0,0,0,0,41.76,115.142,1735256
-0.0170898,-0.133606,1.0661,0.366211,-0.671387,12.0239,-0.034,-0.119,4.99,0.0216522,0.0489197,0,0,0,0,0,41.76,115.159,1735271
-0.00415039,-0.0692139,1.08563,1.34277,-0.793457,11.3525,-0.016,-0.056,4.81,0.021637,0.0486603,0,0,0,0,0,41.76,115.178,1735286
0.0563354,-0.0116577,1.04736,0.610352,-0.732422,11.4136,0.049,-0.004,4.65,0.021637,0.0483398,0,0,0,0,0,41.76,115.198,1735301
-0.00012207,0.0202026,1.03943,2.01416,0.0610352,11.0474,-0.005,0.031,4.31,0.021759,0.04776,0,0,0,0,0,41.76,115.218,1735331
-0.0183105,0.00476074,1.0365,-0.0610352,-0.183105,12.5732,-0.023,0.017,4.13,0.0218048,0.0475311,0,0,0,0,0,41.76,115.241,1735346
0.0291748,-0.0176392,0.987488,-0.366211,-0.366211,11.5356,0.021,-0.008,3.96,0.0218506,0.047287,0,0,0,0,0,41.76,115.26,1735361
0.0196533,-0.0545044,1.05823,0.0610352,-0.244141,13.2446,0.009,-0.044,3.57,0.0219116,0.0468292,0,0,0,0,0,41.76,115.278,1735391
-0.00628662,-0.041687,1.05127,-0.488281,-0.366211,13.2446,-0.015,-0.029,3.37,0.0219421,0.0465546,0,0,0,0,0,41.76,115.299,1735406
0.0176392,-0.015564,1.00165,-0.366211,-0.793457,13.0615,0.01,-0.004,3.17,0.0219421,0.0462494,0,0,0,0,0,41.76,115.318,1735421
-0.00244141,-0.105774,1.00531,1.40381,0,11.7798,-0.014,-0.094,2.81,0.0219421,0.0456543,0,0,0,0,0,41.77,115.338,1735451
0.0412598,0.0202026,1.00171,1.46484,-0.0610352,11.5356,0.035,0.029,2.63,0.0219574,0.0453033,0,0,0,0,0,41.77,115.358,1735466
-0.0466309,-0.0756836,1.10583,0.732422,0.854492,10.376,-0.057,-0.061,2.47,0.0219574,0.0449219,0,0,0,0,0,41.77,115.379,1735481
0.00769043,-0.0941772,1.047,1.34277,-1.2207,13.1836,-0.003,-0.083,2.29,0.0219116,0.0444489,0,0,0,0,0,41.77,115.398,1735496
-0.0339355,-0.0548096,1.06952,0.12207,0.183105,14.0381,-0.043,-0.042,1.89,0.0218506,0.0433044,0,0,0,0,0,41.77,115.418,1735526
0.0221558,0.0604858,1.03394,-1.40381,-0.549316,14.8926,0.016,0.07,1.66,0.0218048,0.0427094,0,0,0,0,0,41.77,115.438,1735541
0.0184326,-0.00836182,1.03717,0.12207,-1.34277,14.5264,0.01,0.002,1.23,0.0218048,0.0421753,0,0,0,0,0,41.77,115.458,1735571
0.0106201,0.00250244,1.01367,0.366211,-0.610352,13.7329,0.002,0.012,1.02,0.0218048,0.0421753,0,0,0,0,0,41.77,115.478,1735586
0.0184326,-0.0684204,1.01044,0.244141,-0.976562,13.4888,0.009,-0.058,0.81,0.0218048,0.0421448,0,0,0,0,0,41.77,115.498,1735601
0.0567627,0.0309448,1.00317,0.671387,-0.732422,12.3291,0.048,0.041,0.43,0.0218201,0.0420532,0,0,0,0,0,41.77,115.518,1735631
-0.0130615,-0.12677,1.06683,1.52588,-0.732422,12.0239,-0.022,-0.116,0.08,0.0218353,0.0416412,0,0,0,0,0,41.77,115.547,1735661
-0.0130615,-0.12677,1.06683,1.52588,-0.732422,12.0239,-0.022,-0.116,0.08,0.0218353,0.0416412,0,0,0,0,0,41.77,115.559,1735661
-0.0115967,0.00683594,0.982971,0.549316,-0.610352,10.3149,-0.02,0.016,-0.22,0.0218201,0.0408783,0,0,0,0,0,41.77,115.579,1735691
-0.0180664,-0.0444336,1.05481,1.40381,-0.183105,11.1084,-0.026,-0.033,-0.39,0.0217896,0.0404816,0,0,0,0,0,41.77,115.6,1735706
0.0159912,-0.0550537,1.08331,1.77002,0.366211,10.2539,0.006,-0.044,-0.55,0.0217438,0.0400391,0,0,0,0,0,41.77,115.618,1735721
-0.0155029,-0.00878906,1.02521,0.0610352,-0.549316,5.92041,-0.024,0,-0.8,0.0217133,0.0392303,0,0,0,0,0,41.77,115.639,1735752
0.00488281,-0.0210571,1.03027,-2.0752,-0.671387,2.19727,-0.004,-0.011,-0.84,0.0216675,0.0388489,0,0,0,0,0,41.77,115.658,1735766
0.0703125,0.135132,0.951111,-2.0752,-0.366211,0.671387,0.059,0.145,-0.87,0.0216522,0.0385437,0,0,0,0,0,41.77,115.679,1735781
-0.000305176,-0.00189209,0.978516,-1.52588,-0.732422,-2.0752,-0.01,0.007,-0.8,0.0217743,0.0384369,0,0,0,0,0,41.77,115.699,1735812
0.0167236,-0.0405273,1.01312,0.427246,1.34277,-2.62451,0.007,-0.031,-0.78,0.0217743,0.0384216,0,0,0,0,0,41.77,115.719,1735826
0.0340576,-0.0592041,1.05664,0,0.732422,-4.69971,0.024,-0.049,-0.72,0.0217896,0.0383453,0,0,0,0,0,41.77,115.739,1735841
-0.0571899,-0.00628662,1.01556,-1.15967,0.610352,-3.72314,-0.066,0.002,-0.58,0.0218048,0.0383301,0,0,0,0,0,41.77,115.759,1735872
0.0205078,-0.0551147,1.03522,-1.70898,0.610352,-2.92969,0.011,-0.044,-0.54,0.021759,0.0383301,0,0,0,0,0,41.77,115.781,1735886
-0.00982666,-0.0945435,1.03204,-1.64795,0.12207,-2.74658,-0.018,-0.084,-0.49,0.0217133,0.0382385,0,0,0,0,0,41.77,115.8,1735901
-0.020813,-0.116699,1.04535,0.488281,-0.976562,-1.64795,-0.029,-0.106,-0.46,0.0216217,0.0380249,0,0,0,0,0,41.77,115.818,1735916
-0.0101929,0.0133057,1.04309,0.305176,0.366211,-2.2583,-0.019,0.024,-0.43,0.0214386,0.0373688,0,0,0,0,0,41.77,115.839,1735946
0.019043,0.0337524,0.960999,-0.915527,-1.09863,-1.58691,0.01,0.044,-0.4,0.0214386,0.0370941,0,0,0,0,0,41.78,115.858,1735961
0.0143433,-0.0183105,1.0307,0.854492,0.549316,-1.77002,0.005,-0.007,-0.35,0.0214081,0.0367584,0,0,0,0,0,41.78,115.878,1735992
0.0123291,0.00683594,0.970703,-1.46484,0.427246,-1.64795,0.003,0.017,-0.32,0.0213928,0.0366211,0,0,0,0,0,41.78,115.898,1736006
-0.0267334,0.0543213,0.961121,-1.0376,-0.12207,-2.19727,-0.035,0.064,-0.29,0.0213623,0.0365295,0,0,0,0,0,41.78,115.92,1736021
0.0346069,0.0307617,1.04907,1.15967,0.427246,-3.17383,0.025,0.041,-0.22,0.0211945,0.0365753,0,0,0,0,0,41.78,115.939,1736052
0.0185547,-0.116821,1.01617,0.0610352,-0.915527,-2.99072,0.009,-0.106,-0.18,0.0211334,0.0365753,0,0,0,0,0,41.78,115.959,1736066
-0.0057373,0.0473022,1.00458,-0.549316,0.183105,-2.01416,-0.014,0.058,-0.15,0.0210724,0.0365601,0,0,0,0,0,41.78,115.978,1736081
0.0713501,-0.046875,0.995544,-1.64795,0.12207,-2.50244,0.063,-0.035,-0.08,0.0211029,0.0366211,0,0,0,0,0,41.78,115.998,1736112
-0.0478516,0.0423584,1.01447,-0.793457,-0.549316,-2.92969,-0.056,0.053,-0.03,0.0211487,0.0366669,0,0,0,0,0,41.78,116.019,1736126
0.00799561,0.0852661,0.967102,-0.671387,0.305176,-1.95312,0,0.096,0,0.0211639,0.0368042,0,0,0,0,0,41.78,116.039,1736141
-0.00396729,0.0195923,0.957458,-1.95312,0.732422,-3.35693,-0.011,0.03,0.07,0.0212402,0.0375214,0,0,0,0,0,41.78,116.058,1736172
-0.0342407,0.0498657,0.973206,0.793457,0.244141,-3.23486,-0.041,0.061,0.13,0.0212402,0.0380096,0,0,0,0,0,41.78,116.078,1736186
0.032959,-0.122559,1.04474,0.366211,0.305176,-2.50244,0.024,-0.11,0.16,0.0212402,0.0384521,0,0,0,0,0,41.78,116.099,1736202
-0.0402222,0.00958252,0.981018,-1.15967,0.610352,-1.95312,-0.047,0.022,0.23,0.0213013,0.0391235,0,0,0,0,0,41.78,116.119,1736232
0.0432129,0.0531006,0.998291,1.83105,-0.488281,-0.12207,0.036,0.065,0.24,0.0213165,0.0395203,0,0,0,0,0,41.78,116.141,1736247
0.0045166,0.0432129,0.987915,-1.15967,1.58691,-1.09863,-0.001,0.055,0.25,0.0213623,0.0404968,0,0,0,0,0,41.78,116.171,1736277
0.0067749,0.0303345,0.960022,0.244141,0.305176,-2.19727,0,0.041,0.28,0.0213623,0.0410919,0,0,0,0,0,41.78,116.183,1736292
-0.000854492,-0.0518188,1.02753,-0.915527,0.366211,-1.34277,-0.007,-0.039,0.31,0.0213623,0.041687,0,0,0,0,0,41.78,116.198,1736307
0.0344238,0.0247192,1.04004,-1.77002,1.0376,-2.38037,0.027,0.037,0.34,0.0213776,0.0422668,0,0,0,0,0,41.78,116.218,1736322
-0.024292,0.0822144,0.941956,-1.52588,0.305176,-0.427246,-0.029,0.095,0.39,0.0214081,0.0436554,0,0,0,0,0,41.78,116.24,1736352
0.00146484,0.012085,1.02728,0.366211,0.12207,-0.671387,-0.004,0.025,0.39,0.0213928,0.0444946,0,0,0,0,0,41.78,116.258,1736367
-0.00231934,0.0219727,0.979797,-0.305176,-0.366211,-0.0610352,-0.007,0.035,0.39,0.0213623,0.0453491,0,0,0,0,0,41.78,116.278,1736382
-0.00384521,0.0387573,0.923279,-0.183105,-0.610352,-0.305176,-0.008,0.051,0.39,0.0213623,0.0462799,0,0,0,0,0,41.78,116.298,1736397
0.0144043,0.0114746,1.02258,-0.305176,-0.427246,0.488281,0.008,0.025,0.38,0.0213623,0.0484161,0,0,0,0,0,41.78,116.318,1736427
0.0189819,-0.0726318,1.01239,-2.2583,-0.549316,-1.28174,0.012,-0.058,0.39,0.0213623,0.0494995,0,0,0,0,0,41.78,116.338,1736442
0.0383301,-0.0135498,0.975098,-0.305176,-1.34277,0,0.032,0,0.4,0.0213928,0.0505524,0,0,0,0,0,41.78,116.358,1736457
0.0390625,0.0165405,0.968994,0.12207,0.793457,-1.58691,0.033,0.03,0.42,0.0215454,0.0527802,0,0,0,0,0,41.75,116.378,1736487
0.00457764,-0.0794067,0.995605,-0.12207,0,-1.46484,-0.002,-0.065,0.44,0.0216522,0.0539093,0,0,0,0,0,41.75,116.398,1736502
0.00427246,-0.102356,1.05646,-0.12207,0.488281,-0.976562,-0.002,-0.087,0.48,0.021759,0.055954,0,0,0,0,0,41.75,116.419,1736532
-0.00927734,-0.0123901,1.0365,-0.305176,-0.0610352,-0.793457,-0.015,0.003,0.49,0.021759,0.0568848,0,0,0,0,0,41.75,116.439,1736547
-0.0192871,0.0383911,0.988281,0.854492,-0.366211,-0.488281,-0.024,0.053,0.5,0.0217285,0.0578613,0,0,0,0,0,41.75,116.458,1736562
0.000610352,-0.0250244,1.03796,0.549316,-0.305176,-0.305176,-0.005,-0.009,0.51,0.0216064,0.0597534,0,0,0,0,0,41.75,116.479,1736592
-0.036438,-0.141296,1.03156,-0.366211,-0.366211,-0.732422,-0.043,-0.125,0.52,0.0214996,0.0605774,0,0,0,0,0,41.75,116.5,1736607
0.0404053,-0.039917,1.09247,1.2207,-0.427246,-0.976562,0.033,-0.024,0.53,0.0213928,0.0613098,0,0,0,0,0,41.75,116.518,1736622
0.0482788,0.0631104,0.983337,-1.77002,-0.183105,-2.01416,0.043,0.077,0.59,0.0212708,0.0628967,0,0,0,0,0,41.75,116.538,1736652
-0.0171509,0.108398,0.9552,-0.427246,0.12207,-1.34277,-0.021,0.123,0.62,0.0212555,0.0638733,0,0,0,0,0,41.75,116.558,1736667
0.000915527,0.0419312,0.989868,-0.854492,0.488281,-0.732422,-0.004,0.057,0.62,0.0212097,0.0649719,0,0,0,0,0,41.75,116.578,1736682
-0.0090332,-0.0499268,0.97821,-2.01416,0.610352,0.427246,-0.015,-0.034,0.62,0.0212097,0.0672607,0,0,0,0,0,41.75,116.6,1736712
-0.026123,-0.03302,1.00543,-0.0610352,0.671387,0.549316,-0.031,-0.016,0.61,0.0211792,0.0683594,0,0,0,0,0,41.75,116.619,1736727
-0.0236206,-0.0802612,1.07336,-0.854492,0.183105,0.244141,-0.03,-0.063,0.61,0.0211029,0.0694122,0,0,0,0,0,41.75,116.639,1736742
-0.00189209,0.0172119,0.972168,-0.366211,-0.793457,0.0610352,-0.006,0.032,0.61,0.0209961,0.0704346,0,0,0,0,0,41.75,116.658,1736757
-0.0151978,-0.0562134,1.08441,1.34277,0.854492,-1.15967,-0.021,-0.038,0.63,0.0209961,0.0725403,0,0,0,0,0,41.75,116.678,1736787
-0.0122681,-0.0206909,1.06696,1.70898,-0.183105,-1.09863,-0.018,-0.003,0.65,0.0209503,0.0735474,0,0,0,0,0,41.75,116.698,1736802
0.0153198,-0.0137329,1.02032,1.89209,0.610352,-1.15967,0.009,0.002,0.68,0.0209503,0.0754547,0,0,0,0,0,41.75,116.719,1736832
-0.00195312,0.0212402,1.03418,1.28174,-0.366211,0,-0.007,0.037,0.68,0.0209656,0.076416,0,0,0,0,0,41.75,116.739,1736847
0.0153809,-0.0819092,1.02979,-2.13623,0,-0.915527,0.008,-0.065,0.7,0.0209656,0.0773621,0,0,0,0,0,41.75,116.758,1736862
0.00622559,-0.0115967,1.06873,1.09863,0.0610352,-0.244141,0,0.006,0.71,0.0209656,0.0792084,0,0,0,0,0,41.75,116.778,1736892
-0.0542603,-0.11145,1.06165,-1.09863,0.488281,-0.366211,-0.061,-0.093,0.71,0.0209198,0.0800934,0,0,0,0,0,41.75,116.798,1736907
-0.0263062,-0.0374146,1.02972,1.58691,-0.12207,-0.183105,-0.032,-0.02,0.71,0.0207367,0.0816956,0,0,0,0,0,41.75,116.824,1736937
-0.0263062,-0.0374146,1.02972,1.58691,-0.12207,-0.183105,-0.032,-0.02,0.71,0.0207367,0.0816956,0,0,0,0,0,41.75,116.838,1736937
0.0261841,0.0253906,1.0011,-1.70898,-1.0376,0.244141,0.02,0.041,0.71,0.0204315,0.0831604,0,0,0,0,0,41.75,116.858,1736967
-0.0195923,0.03125,0.950195,-0.549316,-0.793457,1.0376,-0.025,0.047,0.7,0.0202789,0.0839386,0,0,0,0,0,41.73,116.878,1736982
-0.0203857,-0.0127563,1.04382,-0.488281,-0.183105,-0.793457,-0.027,0.004,0.69,0.019928,0.0847626,0,0,0,0,0,41.73,116.899,1737012
0.0342407,-0.0530396,0.961243,-2.38037,-0.610352,-1.15967,0.027,-0.036,0.71,0.0197449,0.0847321,0,0,0,0,0,41.73,116.919,1737027
0.0211792,0.0476685,1.03156,0.427246,-0.366211,-2.38037,0.014,0.065,0.74,0.0196075,0.0847321,0,0,0,0,0,41.73,116.938,1737042
0.067627,-0.0332642,1.12927,-1.15967,-1.28174,-2.01416,0.059,-0.014,0.81,0.0194397,0.0849609,0,0,0,0,0,41.73,116.958,1737073
-0.00250244,0.0353394,0.949219,0.305176,-0.244141,-1.77002,-0.008,0.051,0.84,0.0194092,0.0851288,0,0,0,0,0,41.73,116.978,1737087
-0.0078125,0.0170288,0.991577,0.366211,-0.427246,-0.915527,-0.014,0.034,0.86,0.0194092,0.0853424,0,0,0,0,0,41.73,116.998,1737102
0.0180664,0.0361328,0.991577,-0.610352,-0.732422,-0.488281,0.011,0.053,0.87,0.0194092,0.0856171,0,0,0,0,0,41.73,117.018,1737117
-0.0241699,-0.0384521,0.987488,-0.366211,-0.366211,0,-0.031,-0.02,0.86,0.0193176,0.0862122,0,0,0,0,0,41.73,117.039,1737147
0.0217896,-0.00946045,1.047,0.183105,-0.610352,-0.671387,0.014,0.008,0.87,0.0192261,0.0864868,0,0,0,0,0,41.73,117.058,1737162
0.0215454,0.0276489,0.975769,-1.89209,-1.52588,-1.0376,0.014,0.044,0.89,0.0192261,0.086792,0,0,0,0,0,41.73,117.078,1737177
-0.0270386,-0.145325,1.08978,0.366211,0.244141,-1.77002,-0.037,-0.125,0.95,0.0192108,0.0874786,0,0,0,0,0,41.73,117.099,1737207
-0.00842285,-0.0897217,1.03638,-0.854492,1.40381,-1.52588,-0.017,-0.07,0.97,0.0191498,0.0876617,0,0,0,0,0,41.73,117.118,1737222
-0.0303955,0.0353394,0.974731,0,0.854492,-0.488281,-0.037,0.054,1,0.0190125,0.0880432,0,0,0,0,0,41.73,117.138,1737253
0.019165,0.0408936,1.07318,1.09863,0.732422,-0.976562,0.011,0.06,1.01,0.0189209,0.0883484,0,0,0,0,0,41.73,117.158,1737267
-0.0146484,-0.0684814,1.06781,-1.15967,-0.0610352,-0.12207,-0.023,-0.048,1.02,0.0188141,0.0886688,0,0,0,0,0,41.73,117.178,1737282
0.000976562,0.0563965,0.952576,0.549316,-0.366211,-0.366211,-0.004,0.075,1.04,0.0184479,0.0893402,0,0,0,0,0,41.73,117.199,1737313
0.0441895,-0.0189819,1.05383,-0.12207,-1.2207,-0.671387,0.036,0,1.04,0.0182648,0.0897522,0,0,0,0,0,41.73,117.219,1737327
0.00286865,-0.0767822,0.990234,-1.34277,-0.610352,-0.854492,-0.005,-0.057,1.05,0.0180817,0.0901489,0,0,0,0,0,41.73,117.24,1737342
0.0430908,0.0133057,1.06799,0.549316,-0.976562,-1.09863,0.035,0.033,1.07,0.0177612,0.0906982,0,0,0,0,0,41.73,117.258,1737373
0.000976562,-0.000610352,1.03528,0.305176,-0.183105,-1.0376,-0.007,0.019,1.09,0.0176239,0.0909882,0,0,0,0,0,41.73,117.279,1737387
0.0424805,-0.0578613,0.943665,-0.366211,-0.0610352,-1.28174,0.033,-0.039,1.1,0.0175018,0.0912628,0,0,0,0,0,41.73,117.298,1737402
0.053772,-0.0512695,1.08777,-0.488281,0.427246,-1.40381,0.043,-0.031,1.16,0.0174408,0.0916748,0,0,0,0,0,41.73,117.319,1737433
0.0187378,-0.0646362,0.989685,-1.70898,-0.244141,-1.52588,0.009,-0.045,1.18,0.0174713,0.0917816,0,0,0,0,0,41.73,117.34,1737447
-0.0337524,-0.0740967,0.999146,-0.183105,0.671387,-2.0752,-0.043,-0.053,1.21,0.0174866,0.0918427,0,0,0,0,0,41.73,117.359,1737462
0.038269,-0.00689697,1.05536,-0.915527,0.0610352,-1.95312,0.03,0.013,1.26,0.0175323,0.0918884,0,0,0,0,0,41.74,117.381,1737493
-0.000183105,-0.00372314,0.933228,-1.0376,-0.488281,-0.12207,-0.006,0.015,1.28,0.0175781,0.0918884,0,0,0,0,0,41.74,117.399,1737507
-0.00195312,-0.0142822,1.04419,1.95312,-0.610352,-0.12207,-0.009,0.006,1.28,0.0176239,0.0918884,0,0,0,0,0,41.74,117.422,1737522
-0.00317383,-0.109314,1.03497,-1.09863,0.366211,-0.488281,-0.012,-0.088,1.27,0.0176086,0.0916901,0,0,0,0,0,41.74,117.439,1737553
0.0406494,0.045166,0.94635,0.12207,0.183105,-1.28174,0.035,0.063,1.29,0.0176086,0.091507,0,0,0,0,0,41.74,117.459,1737568
0.0146484,0.0158691,1.05737,0.488281,-0.0610352,-1.52588,0.007,0.036,1.31,0.0176239,0.0914001,0,0,0,0,0,41.74,117.478,1737583
0.0137329,0.0826416,0.918701,-2.19727,0.305176,-1.15967,0.009,0.101,1.35,0.017746,0.0913086,0,0,0,0,0,41.74,117.499,1737613
0.00646973,0.0283203,0.998657,-0.305176,0.732422,-0.244141,0,0.049,1.36,0.0178223,0.0914001,0,0,0,0,0,41.74,117.521,1737628
-0.0198975,-0.178833,1.11108,-0.732422,0.854492,-0.427246,-0.031,-0.155,1.36,0.0178833,0.0914307,0,0,0,0,0,41.74,117.539,1737643
-0.0125732,-0.0193481,0.986511,0.854492,0.12207,-0.366211,-0.019,0.001,1.36,0.0178833,0.0912018,0,0,0,0,0,41.74,117.56,1737673
0.024231,0.00683594,0.998291,0.305176,-0.366211,0.0610352,0.018,0.026,1.37,0.0178833,0.091095,0,0,0,0,0,41.74,117.578,1737688
-0.0215454,-0.00427246,1.05389,-0.488281,-0.244141,-0.732422,-0.028,0.018,1.38,0.0178833,0.0910187,0,0,0,0,0,41.74,117.598,1737703
0.0495605,-0.0480347,0.951721,-0.0610352,-0.732422,-0.915527,0.042,-0.029,1.39,0.0178833,0.0909271,0,0,0,0,0,41.74,117.618,1737718
0.0316772,0.00543213,1.03491,-0.549316,-0.549316,-1.15967,0.024,0.025,1.42,0.0179443,0.0907745,0,0,0,0,0,41.74,117.639,1737748
0.0385742,0.0116577,0.9375,-1.2207,0.12207,-1.40381,0.032,0.029,1.44,0.0180206,0.090744,0,0,0,0,0,41.74,117.658,1737763
0.0236206,-0.0488281,1.06543,-0.488281,0.366211,-1.64795,0.015,-0.028,1.49,0.0181122,0.0909882,0,0,0,0,0,41.74,117.678,1737793
-0.0179443,-0.0220337,1.0108,-0.793457,0.793457,-0.732422,-0.025,-0.001,1.51,0.0181122,0.0911255,0,0,0,0,0,41.74,117.698,1737808
0.0151978,0.0284424,0.932434,0.244141,0.671387,-0.915527,0.009,0.046,1.52,0.0180817,0.0912781,0,0,0,0,0,41.74,117.718,1737823
-0.0376587,-0.0604858,1.11267,0.0610352,-0.0610352,-0.12207,-0.046,-0.037,1.52,0.0180359,0.0917206,0,0,0,0,0,41.74,117.738,1737853
-0.0117188,-0.0397339,0.985352,0,1.28174,-0.671387,-0.018,-0.02,1.53,0.0179596,0.0919037,0,0,0,0,0,41.74,117.758,1737868
-0.0128174,-0.0859375,1.04047,0.732422,-0.12207,-0.427246,-0.021,-0.065,1.53,0.0178528,0.0920105,0,0,0,0,0,41.74,117.779,1737883
-0.0377197,0.0296021,1.05444,-0.366211,0.427246,-1.64795,-0.043,0.05,1.56,0.0177002,0.0921173,0,0,0,0,0,41.74,117.798,1737898
0.0784302,0.359985,0.837891,5.85937,-2.99072,-1.52588,0.082,0.373,1.6,0.0175018,0.0925751,0,0,0,0,0,41.74,117.818,1737928
0.0219116,-0.0158081,0.848267,2.19727,-1.58691,0.0610352,0.015,-0.001,1.59,0.0175171,0.0931854,0,0,0,0,0,41.74,117.838,1737943
-0.00158691,0.0535278,1.02374,-0.427246,0.793457,0.183105,-0.006,0.071,1.61,0.0174713,0.0940247,0,0,0,0,0,41.74,117.871,1737973
0.0308838,-0.0654297,0.997192,-1.83105,-0.244141,-0.488281,0.022,-0.048,1.61,0.0174255,0.0944061,0,0,0,0,0,41.74,117.879,1737988
-0.0442505,-0.0126953,1.00378,-3.17383,1.46484,-1.64795,-0.051,0.007,1.64,0.0173645,0.0947723,0,0,0,0,0,41.74,117.899,1738003
0.0859375,0.205933,0.975647,-3.41797,-1.64795,-0.915527,0.086,0.222,1.66,0.017334,0.0952911,0,0,0,0,0,41.74,117.918,1738018
-0.0164185,0.0441895,0.939819,2.13623,0.183105,-0.854492,-0.02,0.061,1.69,0.0173645,0.0970306,0,0,0,0,0,41.74,117.938,1738048
0.0459595,-0.0690918,0.994934,1.83105,-0.305176,0.549316,0.038,-0.052,1.68,0.017395,0.0979767,0,0,0,0,0,41.74,117.959,1738063
-0.0401001,0.00854492,1.04254,1.95312,0.793457,0.183105,-0.045,0.027,1.67,0.0174255,0.0988922,0,0,0,0,0,41.74,117.978,1738078
-0.036499,-0.0661621,1.03577,-1.70898,-0.427246,0.366211,-0.044,-0.047,1.67,0.0174103,0.100693,0,0,0,0,0,41.74,117.998,1738108
0.029541,-0.0357056,1.07196,-2.56348,-0.12207,-0.427246,0.022,-0.017,1.67,0.0173798,0.101517,0,0,0,0,0,41.74,118.018,1738123
-0.0360718,-0.0254517,1.05914,1.40381,-0.183105,-0.305176,-0.042,-0.005,1.69,0.0173035,0.102325,0,0,0,0,0,41.74,118.038,1738153
0.0387573,0.0150757,0.994385,0.671387,-0.488281,-0.488281,0.033,0.031,1.7,0.0172424,0.102341,0,0,0,0,0,41.74,118.058,1738168
0.0217285,0.00915527,0.944458,2.2583,0.0610352,-1.0376,0.016,0.024,1.72,0.0172272,0.102402,0,0,0,0,0,41.74,118.08,1738183
0.0291138,0.0733032,0.972168,0.671387,-0.976562,-0.305176,0.025,0.088,1.72,0.0172272,0.102539,0,0,0,0,0,41.74,118.1,1738198
-0.00317383,0.0786743,0.907349,-1.64795,0.671387,-0.549316,-0.006,0.093,1.74,0.0173035,0.103271,0,0,0,0,0,41.74,118.118,1738228
-0.0128784,0.0263062,0.959656,-0.427246,-0.610352,-0.488281,-0.018,0.042,1.74,0.0173035,0.103806,0,0,0,0,0,41.74,118.14,1738243
0.0195923,-0.0114746,0.936096,0,0.488281,-1.77002,0.013,0.003,1.77,0.0173035,0.105011,0,0,0,0,0,41.74,118.16,1738273
0.0424194,0.0213013,0.8797,1.2207,-0.610352,-1.70898,0.037,0.034,1.79,0.017334,0.105667,0,0,0,0,0,41.74,118.178,1738288
-0.0134277,0.0809326,1.02252,1.83105,-0.488281,-2.13623,-0.017,0.097,1.82,0.0173798,0.1064,0,0,0,0,0,41.74,118.2,1738303
-0.0178223,-0.038147,0.955261,0.427246,1.15967,-2.0752,-0.025,-0.023,1.87,0.0175476,0.107971,0,0,0,0,0,41.74,118.221,1738333
-0.0219727,-0.0223999,0.963074,-1.15967,-0.854492,-0.915527,-0.029,-0.006,1.94,0.017807,0.110184,0,0,0,0,0,41.74,118.266,1738378
-0.0219727,-0.0223999,0.963074,-1.15967,-0.854492,-0.915527,-0.029,-0.006,1.94,0.017807,0.110184,0,0,0,0,0,41.74,118.278,1738378
0.0162964,-0.0512695,1.06671,0.854492,0.244141,-0.793457,0.007,-0.035,1.98,0.0178375,0.111633,0,0,0,0,0,41.74,118.306,1738408
0.0388184,-0.0744019,1.02911,-0.427246,-0.732422,-1.28174,0.029,-0.06,1.99,0.017868,0.112274,0,0,0,0,0,41.74,118.318,1738423
-0.0281982,0.0169067,1.03601,1.34277,-0.244141,-1.46484,-0.034,0.033,2.04,0.0180206,0.113419,0,0,0,0,0,41.74,118.344,1738454
0.0690308,-0.00500488,1.08978,-0.12207,-1.15967,-0.427246,0.061,0.008,2.05,0.0181122,0.114014,0,0,0,0,0,41.74,118.358,1738468
-0.00140381,-0.0488281,0.971375,-0.671387,0.183105,-0.793457,-0.01,-0.034,2.06,0.0182343,0.114578,0,0,0,0,0,41.74,118.381,1738483
-0.048645,-0.0883789,1.00726,1.52588,0.793457,-0.854492,-0.058,-0.071,2.07,0.0183258,0.115097,0,0,0,0,0,41.74,118.398,1738498
-0.0534058,-0.00195312,1.0188,0.915527,0.488281,-0.549316,-0.06,0.014,2.09,0.0185089,0.115875,0,0,0,0,0,41.74,118.419,1738528
0.00378418,-0.00439453,0.917725,2.80762,-0.671387,-1.09863,-0.002,0.009,2.1,0.0185699,0.116257,0,0,0,0,0,41.74,118.44,1738543
-0.00732422,0.0751343,1.02991,0.671387,-0.732422,-0.12207,-0.012,0.089,2.11,0.0186157,0.116959,0,0,0,0,0,41.74,118.461,1738574
-0.0475464,-0.128662,0.955261,0.488281,0.12207,-1.89209,-0.059,-0.113,2.13,0.0185699,0.117294,0,0,0,0,0,41.74,118.481,1738588
0.0296631,-0.0871582,1.02509,-0.244141,-1.0376,-0.732422,0.018,-0.073,2.15,0.0184937,0.117493,0,0,0,0,0,41.74,118.498,1738603
-0.00366211,0.0261841,1.1134,-0.427246,-0.0610352,-1.34277,-0.011,0.041,2.17,0.0184174,0.117676,0,0,0,0,0,41.74,118.52,1738618
0.0599365,-0.041748,0.986206,0.427246,-0.305176,-1.83105,0.05,-0.03,2.21,0.0183411,0.118042,0,0,0,0,0,41.74,118.541,1738648
-0.0632935,-0.0796509,1.09241,0.244141,1.89209,-1.77002,-0.075,-0.062,2.24,0.0183105,0.118134,0,0,0,0,0,41.74,118.559,1738663
0.0455322,0.00695801,1.06317,-1.28174,0.793457,-0.793457,0.037,0.019,2.26,0.0182495,0.11821,0,0,0,0,0,41.74,118.578,1738678
-0.0125732,-0.114685,1.02307,-1.09863,1.64795,-2.44141,-0.025,-0.1,2.34,0.0182037,0.118149,0,0,0,0,0,41.74,118.599,1738708
0.020752,0.169128,0.991882,-0.610352,-0.0610352,-1.0376,0.02,0.181,2.36,0.0181732,0.118134,0,0,0,0,0,41.74,118.62,1738723
0.0172729,0.0979004,0.899658,0.976562,-0.12207,-1.89209,0.014,0.109,2.38,0.0181732,0.118317,0,0,0,0,0,41.74,118.639,1738738
0.020874,0.00921631,1.0658,5.31006,-0.427246,-1.0376,0.013,0.018,2.41,0.0181732,0.118896,0,0,0,0,0,41.74,118.659,1738768
-0.0256958,-0.00665283,1.08698,4.82178,0.671387,-2.44141,-0.033,0.003,2.44,0.018158,0.118896,0,0,0,0,0,41.74,118.679,1738783
0.0200806,0.0319214,0.943176,3.78418,-0.610352,-4.15039,0.014,0.036,2.52,0.018158,0.118927,0,0,0,0,0,41.74,118.699,1738814
-0.00354004,-0.020752,1.07635,2.99072,0.793457,-4.39453,-0.012,-0.015,2.59,0.018158,0.118973,0,0,0,0,0,41.74,118.719,1738828
0.0101318,-0.0174561,1.07428,1.64795,-0.366211,-3.72314,0.001,-0.013,2.65,0.018158,0.119003,0,0,0,0,0,41.74,118.743,1738843
-0.0022583,-0.00396729,0.971619,0.305176,0.732422,-2.01416,-0.009,0,2.74,0.018158,0.119003,0,0,0,0,0,41.74,118.759,1738874
0.00238037,-0.00506592,1.03137,-1.0376,0.183105,-1.09863,-0.005,-0.001,2.76,0.018158,0.119003,0,0,0,0,0,41.74,118.779,1738889
-0.00384521,0.0200195,1.06403,-1.28174,-0.12207,-1.46484,-0.01,0.024,2.78,0.018158,0.119019,0,0,0,0,0,41.74,118.799,1738904
0.0244751,0.0177002,0.987549,-1.40381,0,0.976562,0.018,0.02,2.77,0.018158,0.119095,0,0,0,0,0,41.74,118.82,1738934
0.0130005,0.00335693,1.02283,-2.13623,-0.305176,0.854492,0.006,0.007,2.76,0.018158,0.119156,0,0,0,0,0,41.74,118.839,1738949
0.013916,0.019165,1.04547,-2.2583,-0.549316,0.976562,0.007,0.023,2.74,0.018158,0.119247,0,0,0,0,0,41.74,118.859,1738964
-0.0232544,-0.027832,1.00488,-2.74658,0.0610352,1.0376,-0.031,-0.021,2.73,0.0181427,0.119339,0,0,0,0,0,41.74,118.879,1738979
-0.012085,-0.0122681,1.02655,-4.27246,0.549316,0.305176,-0.02,-0.004,2.71,0.0181732,0.119415,0,0,0,0,0,41.74,118.9,1739009
0.00390625,-0.104797,1.12756,-4.45557,0.610352,0.610352,-0.008,-0.095,2.7,0.0181885,0.119354,0,0,0,0,0,41.73,118.919,1739024
0.0264282,-0.0736694,1.05768,-3.84521,0.427246,-0.12207,0.015,-0.065,2.7,0.0182037,0.119171,0,0,0,0,0,41.73,118.938,1739039
-0.0155029,-0.0723267,1.03143,0.488281,0.915527,2.38037,-0.026,-0.061,2.68,0.01828,0.118561,0,0,0,0,0,41.73,118.958,1739069
0.0140991,-0.0106812,0.969666,0.915527,-0.0610352,1.0376,0.006,-0.002,2.66,0.0183105,0.118164,0,0,0,0,0,41.73,118.98,1739084
0.0390625,-0.0516357,0.99884,1.15967,-0.549316,0.732422,0.029,-0.044,2.64,0.0183563,0.117752,0,0,0,0,0,41.73,118.998,1739099
0.0264893,-0.0648804,1.03253,-1.64795,-0.305176,2.44141,0.016,-0.055,2.6,0.0184479,0.116791,0,0,0,0,0,41.73,119.018,1739129
0.0228271,-0.0561523,1.02026,-0.305176,0.244141,1.77002,0.013,-0.046,2.58,0.0184479,0.116211,0,0,0,0,0,41.73,119.038,1739144
-0.00775146,-0.0405273,1.00494,0.366211,-0.793457,1.0376,-0.016,-0.029,2.56,0.0184479,0.115585,0,0,0,0,0,41.73,119.058,1739159
0.00305176,0.0673218,0.966125,1.0376,-0.549316,-1.40381,0,0.076,2.57,0.0184479,0.114441,0,0,0,0,0,41.73,119.079,1739189
0.0424805,0.0576172,0.982178,2.99072,0.12207,-2.68555,0.038,0.064,2.6,0.0184631,0.114014,0,0,0,0,0,41.73,119.098,1739204
0.00189209,0.00952148,1.06238,4.15039,0.12207,-3.72314,-0.005,0.017,2.65,0.0185089,0.113632,0,0,0,0,0,41.73,119.119,1739219
0.0255737,0.0102539,1.00134,7.20215,0.0610352,-3.11279,0.018,0.012,2.73,0.0185699,0.113037,0,0,0,0,0,41.73,119.138,1739249
0.00518799,-0.00341797,0.983948,7.32422,0.488281,-3.90625,-0.002,-0.002,2.78,0.0185699,0.112778,0,0,0,0,0,41.73,119.16,1739264
0.00408936,-0.0924683,1.02148,4.45557,0.366211,-0.793457,-0.008,-0.092,2.81,0.0185699,0.112457,0,0,0,0,0,41.73,119.178,1739279
-0.000671387,0.038269,1.02374,3.66211,0.0610352,-2.62451,-0.006,0.036,2.85,0.0185699,0.111786,0,0,0,0,0,41.73,119.198,1739309
-0.0166626,-0.00384521,1.02319,3.23486,-0.549316,0.183105,-0.024,-0.006,2.86,0.0185394,0.111496,0,0,0,0,0,41.73,119.221,1739324
0.00744629,0.0110474,1.01141,2.38037,-0.549316,0.183105,0,0.007,2.86,0.0185089,0.111206,0,0,0,0,0,41.73,119.238,1739339
0.0206299,0.0270386,1.01984,1.46484,-0.427246,0.366211,0.014,0.021,2.86,0.0184631,0.111206,0,0,0,0,0,41.73,119.258,1739369
0.0168457,0.0112305,1.02191,0.915527,-0.549316,0.793457,0.009,0.005,2.85,0.0184631,0.111237,0,0,0,0,0,41.73,119.281,1739384
0.0245972,0.0366211,1.01526,1.46484,-0.610352,-0.488281,0.018,0.029,2.85,0.0184631,0.111298,0,0,0,0,0,41.73,119.301,1739399
0.0197144,0.0172729,1.01117,0.183105,0.0610352,-1.34277,0.011,0.01,2.87,0.0184631,0.111435,0,0,0,0,0,41.73,119.319,1739429
-0.00799561,0.0115356,1.0072,-0.0610352,0.427246,-2.13623,-0.015,0.005,2.9,0.0184631,0.111435,0,0,0,0,0,41.73,119.338,1739444
0.0316162,-0.0103149,0.996399,-0.732422,0.732422,-1.70898,0.022,-0.017,2.93,0.0184631,0.111435,0,0,0,0,0,41.73,119.358,1739459
0.00799561,0.0268555,1.02557,-1.52588,0.366211,-1.95312,0.001,0.02,2.98,0.0184937,0.11145,0,0,0,0,0,41.73,119.381,1739489
0.00396729,0.0115967,1.02356,-1.34277,0.0610352,-1.2207,-0.003,0.005,3.01,0.0184937,0.111496,0,0,0,0,0,41.73,119.398,1739504
-0.0155029,0.0147095,0.993469,-1.2207,-0.12207,-0.549316,-0.022,0.01,3.01,0.0184784,0.111542,0,0,0,0,0,41.73,119.419,1739519
-0.00280762,-0.0118408,1.02673,-2.44141,-0.244141,1.70898,-0.011,-0.015,3.01,0.0183716,0.111542,0,0,0,0,0,41.74,119.439,1739549
0.00671387,0.0283813,1.02313,-2.74658,-0.610352,2.13623,0,0.024,2.97,0.0183716,0.111542,0,0,0,0,0,41.74,119.458,1739564
0.0224609,0.0375366,0.993164,-2.80762,-0.793457,1.46484,0.016,0.033,2.95,0.0183716,0.111588,0,0,0,0,0,41.74,119.478,1739579
0.0163574,-0.00317383,1.02417,-4.45557,-0.427246,0.610352,0.007,-0.005,2.92,0.0183716,0.111664,0,0,0,0,0,41.74,119.498,1739609
0.0254517,0.00842285,0.988403,-5.24902,-0.12207,-0.244141,0.017,0.007,2.92,0.0183716,0.111664,0,0,0,0,0,41.74,119.52,1739624
0.0241699,0.00469971,1.00421,-5.79834,0.488281,0,0.016,0.004,2.92,0.0183716,0.111664,0,0,0,0,0,41.74,119.538,1739639
-0.0236206,-0.0787354,1.08398,-4.15039,1.28174,-1.2207,-0.036,-0.072,2.93,0.0183563,0.111664,0,0,0,0,0,41.74,119.559,1739669
0.00421143,-0.0281372,1.01514,-4.21143,0.549316,-0.488281,-0.005,-0.023,2.95,0.0183105,0.111588,0,0,0,0,0,41.74,119.578,1739684
-0.00256348,0.00756836,0.959717,-0.549316,0.0610352,-0.183105,-0.009,0.013,2.95,0.0182495,0.111511,0,0,0,0,0,41.74,119.599,1739699
-0.0057373,-0.0982056,1.03625,1.2207,0.12207,0.671387,-0.018,-0.091,2.94,0.0180511,0.111237,0,0,0,0,0,41.74,119.619,1739729
0.000244141,-0.0402832,0.981995,1.0376,-0.549316,1.15967,-0.008,-0.033,2.93,0.0179291,0.110977,0,0,0,0,0,41.74,119.639,1739744
0.00592041,-0.0218506,1.02002,1.15967,-0.488281,2.13623,-0.002,-0.015,2.9,0.0179291,0.110672,0,0,0,0,0,41.74,119.658,1739759
0.0078125,0.0551147,1.00739,1.77002,-0.610352,0.305176,0.002,0.061,2.87,0.0179291,0.110077,0,0,0,0,0,41.74,119.678,1739789
0.0140991,0.0374756,1.00989,2.50244,-0.610352,-0.244141,0.007,0.042,2.87,0.0179291,0.109863,0,0,0,0,0,41.74,119.698,1739804
-0.00689697,-0.0109253,1.04578,3.35693,-0.366211,-0.305176,-0.016,-0.006,2.87,0.0179291,0.109665,0,0,0,0,0,41.74,119.718,1739819
0.0269165,-0.015686,0.985962,4.76074,-0.671387,1.15967,0.017,-0.015,2.86,0.0179291,0.109329,0,0,0,0,0,41.74,119.739,1739849
0.0141602,0.0336914,1.02106,4.88281,0.12207,1.70898,0.006,0.032,2.83,0.0179291,0.109177,0,0,0,0,0,41.74,119.759,1739864
0.0120239,0.0186157,1.02594,4.5166,-0.0610352,1.52588,0.003,0.016,2.81,0.0179291,0.109055,0,0,0,0,0,41.74,119.779,1739879
0.00976562,0.00457764,1.00787,4.27246,-0.0610352,0.610352,0,0,2.78,0.0179901,0.108963,0,0,0,0,0,41.74,119.799,1739909
0.0115967,-0.00402832,1.00848,3.35693,0.12207,0.183105,0.001,-0.01,2.77,0.0180359,0.108963,0,0,0,0,0,41.74,119.819,1739924
-0.00201416,0.0057373,1.0108,1.2207,-0.305176,-0.915527,-0.011,0,2.79,0.0180359,0.108963,0,0,0,0,0,41.74,119.84,1739955
-0.00585938,0.0162354,0.998779,0.488281,-0.183105,-1.40381,-0.014,0.009,2.8,0.0180359,0.108963,0,0,0,0,0,41.74,119.865,1739969
0.00592041,0.0124512,1.00604,-0.0610352,-0.244141,-1.64795,-0.003,0.005,2.83,0.0180359,0.108963,0,0,0,0,0,41.74,119.879,1739984
0.0160522,0.0250244,1.02081,0.732422,-0.12207,-0.793457,0.007,0.016,2.86,0.0180359,0.109024,0,0,0,0,0,41.74,119.901,1740015
0.0299072,0.0178833,1.005,0.549316,-0.12207,-1.0376,0.02,0.008,2.87,0.0180664,0.109085,0,0,0,0,0,41.74,119.918,1740029
0.0182495,0.0286255,1.0163,0.488281,0.183105,-1.70898,0.009,0.019,2.9,0.0180969,0.109085,0,0,0,0,0,41.71,119.939,1740044
0.0195923,-0.00842285,1.01208,-0.366211,0.366211,-2.38037,0.008,-0.017,2.93,0.018158,0.109085,0,0,0,0,0,41.71,119.959,1740059
0.000427246,0.0134888,1.01392,-1.95312,0.427246,-2.31934,-0.009,0.006,3.01,0.018158,0.109085,0,0,0,0,0,41.71,119.979,1740089
0.00427246,0.0264893,1.02289,-1.95312,0.244141,-1.77002,-0.004,0.019,3.04,0.018158,0.109085,0,0,0,0,0,41.71,119.998,1740104
-0.0045166,0.000183105,1.01416,-2.19727,0.305176,-1.95312,-0.014,-0.006,3.07,0.018158,0.109085,0,0,0,0,0,41.71,120.019,1740119
0.000488281,0.0105591,1.00671,-3.60107,-0.427246,0.305176,-0.008,0.005,3.09,0.0180664,0.109085,0,0,0,0,0,41.71,120.039,1740149
0.0115967,0.00518799,1.01752,-3.66211,-0.549316,1.09863,0.002,0,3.07,0.0179901,0.109085,0,0,0,0,0,41.71,120.058,1740164
0.0261841,0.0198975,1.01428,-3.96728,-0.671387,1.95312,0.017,0.016,3.01,0.0179901,0.109085,0,0,0,0,0,41.71,120.081,1740195
0.0282593,0.00610352,1.00677,-4.08936,-0.244141,1.46484,0.018,0.003,2.99,0.0179901,0.109085,0,0,0,0,0,41.71,120.1,1740209
0.0272827,0.0128784,1.01721,-4.94385,-0.183105,1.52588,0.017,0.011,2.96,0.0179901,0.109085,0,0,0,0,0,41.71,120.12,1740225
0.0307007,0.000915527,1.02142,-5.5542,0.366211,0.366211,0.02,0,2.96,0.0180206,0.109085,0,0,0,0,0,41.71,120.138,1740240
-0.00720215,-0.0264893,0.970581,-1.83105,-0.488281,0.366211,-0.018,-0.023,2.94,0.0181732,0.109314,0,0,0,0,0,41.71,120.158,1740270
-0.000305176,-0.0455933,1.02301,0.183105,0.244141,0.610352,-0.012,-0.042,2.93,0.0181732,0.109421,0,0,0,0,0,41.71,120.178,1740285
     0,-0.0301514,0.979736,0.488281,-0.488281,0.549316,-0.01,-0.026,2.92,0.0181732,0.109467,0,0,0,0,0,41.71,120.203,1740315
-0.00427246,0.0350952,1.00024,2.74658,-0.549316,0.12207,-0.011,0.038,2.91,0.0181732,0.109467,0,0,0,0,0,41.71,120.218,1740330
0.019043,0.0194702,1.03198,4.39453,-0.488281,0.244141,0.01,0.02,2.91,0.0181732,0.109512,0,0,0,0,0,41.71,120.238,1740345
0.0150757,-0.000549316,1.04822,4.5166,-0.976562,0.244141,0.004,0,2.91,0.0181732,0.109573,0,0,0,0,0,41.71,120.258,1740360
0.0325928,0.00738525,0.983276,2.56348,-0.12207,0.488281,0.022,0.004,2.87,0.0181885,0.109619,0,0,0,0,0,41.71,120.279,1740390
0.0425415,0.0635376,1.05505,4.08936,-0.183105,1.58691,0.034,0.059,2.86,0.0182343,0.109665,0,0,0,0,0,41.71,120.299,1740405
0.024292,0.0397339,1.02399,5.31006,-0.0610352,1.64795,0.015,0.034,2.83,0.0183258,0.109772,0,0,0,0,0,41.71,120.319,1740420
0.0158081,-0.0115967,1.02289,4.21143,0.427246,1.40381,0.003,-0.019,2.79,0.0183258,0.109894,0,0,0,0,0,41.71,120.338,1740450
0.0105591,0.0255127,0.995422,2.86865,-0.12207,-0.610352,0,0.015,2.79,0.0183258,0.10997,0,0,0,0,0,41.71,120.39,1740495
-0.00305176,0.00152588,1.01929,2.2583,-0.427246,-1.09863,-0.014,-0.009,2.83,0.0183258,0.10997,0,0,0,0,0,41.71,120.414,1740525
-0.00305176,0.00152588,1.01929,2.2583,-0.427246,-1.09863,-0.014,-0.009,2.83,0.0183258,0.10997,0,0,0,0,0,41.71,120.427,1740525
0.0307007,0.0197144,1.01349,1.40381,-0.488281,-0.366211,0.02,0.006,2.84,0.0183258,0.10997,0,0,0,0,0,41.71,120.438,1740540
0.0186157,0.0310059,1.00934,0.427246,-0.0610352,0.732422,0.008,0.017,2.83,0.0183563,0.10997,0,0,0,0,0,41.7,120.459,1740570
0.0286255,0.0335693,1.0036,-0.12207,0.0610352,0.488281,0.018,0.019,2.82,0.0183563,0.10997,0,0,0,0,0,41.7,120.478,1740585
0.0065918,0.0220337,1.01587,-0.732422,0.366211,-0.244141,-0.004,0.008,2.81,0.0183563,0.10997,0,0,0,0,0,41.7,120.498,1740600
0.000854492,-0.00415039,1.02087,-2.31934,0.183105,-0.305176,-0.01,-0.016,2.84,0.0183563,0.10997,0,0,0,0,0,41.7,120.54,1740645
0.0112915,0.0147705,1.00446,-2.80762,0.12207,0.366211,0,0.003,2.84,0.0183563,0.10997,0,0,0,0,0,41.7,120.558,1740660
0.00830078,0.00872803,1.01184,-3.2959,-0.12207,0.610352,-0.002,-0.001,2.82,0.0183563,0.10997,0,0,0,0,0,41.7,120.579,1740690
0.00970459,0.0022583,1.01416,-3.60107,-0.305176,0.244141,-0.001,-0.007,2.81,0.0183563,0.10997,0,0,0,0,0,41.7,120.598,1740705
0.0115967,0.0065918,1.0094,-4.15039,0,-0.0610352,0.001,-0.001,2.81,0.0183563,0.10997,0,0,0,0,0,41.7,120.618,1740720
0.013916,0.00842285,1.01721,-5.00488,0.0610352,-0.366211,0.003,0.002,2.82,0.0183563,0.10997,0,0,0,0,0,41.7,120.638,1740750
0.0187988,0.00305176,1.00354,-5.37109,0.183105,-0.12207,0.008,-0.001,2.83,0.0183563,0.10997,0,0,0,0,0,41.7,120.659,1740765
0.00805664,-0.00012207,1.01599,-5.79834,0.366211,0.305176,-0.002,-0.003,2.83,0.0183563,0.10997,0,0,0,0,0,41.7,120.679,1740780
0.00488281,0.0756226,1.00671,-3.66211,-0.854492,0.488281,-0.001,0.076,2.81,0.0183563,0.110031,0,0,0,0,0,41.7,120.699,1740810
0.00317383,-0.00775146,1.01782,-3.479,-0.427246,0.915527,-0.007,-0.006,2.79,0.0183563,0.110138,0,0,0,0,0,41.7,120.72,1740825
-0.003479,-0.0793457,0.976013,-0.915527,0.366211,0.976562,-0.017,-0.076,2.78,0.0183563,0.110184,0,0,0,0,0,41.7,120.738,1740840
0.0142212,-0.0944214,1.01349,0.793457,-0.244141,3.05176,0,-0.09,2.72,0.0183563,0.109955,0,0,0,0,0,41.7,120.758,1740870
0.00140381,-0.0444336,1.00354,1.58691,0.366211,3.35693,-0.01,-0.04,2.67,0.0183563,0.109695,0,0,0,0,0,41.7,120.779,1740885
0.00701904,-0.0220947,0.999023,1.77002,0.244141,3.66211,-0.004,-0.018,2.61,0.0183563,0.10939,0,0,0,0,0,41.7,120.798,1740900
-0.000549316,-0.0650024,1.02594,1.52588,0.183105,9.58252,-0.013,-0.061,2.44,0.0183563,0.109329,0,0,0,0,0,41.7,120.818,1740930
0.0256958,0.0395508,1.00403,1.89209,-0.12207,14.9536,0.017,0.042,2.24,0.0183563,0.109268,0,0,0,0,0,41.7,120.841,1740945
-0.00701904,-0.0428467,1.01843,1.64795,0.183105,18.0054,-0.018,-0.039,1.98,0.0183563,0.109207,0,0,0,0,0,41.7,120.86,1740960
-0.00244141,0.0244141,1.00836,0.549316,-0.366211,21.1792,-0.011,0.026,1.36,0.0183563,0.109055,0,0,0,0,0,41.7,120.878,1740990
0.0144043,0.00854492,1.01337,0.183105,-1.09863,21.8506,0.004,0.01,0.72,0.0183563,0.109009,0,0,0,0,0,41.7,120.907,1741020
0.0144043,0.00854492,1.01337,0.183105,-1.09863,21.8506,0.004,0.01,0.72,0.0183563,0.109009,0,0,0,0,0,41.7,120.919,1741020
0.0130005,0.00921631,1.0191,-0.488281,-1.15967,20.9961,0.002,0.01,0.08,0.0183563,0.109009,0,0,0,0,0,41.7,120.939,1741050
0.0131226,-0.00823975,1.02344,-1.77002,-0.976562,20.5078,0.001,-0.006,-0.23,0.0183563,0.109009,0,0,0,0,0,41.71,120.959,1741065
0.0234375,-0.0269165,1.01971,-2.44141,-0.671387,20.752,0.012,-0.024,-0.53,0.0183563,0.108994,0,0,0,0,0,41.71,120.979,1741080
0.0332031,-0.0241089,1.04816,-1.77002,-0.427246,31.7383,0.021,-0.018,-1.36,0.0183716,0.108841,0,0,0,0,0,41.71,120.999,1741110
-0.0116577,-0.0246582,1.00659,-0.915527,0.244141,31.311,-0.022,-0.02,-1.83,0.0183868,0.108719,0,0,0,0,0,41.71,121.019,1741125
0.0134277,-0.0154419,1.00934,-0.610352,-0.366211,34.0576,0.002,-0.009,-2.83,0.0183868,0.108337,0,0,0,0,0,41.71,121.042,1741156
-0.00946045,-0.0279541,1.00116,0.244141,-0.732422,33.3252,-0.019,-0.022,-3.33,0.0183868,0.108109,0,0,0,0,0,41.71,121.06,1741170
0.00732422,-0.0250244,0.999939,0.915527,-1.09863,34.668,-0.003,-0.018,-3.84,0.0183868,0.107849,0,0,0,0,0,41.71,121.079,1741185
0.000305176,-0.0273438,1.02435,1.15967,-1.2207,35.1562,-0.01,-0.021,-4.37,0.0183868,0.107559,0,0,0,0,0,41.71,121.099,1741200
0.00714111,-0.012207,0.99176,-1.15967,-1.83105,34.9731,-0.004,-0.005,-5.43,0.0183105,0.106857,0,0,0,0,0,41.71,121.124,1741230
0.0269165,-0.00689697,1.01581,-1.09863,-1.70898,35.1562,0.014,0.002,-5.95,0.0182648,0.106857,0,0,0,0,0,41.71,121.139,1741245
0.00860596,0.00488281,1.01733,-0.549316,-1.40381,35.9497,-0.006,0.012,-6.48,0.0182648,0.106857,0,0,0,0,0,41.71,121.159,1741260
0.0338745,0.0134277,0.994995,0.671387,-1.09863,35.8887,0.017,0.023,-7.56,0.0183258,0.106873,0,0,0,0,0,41.71,121.179,1741290
0.0216675,-0.00134277,1.01501,0.854492,-0.976562,35.0342,0.006,0.007,-8.09,0.0183716,0.106903,0,0,0,0,0,41.71,121.2,1741305
0.0202026,-0.00604248,1.00452,0.366211,-0.671387,35.4614,0.005,0.002,-8.62,0.0183716,0.106934,0,0,0,0,0,41.71,121.219,1741320
0.00531006,-0.0389404,1.04364,-0.793457,-0.610352,37.2925,-0.004,-0.032,-9.72,0.0183716,0.106918,0,0,0,0,0,41.71,121.239,1741350
-0.00891113,-0.036377,1.02234,-1.58691,-0.671387,37.4756,-0.018,-0.031,-10.28,0.0183716,0.106857,0,0,0,0,0,41.71,121.26,1741365
0.00506592,-0.00183105,0.990601,-1.64795,-0.671387,37.2925,-0.01,0.005,-10.84,0.0183716,0.106766,0,0,0,0,0,41.71,121.28,1741380
-0.0067749,0.0137329,0.996155,0,-1.0376,35.4614,-0.025,0.018,-11.92,0.0183563,0.106766,0,0,0,0,0,41.71,121.299,1741410
0.00134277,-0.00653076,1.00238,1.15967,-1.15967,34.4849,-0.013,0,-12.45,0.0183105,0.106766,0,0,0,0,0,41.71,121.318,1741425
0.0147705,-0.0152588,1.01953,1.64795,-1.58691,33.5083,0.001,-0.006,-12.95,0.0182648,0.106766,0,0,0,0,0,41.71,121.338,1741440
0.0263672,-0.0325928,1.02502,-0.305176,-1.83105,35.3394,0.015,-0.019,-13.98,0.0182648,0.106689,0,0,0,0,0,41.71,121.358,1741470
0.0123901,-0.0281372,1.01013,-1.52588,-1.34277,36.499,0.001,-0.018,-14.53,0.0182648,0.106598,0,0,0,0,0,41.71,121.378,1741485
0.019043,0.00195312,1.01129,-1.2207,-1.15967,37.7197,0,0.012,-15.09,0.0182648,0.106598,0,0,0,0,0,41.71,121.398,1741500
0.0216064,-0.00244141,1.00629,-0.244141,-0.854492,37.5366,0.002,0.009,-16.21,0.0182648,0.106598,0,0,0,0,0,41.71,121.418,1741530
0.0241089,0.0078125,0.993103,0.183105,-0.610352,36.9873,0.002,0.02,-16.78,0.0182648,0.106628,0,0,0,0,0,41.71,121.438,1741545
0.0152588,0.00738525,1.01251,1.40381,-0.732422,36.6821,-0.006,0.016,-17.32,0.0182648,0.106674,0,0,0,0,0,41.71,121.458,1741561
0.00823975,-0.0338745,1.02051,-0.488281,-0.793457,36.8042,0,-0.024,-18.43,0.0182648,0.10675,0,0,0,0,0,41.72,121.478,1741591
0.00238037,-0.0172729,0.999573,-1.70898,-0.610352,37.4756,-0.011,-0.01,-18.99,0.0182648,0.10675,0,0,0,0,0,41.72,121.501,1741606
0.0223389,0.0045166,1.02625,-1.52588,-0.610352,37.5366,0,0.017,-19.55,0.0182648,0.10675,0,0,0,0,0,41.72,121.518,1741621
0.00671387,-0.00115967,0.988098,-0.0610352,-1.15967,35.6445,-0.012,0.007,-20.64,0.0182648,0.10675,0,0,0,0,0,41.72,121.539,1741651
0.0146484,-0.0205688,1.01367,0.854492,-0.976562,34.4238,0,-0.008,-21.16,0.0182648,0.10675,0,0,0,0,0,41.72,121.558,1741666
0.0178223,-0.0289307,1.02057,1.34277,-1.40381,33.7524,0.007,-0.014,-21.67,0.0182648,0.10675,0,0,0,0,0,41.72,121.578,1741681
0.0238647,-0.031189,1.02173,0.183105,-1.28174,35.8276,0.013,-0.014,-22.72,0.0182648,0.106674,0,0,0,0,0,41.72,121.598,1741711
0.00799561,-0.0186157,1.02808,-0.854492,-0.671387,36.1938,-0.006,-0.008,-23.26,0.0182648,0.106598,0,0,0,0,0,41.72,121.621,1741726
-0.00891113,-0.00128174,1.00684,-1.77002,-0.427246,37.1704,-0.028,0,-23.81,0.0182343,0.106598,0,0,0,0,0,41.72,121.638,1741741
0.0287476,0.00695801,1.00714,-0.366211,-0.488281,36.2549,0.001,0.024,-24.91,0.0181732,0.106628,0,0,0,0,0,41.72,121.659,1741771
-0.012146,-0.000854492,1.00531,0.0610352,-0.427246,35.8276,-0.032,0,-25.45,0.0181274,0.106674,0,0,0,0,0,41.72,121.679,1741786
0.0281982,-0.00817871,1.00311,0.915527,-0.671387,34.729,0.007,0.01,-25.98,0.0180664,0.106735,0,0,0,0,0,41.72,121.699,1741801
0.00897217,-0.0169067,1.02307,0.0610352,-1.70898,34.5459,-0.006,-0.005,-27.02,0.0180206,0.106735,0,0,0,0,0,41.72,121.723,1741831
-0.00476074,-0.0496216,1.01025,-1.52588,-1.09863,35.1562,-0.003,-0.04,-27.54,0.0180206,0.106705,0,0,0,0,0,41.72,121.738,1741846
-0.00402832,-0.0220947,1.03156,-1.52588,-1.2207,35.2783,-0.016,-0.015,-28.07,0.0180206,0.106628,0,0,0,0,0,41.72,121.758,1741861
-0.0206909,-0.00946045,0.967163,0.366211,-1.0376,36.5601,-0.035,-0.012,-29.14,0.0179901,0.106415,0,0,0,0,0,41.72,121.778,1741891
0.0297852,-0.0563354,1.02997,1.70898,-1.28174,37.4146,0.03,-0.028,-29.71,0.0179749,0.106262,0,0,0,0,0,41.72,121.799,1741906
0.00378418,-0.0185547,1.04401,1.64795,-1.15967,37.9639,-0.011,-0.009,-30.27,0.0179596,0.106094,0,0,0,0,0,41.72,121.819,1741921
0.0264893,0.00585938,1.01373,-0.549316,-1.95312,39.7949,-0.004,0.023,-31.44,0.0179596,0.105667,0,0,0,0,0,41.72,121.838,1741951
-0.00488281,-0.00720215,1.02759,-1.64795,-0.976562,40.5884,-0.025,-0.004,-32.05,0.0179443,0.105469,0,0,0,0,0,41.72,121.86,1741966
0.0372925,-0.0142822,1.0531,-1.58691,-0.915527,40.5884,0.013,0.012,-32.65,0.0179138,0.105469,0,0,0,0,0,41.72,121.88,1741981
0.0198975,-0.022644,0.994751,-0.854492,-0.305176,38.6963,0.004,-0.003,-33.85,0.0178375,0.10553,0,0,0,0,0,41.72,121.899,1742011
0.024353,0.010437,1.01202,0,-0.0610352,37.1704,-0.011,0.026,-34.41,0.0177765,0.105576,0,0,0,0,0,41.72,121.919,1742026
0.0118408,-0.0281982,1.00165,-0.0610352,-0.427246,35.3394,0,-0.011,-35.49,0.0177765,0.105682,0,0,0,0,0,41.72,121.944,1742056
0.00335693,-0.0321045,1.0213,-0.12207,-0.915527,35.1562,-0.004,-0.019,-36.02,0.0177765,0.105682,0,0,0,0,0,41.72,121.958,1742071
-0.0145874,-0.0317993,1.03113,-0.610352,-0.610352,34.79,-0.018,-0.029,-36.54,0.0177765,0.105652,0,0,0,0,0,41.73,121.979,1742086
-0.0154419,-0.0496216,0.99707,-1.95312,-0.610352,34.9121,-0.007,-0.043,-37.06,0.0177765,0.105576,0,0,0,0,0,41.73,121.999,1742101
-0.000915527,-0.0323486,1.0061,-0.305176,-0.549316,34.9731,-0.006,-0.02,-38.11,0.0177765,0.105347,0,0,0,0,0,41.73,122.018,1742131
0.0159302,-0.0511475,0.981628,1.15967,-1.09863,34.668,0.018,-0.024,-38.64,0.0177765,0.105194,0,0,0,0,0,41.73,122.038,1742146
0.00317383,-0.0370483,1.00812,1.64795,-1.2207,34.1797,0,-0.021,-39.15,0.0177765,0.105011,0,0,0,0,0,41.73,122.059,1742161
0.0391846,0.00177002,1.03748,2.38037,-1.40381,34.8511,0.001,0.03,-40.18,0.0177765,0.104599,0,0,0,0,0,41.73,122.079,1742191
0.00286865,-0.0145874,1.01294,2.19727,-1.28174,36.0107,-0.014,-0.006,-40.72,0.0177765,0.104416,0,0,0,0,0,41.73,122.099,1742206
0.0187378,-0.0785522,0.996094,0.976562,-1.0376,36.1328,0.039,-0.044,-41.26,0.017807,0.104187,0,0,0,0,0,41.73,122.119,1742221
0.0103149,-0.00506592,1.02167,0.915527,-0.244141,37.0483,-0.015,0.005,-42.38,0.0178986,0.103653,0,0,0,0,0,41.73,122.139,1742251
-0.010376,-0.00305176,0.986389,2.01416,-0.183105,36.6211,-0.03,-0.007,-42.93,0.0179291,0.103653,0,0,0,0,0,41.73,122.159,1742266
0.00622559,-0.00744629,1.00867,3.72314,-1.15967,36.3159,-0.015,0,-43.48,0.0179138,0.103653,0,0,0,0,0,41.73,122.179,1742281
0.0123291,-0.0187988,1.0238,4.21143,-0.976562,36.5601,-0.002,-0.005,-44.57,0.0178986,0.103653,0,0,0,0,0,41.73,122.198,1742311
0.00335693,-0.0043335,1.01489,4.69971,-1.09863,37.7197,-0.018,-0.002,-45.13,0.0178986,0.103653,0,0,0,0,0,41.73,122.218,1742326
0.00671387,-0.057312,1.01086,3.96728,-1.0376,38.147,0.023,-0.037,-45.7,0.0178986,0.103622,0,0,0,0,0,41.73,122.242,1742341
0.0136719,-0.0141602,1.00763,2.74658,-0.610352,37.7808,-0.002,-0.003,-46.86,0.0179443,0.10347,0,0,0,0,0,41.73,122.258,1742371
0.0166016,-0.000427246,1.0116,3.41797,-0.915527,37.5366,-0.009,0.007,-47.42,0.0179443,0.10347,0,0,0,0,0,41.73,122.278,1742386
0.0165405,-0.0131226,1.01135,3.72314,-1.0376,36.8042,0,-0.001,-47.98,0.0179443,0.10347,0,0,0,0,0,41.73,122.298,1742401
0.0167847,0.000305176,1.01929,4.5166,-0.732422,36.5601,-0.008,0.005,-49.07,0.0179443,0.10347,0,0,0,0,0,41.73,122.318,1742431
0.0219116,-0.0198975,1.01331,5.24902,-0.671387,36.6211,0.011,-0.004,-49.62,0.0179443,0.10347,0,0,0,0,0,41.73,122.338,1742446
0.0214844,-0.0240479,1.02484,5.06592,-0.671387,37.4146,0.014,-0.008,-50.18,0.0179443,0.10347,0,0,0,0,0,41.73,122.358,1742461
0.0181885,0.038208,0.978882,2.80762,0.12207,36.5601,-0.033,0.028,-51.3,0.0178528,0.103485,0,0,0,0,0,41.73,122.379,1742491
0.0180054,0.00799561,1.00641,1.0376,-0.12207,35.5835,-0.009,0.008,-51.83,0.017746,0.103516,0,0,0,0,0,41.73,122.398,1742506
0.0126343,0.039917,1.00226,-1.64795,-0.183105,33.9966,-0.038,0.023,-52.88,0.0174103,0.103622,0,0,0,0,0,41.73,122.422,1742537
-0.00280762,0.0330811,1.01501,-1.2207,-0.0610352,34.79,-0.042,0.006,-53.39,0.0171661,0.103699,0,0,0,0,0,41.73,122.439,1742551
0.0137329,-0.0112305,1.02271,-1.34277,-0.488281,36.3159,0.002,-0.006,-53.93,0.0168915,0.103775,0,0,0,0,0,41.73,122.458,1742566
0.0275269,0.0266724,1.00079,-0.549316,-0.732422,37.8418,-0.02,0.027,-54.49,0.0166168,0.103867,0,0,0,0,0,41.73,122.478,1742581
0.00976562,-0.0162964,1.00818,0.183105,-0.915527,39.3066,0.004,-0.012,-55.66,0.015976,0.10405,0,0,0,0,0,41.74,122.5,1742611
0.00189209,-0.020874,0.998962,-0.488281,-0.793457,38.8794,0.003,-0.02,-56.24,0.015976,0.104111,0,0,0,0,0,41.74,122.518,1742626
-0.000915527,-0.000610352,0.999207,-1.0376,-0.610352,38.5742,-0.014,-0.011,-56.82,0.015976,0.104141,0,0,0,0,0,41.74,122.539,1742641
0.0115967,-0.00982666,1.00757,-0.976562,-0.610352,38.0249,0,-0.006,-57.97,0.015976,0.104156,0,0,0,0,0,41.74,122.558,1742671
0.0101929,-0.0237427,1.00446,-0.915527,-0.854492,38.8794,0.01,-0.014,-58.55,0.015976,0.104156,0,0,0,0,0,41.74,122.583,1742686
0.0178223,0.0105591,1.02332,-0.183105,-0.12207,39.4897,-0.015,0.01,-59.13,0.015976,0.104156,0,0,0,0,0,41.74,122.598,1742701
0.00958252,-0.0263062,1.00116,0.793457,-0.366211,39.917,0.012,-0.015,-60.33,0.015976,0.104156,0,0,0,0,0,41.74,122.618,1742731
0.0184326,-0.0129395,1.00421,0.549316,-0.244141,38.9404,0.004,-0.001,-60.92,0.015976,0.104156,0,0,0,0,0,41.74,122.638,1742746
0.0127563,-0.00537109,1.01721,0.0610352,-0.427246,37.9028,-0.004,-0.002,-61.49,0.015976,0.104156,0,0,0,0,0,41.74,122.659,1742761
0.00933838,-0.0269165,0.995972,-0.244141,-0.366211,37.9028,0.013,-0.014,-62.63,0.015976,0.104156,0,0,0,0,0,41.74,122.679,1742791
0.0172119,0.00402832,1.00537,-0.488281,-0.549316,39.2456,-0.011,0.006,-63.21,0.015976,0.104156,0,0,0,0,0,41.74,122.698,1742806
-0.00292969,0.022644,1.03357,0.305176,-0.244141,39.7339,-0.037,-0.003,-63.81,0.0159454,0.104156,0,0,0,0,0,41.74,122.718,1742821
-0.00921631,-0.00219727,1.00385,1.15967,-0.854492,40.1611,-0.016,-0.02,-65.01,0.0158081,0.104141,0,0,0,0,0,41.74,122.738,1742851
0.0133057,-0.0219727,1.00677,0,-0.366211,39.1846,0.011,-0.008,-65.61,0.0158081,0.104111,0,0,0,0,0,41.74,122.761,1742866
0.0185547,0.00244141,1.02277,-0.366211,-0.244141,39.1846,-0.009,0.006,-66.2,0.0158081,0.104065,0,0,0,0,0,41.74,122.782,1742881
-0.00128174,-0.00946045,1.0191,-1.0376,-0.183105,38.4521,-0.006,-0.016,-67.35,0.0158081,0.104065,0,0,0,0,0,41.74,122.798,1742912
0.0220337,0.00744629,1.02808,-0.366211,-0.305176,39.3066,-0.013,0.011,-67.94,0.0158081,0.104065,0,0,0,0,0,41.74,122.819,1742927
0.0206299,0.0128174,1.03235,0.976562,-0.12207,39.3677,-0.019,0.012,-68.53,0.0158081,0.104065,0,0,0,0,0,41.74,122.838,1742942
0.00604248,0.0159302,0.997498,1.0376,-0.610352,38.208,-0.026,0,-69.7,0.0158234,0.104034,0,0,0,0,0,41.74,122.859,1742972
0.000427246,0.000732422,1.04315,0.244141,-0.244141,37.0483,-0.014,-0.011,-70.25,0.0158081,0.103989,0,0,0,0,0,41.74,122.879,1742987
-0.00360107,-0.00537109,0.999451,-1.0376,-0.976562,37.5366,-0.009,-0.016,-71.36,0.0158081,0.103989,0,0,0,0,0,41.74,122.905,1743017
0.0178223,0.00238037,1.02313,-1.83105,-0.366211,38.3301,-0.011,0.006,-71.93,0.0158081,0.103989,0,0,0,0,0,41.74,122.919,1743032
0.0227051,0.0239868,1.02844,-0.671387,-0.488281,39.4897,-0.03,0.017,-72.52,0.0157776,0.103989,0,0,0,0,0,41.74,122.939,1743047
0.00439453,0.00476074,1.02911,0.305176,-0.854492,41.2598,-0.017,-0.006,-73.13,0.0157166,0.103989,0,0,0,0,0,41.74,122.959,1743062
0.0159302,-0.0147095,0.984497,0.183105,-0.305176,40.8936,0.004,0,-73.75,0.0156403,0.103989,0,0,0,0,0,41.74,122.978,1743077
0.00408936,0.00408936,1.0365,-0.732422,-0.12207,40.4663,-0.017,-0.007,-74.97,0.0156403,0.103989,0,0,0,0,0,41.75,123,1743107
0.00769043,-0.0246582,1.01276,-1.70898,-0.0610352,39.6729,0.011,-0.01,-75.57,0.0156403,0.103989,0,0,0,0,0,41.75,123.021,1743122
0.00689697,0.0444946,1.00922,-2.68555,-0.244141,40.7104,-0.057,0.005,-76.79,0.0156097,0.103989,0,0,0,0,0,41.75,123.038,1743152
0.0088501,0.00769043,1.02985,-1.28174,-0.793457,41.1377,-0.021,-0.001,-77.4,0.0155182,0.103989,0,0,0,0,0,41.75,123.059,1743167
0.00720215,-0.00256348,1.01306,-0.854492,-1.15967,41.3818,-0.011,-0.004,-78.02,0.0154114,0.103989,0,0,0,0,0,41.75,123.08,1743182
-0.00219727,-0.0149536,0.987244,-1.46484,-0.610352,40.8936,-0.001,-0.016,-78.64,0.0154114,0.103989,0,0,0,0,0,41.75,123.098,1743197
0.0126953,-0.0267944,1.02856,-2.44141,-0.549316,40.7715,0.011,-0.003,-79.85,0.0154114,0.103989,0,0,0,0,0,41.75,123.118,1743227
0.0055542,-0.0184326,1.00031,-3.41797,-0.366211,40.5273,0.001,-0.008,-80.46,0.0154114,0.103989,0,0,0,0,0,41.75,123.139,1743242
0.0114746,-0.00640869,1.02924,-3.17383,-0.732422,40.9546,-0.011,0,-81.69,0.0153503,0.103989,0,0,0,0,0,41.75,123.159,1743272
0.00762939,-0.000732422,1.01685,-2.80762,-0.793457,40.5273,-0.018,-0.003,-82.3,0.0152893,0.103989,0,0,0,0,0,41.75,123.178,1743287
-0.0100708,-0.0193481,0.977112,-3.23486,-0.854492,40.3442,-0.001,-0.023,-82.91,0.0152893,0.103973,0,0,0,0,0,41.75,123.199,1743302
-0.00140381,-0.00915527,1.0462,-3.17383,-0.732422,39.0015,-0.013,-0.013,-84.1,0.0152893,0.103867,0,0,0,0,0,41.75,123.219,1743332
-0.00280762,-0.0337524,1.01691,-3.78418,-0.976562,39.0625,0.01,-0.016,-84.68,0.0152893,0.103867,0,0,0,0,0,41.75,123.239,1743347
0.00476074,-0.0103149,0.986694,-4.39453,-0.854492,39.4287,-0.012,-0.006,-85.27,0.0152893,0.103867,0,0,0,0,0,41.75,123.259,1743362
0.0154419,-0.0133667,1.03253,-4.21143,-1.34277,40.7104,-0.012,0.003,-86.47,0.015213,0.103867,0,0,0,0,0,41.75,123.283,1743392
0.00128174,-0.0111084,1.00031,-4.63867,-1.09863,40.7715,-0.015,-0.01,-87.08,0.015152,0.103867,0,0,0,0,0,41.75,123.299,1743407
0.015686,-0.0296021,1.02698,-5.24902,-0.732422,41.1377,0,0.003,-88.32,0.015152,0.103867,0,0,0,0,0,41.75,123.334,1743437
-0.00695801,-0.0180664,1.0329,-6.46973,-0.671387,41.8091,-0.013,-0.019,-88.94,0.015152,0.103867,0,0,0,0,0,41.75,123.341,1743452
0.00726318,-0.00897217,1.00287,-7.38525,-1.09863,42.5415,-0.023,-0.004,-89.57,0.0151215,0.103867,0,0,0,0,0,41.75,123.358,1743467
0.0253906,-0.0462036,1.03479,-7.62939,-0.793457,43.0298,0.011,0.013,-90.22,0.0150909,0.103867,0,0,0,0,0,41.75,123.378,1743482
0.00726318,0.00402832,0.950195,-3.41797,-1.83105,41.0767,-0.038,-0.004,-91.48,0.0148315,0.103775,0,0,0,0,0,41.75,123.4,1743512
-0.000610352,-0.0675049,0.955505,-0.427246,-1.28174,38.3911,0.032,-0.009,-92.08,0.0146484,0.103683,0,0,0,0,0,41.75,123.419,1743527
0.0055542,-0.0869751,1.02539,0.915527,-1.46484,35.9497,0.049,-0.003,-92.63,0.0145264,0.103683,0,0,0,0,0,41.75,123.439,1743542
-0.000305176,-0.105103,0.982605,0.976562,-1.46484,36.8042,0.068,-0.006,-93.71,0.0144806,0.103622,0,0,0,0,0,41.75,123.466,1743572
0.0424805,-0.0744019,1.06329,1.64795,-1.52588,37.4756,0.032,0.033,-94.27,0.0145721,0.103607,0,0,0,0,0,41.75,123.478,1743587
-0.043457,-0.0605469,1.02588,-0.549316,-1.2207,38.5742,0.026,-0.052,-94.84,0.0146942,0.103577,0,0,0,0,0,41.75,123.499,1743602
0.017395,-0.0622559,0.984985,-0.427246,-1.46484,39.978,0.023,0.009,-95.44,0.0148621,0.1035,0,0,0,0,0,41.72,123.518,1743617
-0.020813,0.0180664,1.02289,0.671387,-1.0376,34.9731,-0.052,-0.037,-96.58,0.0151062,0.1035,0,0,0,0,0,41.72,123.538,1743647
-0.00384521,-0.0119629,0.995483,0.793457,-1.28174,31.4941,-0.022,-0.016,-97.07,0.015152,0.103439,0,0,0,0,0,41.72,123.558,1743662
0.0147095,-0.0186768,1.0437,0.732422,-1.09863,26.4282,-0.019,0.001,-97.93,0.0151215,0.103394,0,0,0,0,0,41.72,123.582,1743692
-0.0227661,-0.0275269,0.995728,-0.183105,-0.793457,25.9399,-0.003,-0.033,-98.32,0.0150604,0.103363,0,0,0,0,0,41.72,123.6,1743707
0.0195312,-0.0246582,1.00311,-0.427246,-0.793457,25.4517,-0.012,0.007,-98.71,0.0150604,0.103333,0,0,0,0,0,41.72,123.62,1743722
-0.0259399,-0.0218506,1.00555,-1.46484,-0.915527,23.5596,-0.008,-0.037,-99.44,0.0150604,0.10321,0,0,0,0,0,41.72,123.638,1743752
0.0135498,-0.026001,0.984619,-0.854492,-0.671387,24.5361,-0.01,0.002,-99.8,0.0150604,0.103119,0,0,0,0,0,41.72,123.66,1743767
0.0111694,-0.0204468,1.01495,-0.0610352,-0.366211,24.353,-0.016,-0.001,-100.16,0.0150604,0.103027,0,0,0,0,0,41.72,123.678,1743782
-0.0356445,-0.0192261,1.00592,0.12207,-0.427246,24.0478,-0.008,-0.047,-100.53,0.0150604,0.10289,0,0,0,0,0,41.72,123.698,1743798
0.00964355,-0.0391235,1.02155,0.244141,-0.610352,22.522,0.002,0.001,-101.22,0.0150604,0.10257,0,0,0,0,0,41.72,123.72,1743827
-0.00878906,-0.00341797,1.01837,-0.366211,-0.854492,20.3857,-0.028,-0.023,-101.55,0.0150452,0.102386,0,0,0,0,0,41.72,123.738,1743842
-0.00836182,-0.00836182,1.00104,-0.244141,-0.610352,16.6626,-0.023,-0.021,-101.82,0.0149994,0.102188,0,0,0,0,0,41.72,123.759,1743858
0.00537109,-0.0369263,1.03149,-0.427246,-0.976562,12.085,0.001,-0.003,-102.24,0.0149078,0.101959,0,0,0,0,0,41.72,123.78,1743887
-0.00817871,-0.00415039,0.995483,-0.366211,-0.366211,10.5591,-0.026,-0.022,-102.41,0.0148926,0.101944,0,0,0,0,0,41.72,123.799,1743902
-0.00238037,-0.0337524,1.0249,0.488281,-0.0610352,8.72803,0,-0.011,-102.7,0.0147858,0.101898,0,0,0,0,0,41.72,123.819,1743932
-0.00610352,-0.0458984,1.0061,-0.183105,-0.244141,8.11768,0.013,-0.011,-102.82,0.0147858,0.101898,0,0,0,0,0,41.72,123.838,1743947
0.00952148,-0.0199585,1.0058,0,0,8.42285,-0.014,-0.002,-102.95,0.0147858,0.101898,0,0,0,0,0,41.72,123.858,1743962
-0.0157471,-0.0487061,1.01257,0,-0.0610352,10.6812,0.018,-0.019,-103.24,0.0147858,0.101898,0,0,0,0,0,41.72,123.878,1743992
-0.00976562,-0.0255127,1.00842,-0.183105,-0.12207,10.7422,-0.005,-0.019,-103.39,0.0147858,0.101898,0,0,0,0,0,41.72,123.9,1744007
-0.00897217,-0.0300903,1.01483,0,-0.549316,11.3525,-0.001,-0.017,-103.56,0.0147858,0.101898,0,0,0,0,0,41.72,123.922,1744022
-0.0118408,-0.0272217,1.00653,-0.183105,-0.793457,11.7798,-0.003,-0.02,-103.74,0.0147858,0.101883,0,0,0,0,0,41.72,123.938,1744052
-0.00280762,-0.0240479,1.01587,-0.12207,-0.793457,12.0239,-0.008,-0.012,-104.09,0.0147858,0.101776,0,0,0,0,0,41.72,123.959,1744067
0.0010376,-0.0252686,1.01178,-0.488281,-0.671387,11.2305,-0.008,-0.008,-104.26,0.0147858,0.101776,0,0,0,0,0,41.72,123.978,1744082
0.0141602,-0.03125,1.01447,-0.305176,-0.427246,10.6201,-0.005,0.005,-104.58,0.0147858,0.101776,0,0,0,0,0,41.72,123.998,1744112
0.00756836,-0.0272217,1.01288,-0.244141,-0.0610352,10.0708,-0.007,-0.001,-104.74,0.0147858,0.101776,0,0,0,0,0,41.74,124.019,1744127
0.00488281,-0.0341187,1.01471,0,0.0610352,9.70459,0,-0.002,-104.89,0.0147858,0.101776,0,0,0,0,0,41.74,124.038,1744142
-0.00500488,-0.0327759,1.00665,0.183105,0.244141,9.15527,0.001,-0.011,-105.17,0.0147858,0.101776,0,0,0,0,0,41.74,124.058,1744172
-0.000854492,-0.0219727,1.01434,0.427246,0.305176,8.8501,-0.01,-0.01,-105.31,0.0147858,0.101776,0,0,0,0,0,41.74,124.078,1744187
-0.0153809,-0.0372314,1.00769,0.366211,0,9.21631,0.008,-0.019,-105.43,0.0147858,0.101776,0,0,0,0,0,41.74,124.101,1744202
-0.0150757,-0.0280762,1.01282,0.244141,-0.183105,9.58252,0,-0.021,-105.58,0.0147858,0.101746,0,0,0,0,0,41.74,124.118,1744218
-0.0100098,-0.038208,1.01477,0.0610352,-0.610352,10.5591,0.007,-0.013,-105.87,0.0147858,0.101624,0,0,0,0,0,41.74,124.138,1744248
-0.00219727,-0.0286865,1.01965,-0.244141,-0.671387,10.6812,-0.003,-0.008,-106.04,0.0147858,0.101624,0,0,0,0,0,41.74,124.16,1744263
0.00354004,-0.0354004,1.01477,0.0610352,-0.854492,11.4136,0.001,-0.001,-106.37,0.0147858,0.101624,0,0,0,0,0,41.74,124.181,1744293
0.00585938,-0.0256348,1.0094,-0.305176,-0.488281,11.1694,-0.008,-0.001,-106.54,0.0147858,0.101624,0,0,0,0,0,41.74,124.199,1744308
0.00244141,-0.0317383,1.01178,-0.244141,-0.488281,11.1084,-0.001,-0.003,-106.71,0.0147858,0.101624,0,0,0,0,0,41.74,124.221,1744323
0.00164795,-0.034729,1.01221,-0.366211,-0.305176,11.0474,0.001,-0.003,-107.03,0.0147858,0.101624,0,0,0,0,0,41.74,124.239,1744353
0.00115967,-0.0274658,1.01007,-0.488281,-0.183105,11.1084,-0.005,-0.005,-107.2,0.0147858,0.101624,0,0,0,0,0,41.74,124.258,1744368
-0.00390625,-0.0275269,1.01025,-0.183105,-0.183105,10.9253,-0.003,-0.01,-107.36,0.0147858,0.101624,0,0,0,0,0,41.74,124.28,1744383
-0.0114746,-0.0324097,1.01343,-0.0610352,-0.12207,7.8125,0.003,-0.015,-107.64,0.0147858,0.101624,0,0,0,0,0,41.74,124.298,1744413
-0.012207,-0.0292969,1.01135,-0.0610352,-0.366211,6.95801,0,-0.017,-107.76,0.0147858,0.101624,0,0,0,0,0,41.74,124.318,1744428
-0.00268555,-0.0200806,1.01331,0.12207,-0.305176,5.5542,-0.011,-0.01,-107.85,0.0147858,0.101624,0,0,0,0,0,41.74,124.338,1744443
-0.00823975,-0.0288696,1.00629,-0.183105,-0.549316,0.915527,0,-0.013,-107.92,0.0147858,0.101624,0,0,0,0,0,41.74,124.36,1744473
-0.000244141,-0.026062,1.01727,-0.0610352,-0.427246,-1.2207,-0.006,-0.006,-107.92,0.0147858,0.101624,0,0,0,0,0,41.74,124.379,1744488
-0.0105591,-0.0474854,1.00378,-0.244141,0,-2.19727,0.017,-0.009,-107.88,0.0147858,0.101624,0,0,0,0,0,41.74,124.398,1744503
-0.00909424,-0.0410767,1.01062,0.183105,0,-0.305176,0.01,-0.01,-107.85,0.0147858,0.101624,0,0,0,0,0,41.74,124.42,1744533
0.0108643,-0.0285645,1.01489,0.366211,-0.244141,0.549316,-0.007,0.004,-107.85,0.0147858,0.101624,0,0,0,0,0,41.74,124.438,1744548
0.00164795,-0.0270386,1.01538,0.488281,0.12207,0.610352,-0.005,-0.004,-107.86,0.0147858,0.101624,0,0,0,0,0,41.74,124.459,1744563
-0.00140381,-0.0209351,1.01569,0.244141,0,0.366211,-0.01,-0.009,-107.87,0.0147858,0.101624,0,0,0,0,0,41.74,124.479,1744578
-0.00421143,-0.022522,1.00787,0,0.183105,-0.366211,-0.007,-0.01,-107.86,0.0147858,0.101624,0,0,0,0,0,41.74,124.501,1744608
-0.00268555,-0.0230103,1.013,0,0,-0.0610352,-0.007,-0.009,-107.85,0.0147858,0.101624,0,0,0,0,0,41.74,124.519,1744623
-0.0045166,-0.0297852,1.01288,-0.366211,-0.183105,0.549316,0,-0.008,-107.86,0.0147858,0.101624,0,0,0,0,0,41.75,124.538,1744653
-0.010498,-0.0273438,1.01208,-0.305176,-0.12207,0.183105,-0.001,-0.014,-107.87,0.0147858,0.101624,0,0,0,0,0,41.75,124.559,1744668
-0.00274658,-0.029541,1.01251,-0.183105,-0.305176,-0.183105,-0.001,-0.006,-107.87,0.0147858,0.101624,0,0,0,0,0,41.75,124.579,1744683
-0.00213623,-0.0377197,1.01459,-0.12207,-0.305176,-0.488281,0.005,-0.003,-107.85,0.0147858,0.101624,0,0,0,0,0,41.75,124.599,1744713
0.00366211,-0.0369263,1.01404,-0.12207,-0.183105,-0.12207,0.003,0.001,-107.85,0.0147858,0.101624,0,0,0,0,0,41.75,124.62,1744728
0.00170898,-0.0355835,1.00598,0.12207,-0.0610352,0.12207,0.002,0,-107.85,0.0147858,0.101624,0,0,0,0,0,41.75,124.639,1744743
0.000305176,-0.0307007,1.01453,0.305176,-0.0610352,0.12207,-0.001,-0.003,-107.85,0.0147858,0.101624,0,0,0,0,0,41.75,124.659,1744758
-0.00146484,-0.0309448,1.01154,0.305176,0.244141,-0.0610352,0,-0.004,-107.85,0.0147858,0.101624,0,0,0,0,0,41.75,124.679,1744788
-0.00482178,-0.0397339,1.0108,-0.0610352,0.0610352,-0.0610352,0.008,-0.005,-107.85,0.0147858,0.101624,0,0,0,0,0,41.75,124.701,1744803
-0.0113525,-0.0512695,1.00989,-0.732422,0.244141,-0.12207,0.021,-0.007,-107.85,0.014801,0.101624,0,0,0,0,0,41.75,124.719,1744818
-0.0123291,-0.0233765,1.00983,0.427246,-0.244141,-0.12207,-0.004,-0.017,-107.85,0.0148621,0.101624,0,0,0,0,0,41.75,124.739,1744848
-0.00292969,-0.120422,1.0257,-0.488281,-0.12207,-0.0610352,0.083,0.021,-107.85,0.0149384,0.101624,0,0,0,0,0,41.75,124.759,1744863
-0.0130005,-0.0321655,1.00366,-1.95312,-0.12207,0,0.002,-0.015,-107.85,0.0150757,0.101639,0,0,0,0,0,41.75,124.779,1744878
0.00183105,-0.06427,1.01862,0.427246,-0.0610352,-0.366211,0.027,0.008,-107.84,0.0153656,0.101624,0,0,0,0,0,41.75,124.799,1744908
-0.00878906,-0.165894,1.01611,-1.34277,-0.12207,-0.610352,0.126,0.029,-107.84,0.015625,0.101654,0,0,0,0,0,41.75,124.818,1744923
0.003479,-0.0495605,0.989746,-2.13623,-0.0610352,-0.488281,0.011,0.005,-107.83,0.015976,0.1017,0,0,0,0,0,41.75,124.838,1744938
-0.00219727,-0.0681152,1.00946,2.0752,0.366211,-0.305176,0.03,0.005,-107.82,0.0159912,0.101746,0,0,0,0,0,41.75,124.858,1744968
-0.0126953,-0.118835,1.01392,0.366211,0.366211,-1.2207,0.081,0.01,-107.81,0.0160675,0.101746,0,0,0,0,0,41.75,124.878,1744983
0.0043335,-0.0309448,0.996765,-0.610352,0.183105,-1.46484,-0.007,0,-107.79,0.0162048,0.101746,0,0,0,0,0,41.75,124.898,1744998
-0.0185547,-0.0673218,1.0069,1.09863,0.0610352,-1.28174,0.034,-0.01,-107.75,0.0165405,0.101746,0,0,0,0,0,41.75,124.918,1745028
-0.00854492,-0.0466309,1.01001,1.64795,-0.244141,-0.183105,0.011,-0.007,-107.74,0.0167542,0.101746,0,0,0,0,0,41.75,124.938,1745043
-0.00933838,-0.0303345,1.00232,0.732422,-0.12207,-1.09863,-0.002,-0.012,-107.71,0.0171509,0.101746,0,0,0,0,0,41.75,124.958,1745073
0.000610352,-0.0516968,1.03876,0.366211,-0.244141,-0.610352,0.013,0.003,-107.71,0.0173492,0.101746,0,0,0,0,0,41.75,124.979,1745088
-0.0090332,-0.115234,1.03674,-3.96728,0.305176,-0.427246,0.076,0.013,-107.69,0.0176086,0.101746,0,0,0,0,0,41.75,124.999,1745103
-0.0131836,0.00506592,0.978516,-4.08936,0,-0.854492,-0.036,-0.027,-107.69,0.0178986,0.101746,0,0,0,0,0,41.75,125.018,1745119
-0.0195312,-0.0570679,1.01294,1.83105,-0.183105,-1.15967,0.023,-0.014,-107.65,0.0185089,0.1017,0,0,0,0,0,41.74,125.038,1745148
-0.019104,-0.112549,0.999573,1.70898,-0.366211,-0.976562,0.076,0.002,-107.64,0.0189209,0.1017,0,0,0,0,0,41.74,125.058,1745163
-0.00970459,-0.0916748,1.03821,0.915527,-0.427246,-0.793457,0.052,0.004,-107.63,0.0193939,0.1017,0,0,0,0,0,41.74,125.079,1745179
-0.019104,-0.0744019,1.01465,0.12207,0.0610352,-0.549316,0.039,-0.009,-107.63,0.0204773,0.1017,0,0,0,0,0,41.74,125.099,1745208
-0.00952148,-0.122131,1.01215,-0.183105,-0.12207,-1.2207,0.081,0.014,-107.61,0.0211182,0.1017,0,0,0,0,0,41.74,125.118,1745223
-0.0216064,-0.0328369,0.994263,-2.13623,0.12207,-1.58691,0,-0.024,-107.57,0.0227203,0.101761,0,0,0,0,0,41.74,125.144,1745253
-0.00415039,-0.0427856,0.992859,-0.0610352,-0.12207,-0.366211,0.003,-0.004,-107.55,0.0235443,0.101776,0,0,0,0,0,41.74,125.158,1745268
-0.00787354,-0.0400391,1.02454,2.2583,0.0610352,0.12207,0.001,-0.009,-107.56,0.0235443,0.101776,0,0,0,0,0,41.74,125.178,1745283
0.0202637,-0.0532837,0.993591,-0.366211,-0.610352,-1.83105,0.006,0.021,-107.52,0.0237274,0.101776,0,0,0,0,0,41.74,125.198,1745313
-0.00964355,-0.00775146,1.02155,0.488281,0.366211,-1.70898,-0.029,-0.021,-107.5,0.0238342,0.101776,0,0,0,0,0,41.74,125.218,1745328
0.020752,-0.0183716,0.974182,-0.366211,0.12207,-1.64795,-0.026,0.012,-107.48,0.0238953,0.101776,0,0,0,0,0,41.74,125.239,1745343
-0.0272217,-0.0569458,1.03864,1.34277,-0.12207,-1.83105,0.023,-0.023,-107.44,0.0239105,0.101761,0,0,0,0,0,41.74,125.258,1745373
0.0202026,-0.0302124,1.04358,1.64795,-0.366211,-1.89209,-0.016,0.014,-107.41,0.0239105,0.10173,0,0,0,0,0,41.74,125.278,1745388
0.0338745,0.0145874,0.937683,-0.183105,0.0610352,-2.74658,-0.058,0.015,-107.37,0.0238647,0.10173,0,0,0,0,0,41.74,125.298,1745403
-0.0240479,-0.00744629,1.0097,-0.183105,0.732422,-3.66211,-0.022,-0.034,-107.32,0.0237579,0.1017,0,0,0,0,0,41.74,125.32,1745419
0.0205078,-0.0500488,1.00006,-0.488281,0.610352,-2.99072,0.005,0.021,-107.24,0.0234375,0.101578,0,0,0,0,0,41.74,125.342,1745448
0.00256348,-0.0388794,0.99353,-0.610352,0.488281,-2.19727,0,0.001,-107.21,0.0232697,0.101517,0,0,0,0,0,41.74,125.359,1745463
-0.0177002,-0.0541992,1.00977,-0.0610352,-0.488281,-0.732422,0.019,-0.013,-107.19,0.0232697,0.101456,0,0,0,0,0,41.74,125.379,1745479
-0.0310059,-0.0548706,1.01691,1.58691,0.427246,0.12207,0.024,-0.026,-107.19,0.0231934,0.10144,0,0,0,0,0,41.74,125.399,1745508
0.0179443,0.0305176,1.00586,0.793457,0.12207,-0.549316,-0.07,-0.003,-107.18,0.0231018,0.101395,0,0,0,0,0,41.74,125.419,1745523
0.0270996,0.00982666,0.98645,0.244141,-0.0610352,-2.74658,-0.052,0.011,-107.15,0.022934,0.101364,0,0,0,0,0,41.74,125.438,1745539
-0.0462646,-0.0566406,1.0401,0.366211,0.976562,-2.99072,0.031,-0.04,-107.06,0.0224915,0.101196,0,0,0,0,0,41.74,125.458,1745568
0.0479736,-0.0680542,1.03583,0,-0.305176,-2.13623,0.014,0.053,-107.02,0.0223083,0.101105,0,0,0,0,0,41.74,125.484,1745584
-0.0245361,-0.0319214,0.991699,-0.0610352,0.488281,-1.52588,0.002,-0.025,-106.99,0.0223083,0.101013,0,0,0,0,0,41.74,125.498,1745599
-0.00610352,-0.0823364,1.06042,1.0376,0.549316,-0.488281,0.043,0.006,-106.97,0.0223541,0.100708,0,0,0,0,0,41.74,125.518,1745629
-0.0106201,-0.0392456,0.990967,0.488281,0.12207,-0.915527,0.006,-0.009,-106.96,0.0224304,0.100525,0,0,0,0,0,41.74,125.539,1745644
-0.00848389,-0.00561523,1.03021,1.28174,-0.732422,-0.732422,-0.027,-0.016,-106.94,0.0225067,0.100052,0,0,0,0,0,41.75,125.559,1745674
0.000976562,-0.10199,1.04016,0.732422,-0.610352,-1.58691,0.062,0.02,-106.93,0.0225372,0.0998077,0,0,0,0,0,41.75,125.578,1745689
0.00360107,-0.0756226,1.03845,-0.976562,-0.671387,-1.15967,0.035,0.014,-106.91,0.022644,0.0995789,0,0,0,0,0,41.75,125.598,1745704
6.10352e-05,-0.0576782,1.02161,-1.09863,-0.488281,-2.0752,0.02,0.006,-106.88,0.0227966,0.0993805,0,0,0,0,0,41.75,125.619,1745719
0.012085,-0.0551758,1.05176,1.15967,-0.305176,-0.915527,0.014,0.016,-106.85,0.0231934,0.0990295,0,0,0,0,0,41.75,125.642,1745749
-0.0218506,-0.0661011,1.01556,0,1.28174,-1.28174,0.035,-0.012,-106.84,0.0234375,0.0988922,0,0,0,0,0,41.75,125.659,1745764
-0.0509033,-0.0197144,0.986511,-0.610352,1.40381,-1.28174,0,-0.053,-106.78,0.02388,0.0986023,0,0,0,0,0,41.75,125.678,1745794
0.0145264,-0.0650635,1.04266,0.488281,0.610352,-1.52588,0.023,0.022,-106.76,0.0241089,0.0984344,0,0,0,0,0,41.75,125.699,1745809
-0.0168457,0.0180054,0.926819,-1.2207,0.732422,-0.732422,-0.043,-0.03,-106.75,0.0243073,0.0982666,0,0,0,0,0,41.75,125.719,1745824
-0.0737915,0.0514526,0.968811,-0.305176,1.2207,-0.366211,-0.06,-0.094,-106.73,0.0244598,0.0978394,0,0,0,0,0,41.75,125.738,1745854
0.0180664,0.0408936,0.926758,1.64795,-0.854492,-0.610352,-0.074,-0.002,-106.72,0.0243988,0.0975189,0,0,0,0,0,41.75,125.758,1745869
-0.0012207,0.0438232,0.972046,1.46484,-0.488281,-0.366211,-0.073,-0.022,-106.72,0.0242462,0.0971985,0,0,0,0,0,41.75,125.784,1745884
-0.00878906,-0.0797119,1.07068,1.09863,-0.671387,-1.70898,0.044,0.004,-106.71,0.0240631,0.0968475,0,0,0,0,0,41.75,125.799,1745899
0.0437622,-0.0463257,1.01306,1.28174,-0.854492,-2.50244,0,0.045,-106.63,0.0238953,0.0962372,0,0,0,0,0,41.75,125.819,1745929
-0.0327759,0.00592041,0.988342,-0.915527,1.09863,-2.62451,-0.026,-0.042,-106.6,0.0238037,0.0959625,0,0,0,0,0,41.75,125.84,1745944
0.0205078,0.0554199,0.993835,-1.28174,1.15967,-1.70898,-0.09,-0.005,-106.56,0.0236511,0.0956573,0,0,0,0,0,41.75,125.859,1745959
0.0117798,-0.128662,1.04822,0.671387,1.2207,-1.0376,0.087,0.038,-106.52,0.0230408,0.0956726,0,0,0,0,0,41.75,125.879,1745989
-0.0480347,-0.134277,1.07721,0.183105,1.34277,0,0.109,-0.016,-106.52,0.0228729,0.0957031,0,0,0,0,0,41.75,125.899,1746004
0.00836182,-0.0576172,0.992432,0.610352,0.12207,-0.0610352,0.022,0.016,-106.5,0.0227814,0.0957489,0,0,0,0,0,41.75,125.919,1746019
-0.0383301,-0.0151978,1.0246,0.915527,-0.12207,-0.671387,-0.005,-0.04,-106.5,0.0227203,0.0957184,0,0,0,0,0,41.75,125.945,1746049
-0.0256958,-0.0635986,1.03143,-0.610352,-0.610352,-1.15967,0.037,-0.014,-106.48,0.0227356,0.0956268,0,0,0,0,0,41.75,125.959,1746064
0.0281372,0.0762329,0.933228,0.0610352,-1.28174,-1.64795,-0.109,-0.001,-106.45,0.0226593,0.0956268,0,0,0,0,0,41.75,125.979,1746094
-0.0202026,0.0532227,1.00122,1.2207,0.12207,-1.46484,-0.075,-0.042,-106.42,0.0224304,0.0955963,0,0,0,0,0,41.75,125.998,1746109
0.0422974,0.015625,0.99707,1.15967,-0.183105,-1.64795,-0.056,0.028,-106.4,0.0221252,0.0955505,0,0,0,0,0,41.75,126.018,1746124
0.0126953,-0.0228882,0.978577,0.549316,1.52588,-2.44141,-0.01,0.01,-106.34,0.0213623,0.0955658,0,0,0,0,0,41.75,126.041,1746154
0.0302124,-0.0725708,1.07513,2.74658,0.549316,-1.58691,0.03,0.041,-106.31,0.0209961,0.0956268,0,0,0,0,0,41.74,126.058,1746169
-0.0338135,-0.10022,1.06696,0.366211,1.2207,-1.58691,0.075,-0.012,-106.28,0.0206909,0.0956879,0,0,0,0,0,41.74,126.078,1746184
0.00390625,0.0492554,0.946289,0.671387,0.549316,-1.09863,-0.075,-0.016,-106.26,0.0203857,0.0957489,0,0,0,0,0,41.74,126.098,1746199
0.0544434,-0.0111694,1.01703,-0.0610352,-0.305176,-1.09863,-0.032,0.049,-106.24,0.019577,0.0956421,0,0,0,0,0,41.74,126.118,1746229
-0.0602417,-0.0355835,1.02307,-0.671387,0.488281,-0.366211,0.023,-0.053,-106.22,0.0191345,0.0955658,0,0,0,0,0,41.74,126.139,1746244
-0.0443115,-0.027832,1.01196,0.610352,-0.610352,-1.15967,0.011,-0.04,-106.2,0.0187225,0.0952911,0,0,0,0,0,41.74,126.161,1746274
0.00408936,-0.0549316,1.04468,1.2207,-1.89209,-1.15967,0.023,0.013,-106.19,0.0187378,0.095108,0,0,0,0,0,41.74,126.178,1746289
-0.00921631,-0.0693359,1.01788,0.488281,-1.34277,-1.46484,0.042,0.004,-106.16,0.0188141,0.0949402,0,0,0,0,0,41.74,126.198,1746304
-0.00457764,-0.0244751,1.01135,0.488281,0.183105,-0.854492,-0.001,-0.004,-106.15,0.0189056,0.0949402,0,0,0,0,0,41.74,126.218,1746319
0.0369873,-0.0267944,1.00494,0.976562,-0.12207,-1.0376,-0.009,0.036,-106.12,0.0190125,0.0949554,0,0,0,0,0,41.74,126.238,1746349
0.017334,0.0279541,1.01678,0,0.12207,-1.28174,-0.057,0.001,-106.09,0.0189972,0.0950165,0,0,0,0,0,41.74,126.258,1746364
0.00939941,0.0858765,0.974121,0.549316,0.915527,-1.58691,-0.109,-0.021,-106.07,0.0188751,0.0950623,0,0,0,0,0,41.74,126.278,1746379
0.00286865,0.00378418,0.988953,0.183105,0,-1.40381,-0.028,-0.004,-106.03,0.0183716,0.0950775,0,0,0,0,0,41.74,126.298,1746409
-0.0123901,0.0212402,0.95105,-0.183105,0.244141,-1.52588,-0.04,-0.023,-106,0.0180511,0.0950623,0,0,0,0,0,41.74,126.318,1746424
0.0161743,-0.00561523,0.962341,-1.28174,-0.183105,-1.15967,-0.023,0.011,-105.99,0.0176849,0.0950317,0,0,0,0,0,41.74,126.338,1746440
-0.0112305,0.0553589,0.974548,1.52588,-0.732422,-1.28174,-0.074,-0.031,-105.96,0.016861,0.094986,0,0,0,0,0,41.74,126.358,1746469
0.0317383,0.0608521,0.882141,1.15967,-1.77002,-1.46484,-0.088,0.008,-105.93,0.0163116,0.0949402,0,0,0,0,0,41.74,126.379,1746484
0.0218506,0.0199585,0.950928,0.488281,-0.244141,-1.28174,-0.048,0.01,-105.92,0.0156708,0.0949097,0,0,0,0,0,41.74,126.398,1746500
0.0192871,-0.0410156,1.02332,0.488281,-0.732422,-2.68555,0.01,0.023,-105.87,0.014328,0.0949249,0,0,0,0,0,41.74,126.418,1746529
-0.0518188,-0.0775757,1.00885,-0.915527,0.0610352,-2.56348,0.065,-0.034,-105.83,0.0137177,0.0949402,0,0,0,0,0,41.74,126.439,1746544
0.0362549,0.0206299,0.97644,-0.793457,0,-2.74658,-0.052,0.023,-105.79,0.0131073,0.0949402,0,0,0,0,0,41.74,126.46,1746560
-0.0201416,0.0603027,0.963806,0,0.610352,-1.70898,-0.075,-0.041,-105.67,0.0109711,0.0949402,0,0,0,0,0,41.74,126.493,1746604
-0.0201416,0.0603027,0.963806,0,0.610352,-1.70898,-0.075,-0.041,-105.67,0.0109711,0.0949402,0,0,0,0,0,41.74,126.502,1746604
0.0109253,-0.0248413,1.00952,-0.488281,0.366211,-1.70898,-0.002,0.011,-105.61,0.00915527,0.0948639,0,0,0,0,0,41.74,126.522,1746634
-0.0144043,-0.0701294,1.01355,-0.976562,-0.427246,-0.671387,0.047,0,-105.61,0.008255,0.0948639,0,0,0,0,0,41.74,126.54,1746649
-0.0403442,-0.0576172,1.01727,0.305176,0.366211,-1.28174,0.042,-0.029,-105.59,0.00740051,0.0948334,0,0,0,0,0,41.74,126.56,1746664
0.0055542,-0.0397949,1.02649,0.427246,-0.0610352,-1.40381,0.012,0.01,-105.57,0.0065918,0.0948029,0,0,0,0,0,41.77,126.579,1746680
-0.00305176,0.0045166,0.98407,0.0610352,-0.366211,-2.31934,-0.026,-0.009,-105.52,0.00657654,0.0947723,0,0,0,0,0,41.77,126.601,1746709
0.00128174,0.00415039,0.981445,-0.549316,-0.244141,-1.70898,-0.026,-0.005,-105.5,0.0065155,0.0947723,0,0,0,0,0,41.77,126.62,1746724
0.0255127,0.111755,1.02173,0,0.244141,-2.2583,-0.137,-0.011,-105.46,0.0063324,0.0947723,0,0,0,0,0,41.77,126.639,1746740
0.0100708,-0.015686,1.00378,-1.34277,-0.671387,-2.19727,-0.01,0.007,-105.39,0.00578308,0.0947113,0,0,0,0,0,41.77,126.66,1746769
-0.0283813,-0.0321655,1.00793,-0.854492,0.976562,-2.50244,0.015,-0.024,-105.36,0.00578308,0.0946655,0,0,0,0,0,41.77,126.678,1746784
0.00823975,-0.041687,1.00476,0.12207,0.549316,-2.01416,0.015,0.013,-105.32,0.00578308,0.0946045,0,0,0,0,0,41.77,126.699,1746800
-0.055481,-0.0297241,1.02246,1.09863,0,-2.31934,0.02,-0.051,-105.27,0.0058136,0.0944824,0,0,0,0,0,41.77,126.718,1746829
0.0905762,-0.0374146,1.00287,-0.427246,-0.0610352,-1.70898,-0.01,0.091,-105.25,0.00584412,0.0944214,0,0,0,0,0,41.77,126.74,1746844
0.0344849,-0.0291138,1.03528,0,0.732422,-1.95312,-0.004,0.035,-105.22,0.00585938,0.0944519,0,0,0,0,0,41.77,126.759,1746860
-0.00842285,-0.0738525,1.04028,0.732422,0.732422,-1.77002,0.05,0.005,-105.17,0.00621033,0.0945435,0,0,0,0,0,41.77,126.779,1746889
-0.00366211,0.00476074,1.02277,0.732422,0.244141,-1.09863,-0.026,-0.009,-105.15,0.00646973,0.0945435,0,0,0,0,0,41.77,126.798,1746904
0.000854492,0.0447998,0.934326,-0.671387,-0.610352,-1.0376,-0.064,-0.015,-105.11,0.00692749,0.0945435,0,0,0,0,0,41.77,126.822,1746935
-0.0255737,0.071106,1.00568,1.2207,-0.183105,-0.732422,-0.084,-0.048,-105.09,0.00701904,0.0944977,0,0,0,0,0,41.77,126.84,1746950
-0.0258789,0.0200806,1.03015,0.976562,1.34277,-0.732422,-0.035,-0.035,-105.08,0.00704956,0.0944061,0,0,0,0,0,41.77,126.859,1746965
0.0234375,-0.0281372,1.00568,0.183105,1.15967,-1.83105,0,0.025,-105.07,0.00704956,0.0942993,0,0,0,0,0,41.77,126.879,1746980
0.0297241,-0.0158081,1.02594,-0.427246,0.549316,-2.50244,-0.014,0.028,-104.99,0.00698853,0.0940399,0,0,0,0,0,41.77,126.899,1747010
-0.0127563,-0.0106201,1.0166,-1.28174,1.40381,-2.62451,-0.008,-0.013,-104.95,0.00692749,0.0939331,0,0,0,0,0,41.77,126.922,1747025
-0.0269165,-0.0126343,0.994202,-1.40381,0.854492,-1.58691,-0.003,-0.027,-104.93,0.00692749,0.0937805,0,0,0,0,0,41.77,126.939,1747040
0.00158691,-0.0720215,0.952576,-1.0376,0.732422,-0.488281,0.048,0.016,-104.91,0.00671387,0.093277,0,0,0,0,0,41.77,126.96,1747070
0.0222168,0.127563,1.01318,0.671387,-1.28174,-0.732422,-0.151,-0.014,-104.91,0.0065155,0.093277,0,0,0,0,0,41.77,126.98,1747085
-0.0128784,0.185242,0.914673,0.366211,-2.2583,-0.671387,-0.196,-0.063,-104.91,0.006073,0.0932159,0,0,0,0,0,41.77,126.999,1747100
0.0219116,0.00854492,0.982178,-0.976562,-0.488281,-1.52588,-0.035,0.015,-104.85,0.00476074,0.0930481,0,0,0,0,0,41.77,127.019,1747130
0.0239258,-0.0206909,1.01031,-0.976562,-0.671387,-1.95312,-0.008,0.024,-104.84,0.00402832,0.0930023,0,0,0,0,0,41.77,127.039,1747145
0.0471191,-0.104492,1.00525,1.46484,-0.549316,-0.549316,0.066,0.068,-104.79,0.00408936,0.0929565,0,0,0,0,0,41.77,127.059,1747175
-0.0430908,-0.0214844,1.05945,1.40381,2.2583,-1.2207,0.008,-0.04,-104.77,0.00419617,0.0929718,0,0,0,0,0,41.74,127.078,1747190
0.0742188,-0.0422974,1.0658,0.854492,-0.427246,-0.976562,0,0.079,-104.76,0.00430298,0.0930023,0,0,0,0,0,41.74,127.099,1747205
0.0148926,-0.0927124,0.99231,-0.488281,0.0610352,-1.15967,0.064,0.034,-104.74,0.00447083,0.0931244,0,0,0,0,0,41.74,127.119,1747220
0.00646973,0.0228882,1.05945,-0.549316,-0.183105,-1.34277,-0.046,-0.002,-104.7,0.00486755,0.093277,0,0,0,0,0,41.74,127.138,1747250
-0.0022583,0.0380859,0.95636,-0.671387,0.488281,-0.976562,-0.057,-0.014,-104.68,0.00500488,0.093277,0,0,0,0,0,41.74,127.158,1747265
-0.0287476,0.0419922,0.932251,-1.28174,1.15967,-1.46484,-0.054,-0.04,-104.66,0.00505066,0.0932312,0,0,0,0,0,41.74,127.178,1747280
-0.0325317,-0.046875,1.052,1.09863,0.305176,-1.15967,0.031,-0.021,-104.64,0.00497437,0.0931244,0,0,0,0,0,41.74,127.199,1747310
0.0130005,-0.00311279,0.977051,0.244141,-0.610352,-1.09863,-0.02,0.011,-104.62,0.00492859,0.0930481,0,0,0,0,0,41.74,127.218,1747325
-0.00836182,-0.0409546,0.992126,-0.183105,0.12207,-1.58691,0.02,0,-104.6,0.00488281,0.0929871,0,0,0,0,0,41.74,127.238,1747340
0.000915527,-0.00878906,1.00653,-0.732422,0.244141,-1.95312,-0.012,0,-104.54,0.00454712,0.092804,0,0,0,0,0,41.74,127.259,1747370
0.0108643,-0.0501709,0.963379,-1.28174,0.610352,-1.15967,0.025,0.02,-104.52,0.00434875,0.0927124,0,0,0,0,0,41.74,127.279,1747385
-0.0136719,-0.0159302,0.98761,0.732422,0.183105,-0.610352,-0.002,-0.011,-104.51,0.00416565,0.0926208,0,0,0,0,0,41.74,127.301,1747400
-0.0171509,-0.0799561,1.05219,0.305176,0.12207,-0.366211,0.06,0.001,-104.51,0.00386047,0.0925293,0,0,0,0,0,41.74,127.318,1747430
-0.0580444,-0.0915527,1.03003,0.793457,0.0610352,-0.244141,0.082,-0.035,-104.5,0.00382996,0.092514,0,0,0,0,0,41.74,127.338,1747445
0.0344849,-0.0705566,1.03308,-0.12207,-0.732422,-0.671387,0.038,0.049,-104.5,0.00389099,0.0924988,0,0,0,0,0,41.74,127.359,1747460
-0.043335,-0.0474854,1.04785,0.610352,1.28174,-0.732422,0.034,-0.031,-104.46,0.00398254,0.0924377,0,0,0,0,0,41.74,127.378,1747490
-0.00653076,-0.0158691,0.9505,0.0610352,1.09863,-1.58691,-0.002,-0.004,-104.45,0.00404358,0.0923767,0,0,0,0,0,41.74,127.399,1747505
-0.0139771,0.0169678,1.04236,2.62451,0.12207,-2.0752,-0.034,-0.019,-104.42,0.00408936,0.0923767,0,0,0,0,0,41.74,127.419,1747520
0.0584106,0.0293579,0.941223,0,-1.40381,-1.46484,-0.061,0.047,-104.37,0.00419617,0.092453,0,0,0,0,0,41.74,127.438,1747550
-0.0632935,0.0496216,0.958984,0.0610352,0.976562,-1.58691,-0.051,-0.075,-104.34,0.00416565,0.092514,0,0,0,0,0,41.74,127.46,1747565
-0.0358276,-0.0403442,1.06287,-0.549316,1.89209,-1.64795,0.027,-0.026,-104.32,0.00413513,0.0924988,0,0,0,0,0,41.74,127.478,1747580
0.0410767,-0.0222778,0.956665,-1.58691,-0.427246,-1.77002,-0.007,0.044,-104.27,0.00405884,0.0924072,0,0,0,0,0,41.74,127.498,1747610
-0.045166,0.0384521,0.941467,-0.244141,1.09863,-1.0376,-0.044,-0.054,-104.25,0.0039978,0.0923615,0,0,0,0,0,41.74,127.518,1747625
0.0187378,0.0628052,1.02081,-0.0610352,-1.77002,-0.366211,-0.085,0.001,-104.25,0.00382996,0.0922852,0,0,0,0,0,41.74,127.538,1747640
0.010498,0.0653076,0.918457,-0.0610352,-1.09863,-0.793457,-0.083,-0.006,-104.22,0.00337219,0.0922089,0,0,0,0,0,41.74,127.561,1747670
-0.00897217,0.0383911,1.02069,0.549316,-0.549316,-0.915527,-0.054,-0.019,-104.21,0.00302124,0.0922089,0,0,0,0,0,41.74,127.58,1747685
0.00805664,-0.117004,1.09979,-1.89209,-0.305176,-0.671387,0.09,0.035,-104.2,0.00268555,0.0922089,0,0,0,0,0,41.72,127.599,1747700
0.0619507,-0.0193481,0.956726,-0.488281,-1.40381,-0.732422,-0.015,0.063,-104.19,0.00205994,0.0923767,0,0,0,0,0,41.72,127.618,1747730
-0.0120239,-0.0140381,1.08197,1.0376,0.183105,-0.610352,-0.004,-0.01,-104.18,0.00205994,0.0925293,0,0,0,0,0,41.72,127.638,1747745
-0.00262451,-0.0749512,1.0246,-0.488281,-0.305176,-1.40381,0.053,0.013,-104.17,0.00209045,0.0926819,0,0,0,0,0,41.72,127.66,1747761
-0.0368042,0.0681763,0.956543,0.610352,0.854492,-1.89209,-0.075,-0.054,-104.11,0.00212097,0.0926514,0,0,0,0,0,41.72,127.678,1747790
-0.000427246,-0.0795288,1.00616,-0.0610352,0.12207,-1.83105,0.058,0.017,-104.05,0.0020752,0.0925446,0,0,0,0,0,41.72,127.708,1747821
-0.000427246,-0.0795288,1.00616,-0.0610352,0.12207,-1.83105,0.058,0.017,-104.05,0.0020752,0.0925446,0,0,0,0,0,41.72,127.719,1747821
