raw_accel_x,raw_accel_y,raw_accel_z,raw_gyro_x,raw_gyro_y,raw_gyro_z,world_accel_x,world_accel_y,yaw,x,y,z,left_encoder_rate,right_encoder_rate,left_motor,right_motor,temp,fpga time,navx time
-0.0119019,-0.0109863,1.01483,-0.0610352,-0.12207,0,0.002,-0.001,-67.29,-0.173386,0.0128937,0,0,0,0,0,41.76,657.312,2277430
-0.0148315,-0.00683594,1.0116,0,0,-0.12207,-0.002,-0.003,-67.29,-0.173386,0.0128937,0,0,0,0,0,41.76,657.322,2277445
-0.00915527,-0.00610352,1.00763,-0.0610352,-0.12207,0,0.001,0.001,0,0,0,0,0,0,0,0,41.76,657.337,2277460
-0.0108643,-0.00537109,1.0119,0.0610352,-0.0610352,-0.0610352,0,0.002,0,0,0,0,0,0,0,0,41.77,657.357,2277475
-0.0109253,-0.00695801,1.01355,0,0,0,0,0,0,0,0,0,0,0,0,0,41.77,657.38,2277505
-0.0101929,-0.00738525,1.01453,0,0,0.0610352,0,0,0,0,0,0,0,0,0,0,41.77,657.399,2277520
-0.0108032,-0.00799561,1.0097,-0.0610352,0.0610352,-0.12207,0,0,0,0,0,0,0,0,0,0,41.77,657.417,2277535
-0.0105591,-0.00775146,1.01556,-0.0610352,-0.0610352,-0.0610352,0,0,0,0,0,0,0,0,0,0,41.77,657.438,2277565
-0.0106812,-0.00939941,1.01166,-0.0610352,-0.0610352,-0.0610352,0,-0.001,0,0,0,0,0,0,0,0,41.77,657.457,2277580
-0.00921631,-0.00915527,1.01459,0,0,-0.0610352,0.001,-0.001,0,0,0,0,0,0,0,0,41.77,657.478,2277595
-0.010498,-0.00830078,1.00995,-0.12207,-0.183105,0,0,0,0,0,0,0,0,0,0,0,41.77,657.498,2277625
-0.0128784,-0.00799561,1.01105,0,0.0610352,0,-0.001,0,0,0,0,0,0,0,0,0,41.77,657.518,2277640
-0.0088501,-0.00604248,1.01868,0,0.0610352,-0.12207,0.002,0.002,0,0,0,0,0,0,0,0,41.77,657.538,2277655
-0.0112915,-0.00964355,1.01648,0,0,-0.12207,0,-0.001,0,0,0,0,0,0,0,0,41.77,657.557,2277685
-0.0098877,-0.00726318,1.01508,-0.0610352,-0.0610352,-0.0610352,0.001,0,0,0,0,0,0,0,0,0,41.77,657.578,2277700
-0.0106201,-0.0110474,1.01196,0.0610352,0.0610352,-0.0610352,0,-0.003,0,0,0,0,0,0,0,0,41.77,657.598,2277715
-0.0111084,-0.00750732,1.01056,0,-0.0610352,0,0,0,0,0,0,0,0,0,0,0,41.77,657.617,2277745
-0.0111694,-0.00909424,1.01044,0,0,-0.12207,0,-0.001,0,0,0,0,0,0,0,0,41.77,657.638,2277760
-0.0102539,-0.00640869,1.01093,-0.0610352,-0.0610352,-0.0610352,0,0.001,0,0,0,0,0,0,0,0,41.77,657.658,2277775
-0.0101318,-0.00744629,1.01489,-0.0610352,-0.0610352,-0.0610352,0,0,0,0,0,0,0,0,0,0,41.77,657.678,2277805
-0.0109253,-0.00665283,1.01532,0,0,0,0,0.001,0,0,0,0,0,0,0,0,41.77,657.7,2277820
-0.0102539,-0.00952148,1.01501,-0.12207,-0.305176,0,0,-0.001,0,0,0,0,0,0,0,0,41.77,657.718,2277835
-0.0103149,-0.00872803,1.01019,0.0610352,0,-0.0610352,0,0,0,0,0,0,0,0,0,0,41.77,657.738,2277865
-0.0109253,-0.00830078,1.01495,0.0610352,0,0.0610352,0,0,0,0,0,0,0,0,0,0,41.77,657.758,2277880
-0.0146484,-0.00598145,1.0144,0.0610352,0,-0.0610352,-0.003,0.002,0,0,0,0,0,0,0,0,41.77,657.778,2277895
-0.0101318,-0.00878906,1.01007,-0.0610352,0.0610352,-0.0610352,0,0,0,0,0,0,0,0,0,0,41.77,657.798,2277925
-0.010437,-0.0102539,1.00458,-0.0610352,0,-0.12207,0,-0.002,0,0,0,0,0,0,0,0,41.77,657.818,2277940
-0.0111084,-0.00921631,1.00952,-0.0610352,0,-0.183105,0,-0.001,0,0,0,0,0,0,0,0,41.77,657.838,2277955
-0.0117188,-0.00762939,1.01141,0,0.0610352,-0.0610352,0,0,0,0,0,0,0,0,0,0,41.77,657.858,2277985
-0.0126343,-0.0100098,1.01276,0,-0.0610352,0.12207,-0.001,-0.001,0,0,0,0,0,0,0,0,41.77,657.878,2278000
-0.00994873,-0.00457764,1.01453,0,0.183105,-0.0610352,0.001,0.003,0,0,0,0,0,0,0,0,41.77,657.898,2278016
-0.0114746,-0.0100708,1.01245,-0.0610352,-0.0610352,-0.12207,0,-0.002,0,0,0,0,0,0,0,0,41.77,657.918,2278045
-0.00952148,-0.00817871,1.01471,0,-0.0610352,-0.0610352,0.001,0,0,0,0,0,0,0,0,0,41.77,657.938,2278060
-0.0106812,-0.0110474,1.01007,-0.0610352,-0.183105,-0.0610352,0,-0.002,0,0,0,0,0,0,0,0,41.77,657.958,2278076
-0.00897217,-0.00909424,1.0069,-0.0610352,-0.0610352,0,0.002,0,0,0,0,0,0,0,0,0,41.77,657.979,2278105
-0.00860596,-0.00665283,1.01007,0.12207,-0.0610352,-0.12207,0.002,0.001,0,0,0,0,0,0,0,0,41.77,657.998,2278120
-0.0142822,-0.00701904,1.00928,0,0.0610352,-0.12207,-0.003,0.001,0,0,0,0,0,0,0,0,41.77,658.021,2278150
-0.0115967,-0.00860596,1.01361,-0.0610352,0,-0.12207,0,0,0,0,0,0,0,0,0,0,41.77,658.038,2278165
-0.0101318,-0.00585938,1.01764,0.12207,0,-0.12207,0,0.002,0,0,0,0,0,0,0,0,41.77,658.057,2278180
-0.0098877,-0.00952148,1.00946,-0.12207,-0.12207,-0.12207,0.001,-0.001,0,0,0,0,0,0,0,0,41.77,658.077,2278196
-0.0113525,-0.00640869,1.01965,-0.0610352,0.0610352,-0.0610352,0,0.001,0,0,0,0,0,0,0,0,41.77,658.099,2278225
-0.0110474,-0.00958252,1.0116,-0.0610352,0,-0.12207,0,-0.001,0,0,0,0,0,0,0,0,41.77,658.117,2278240
-0.0108643,-0.00549316,1.00964,0,0.0610352,-0.0610352,0,0.002,0,0,0,0,0,0,0,0,41.77,658.138,2278256
-0.00915527,-0.00732422,1.02032,0.0610352,0.0610352,0,0.002,0,0,0,0,0,0,0,0,0,41.77,658.158,2278285
-0.00970459,-0.00933838,1.00238,-0.0610352,-0.12207,0.0610352,0.001,-0.001,0,0,0,0,0,0,0,0,41.77,658.178,2278300
-0.00994873,-0.00726318,1.00946,0,0,0,0.001,0,0,0,0,0,0,0,0,0,41.77,658.199,2278316
-0.00964355,-0.0110474,1.01422,-0.0610352,-0.0610352,0,0.001,-0.002,0,0,0,0,0,0,0,0,41.77,658.218,2278345
-0.0122681,-0.00646973,1.01215,0,0.0610352,0,-0.001,0.001,0,0,0,0,0,0,0,0,41.77,658.238,2278360
-0.0112305,-0.0090332,1.01276,-0.12207,-0.12207,0,0,0,0,0,0,0,0,0,0,0,41.77,658.258,2278376
-0.0115356,-0.0111084,1.01001,0,0.0610352,0,0,-0.002,-0.01,0,0,0,0,0,0,0,41.77,658.278,2278405
-0.012207,-0.00909424,1.01007,-0.0610352,-0.0610352,0,-0.001,0,-0.01,0,0,0,0,0,0,0,41.77,658.297,2278420
-0.00933838,-0.0102539,1.01532,0,0,-0.0610352,0.001,-0.001,-0.01,0,0,0,0,0,0,0,41.77,658.318,2278436
-0.00921631,-0.00616455,1.01801,0.0610352,-0.0610352,-0.12207,0.001,0.002,-0.01,0,0,0,0,0,0,0,41.77,658.338,2278465
-0.0137329,-0.00738525,1.01733,-0.0610352,-0.0610352,-0.12207,-0.002,0,-0.01,0,0,0,0,0,0,0,41.77,658.357,2278481
-0.0124512,-0.00756836,1.01147,0.0610352,0.12207,-0.183105,-0.001,0,-0.01,0,0,0,0,0,0,0,41.77,658.378,2278496
-0.0130005,-0.00683594,1.00977,0,0.0610352,-0.0610352,-0.001,0.001,-0.01,0,0,0,0,0,0,0,41.77,658.398,2278526
-0.00933838,-0.0078125,1.01416,0,0.0610352,-0.0610352,0.001,0,-0.01,0,0,0,0,0,0,0,41.77,658.421,2278541
-0.0130005,-0.0103149,1.01282,0.12207,0.0610352,0,-0.001,-0.002,0,0,0,0,0,0,0,0,41.77,658.438,2278556
-0.0107422,-0.00683594,1.0141,-0.12207,-0.12207,0,0,0.001,-0.01,0,0,0,0,0,0,0,41.77,658.459,2278586
-0.0114136,-0.0109253,1.01025,0,0,-0.0610352,0,-0.002,-0.01,0,0,0,0,0,0,0,41.77,658.478,2278601
-0.00970459,-0.00933838,1.01147,-0.183105,-0.12207,-0.12207,0.001,-0.001,-0.01,0,0,0,0,0,0,0,41.77,658.497,2278616
-0.0102539,-0.00830078,1.01202,-0.0610352,-0.12207,0,0,0,-0.01,0,0,0,0,0,0,0,41.77,658.518,2278646
-0.0133667,-0.00738525,1.01068,0,-0.0610352,0,-0.002,0,-0.01,0,0,0,0,0,0,0,41.77,658.538,2278661
-0.0126343,-0.0100098,1.0144,-0.0610352,-0.183105,0.0610352,-0.001,-0.001,-0.01,0,0,0,0,0,0,0,41.77,658.558,2278676
-0.0107422,-0.00823975,1.01282,-0.0610352,-0.0610352,-0.12207,0,0,-0.01,0,0,0,0,0,0,0,41.77,658.58,2278706
-0.0108032,-0.00628662,1.01068,0.0610352,0,0,0,0.001,-0.01,0,0,0,0,0,0,0,41.77,658.598,2278721
-0.0125732,-0.00622559,1.01068,-0.0610352,-0.0610352,-0.0610352,-0.001,0.001,-0.01,0,0,0,0,0,0,0,41.77,658.618,2278736
-0.0103149,-0.00958252,1.01416,0,0,0.12207,0,-0.001,-0.01,0,0,0,0,0,0,0,41.77,658.639,2278766
-0.0128784,-0.00622559,1.0069,-0.0610352,-0.0610352,-0.12207,-0.001,0.001,-0.01,0,0,0,0,0,0,0,41.77,658.66,2278781
-0.0117798,-0.00891113,1.01208,0.12207,0,0,0,0,-0.01,0,0,0,0,0,0,0,41.77,658.678,2278796
-0.00933838,-0.00714111,1.01996,0,0,-0.183105,0.001,0.001,-0.01,0,0,0,0,0,0,0,41.77,658.698,2278826
-0.0106201,-0.00872803,1.01733,-0.0610352,-0.12207,0,0,0,-0.01,0,0,0,0,0,0,0,41.77,658.718,2278841
-0.0108643,-0.00756836,1.01587,0.12207,0.0610352,-0.0610352,0,0,-0.01,0,0,0,0,0,0,0,41.77,658.738,2278856
-0.0114746,-0.00561523,1.01367,0,0,0.0610352,0,0.002,-0.01,0,0,0,0,0,0,0,41.77,658.758,2278886
-0.0106201,-0.00823975,1.01184,-0.0610352,-0.0610352,-0.0610352,0,0,-0.01,0,0,0,0,0,0,0,41.77,658.779,2278901
-0.0122681,-0.00744629,1.01031,-0.0610352,-0.0610352,0.0610352,-0.001,0,-0.02,0,0,0,0,0,0,0,41.77,658.798,2278916
-0.0118408,-0.00842285,1.01331,-0.0610352,-0.0610352,0.0610352,0,0,-0.02,0,0,0,0,0,0,0,41.77,658.818,2278946
-0.012207,-0.00946045,1.01312,0.0610352,-0.0610352,-0.12207,-0.001,-0.001,-0.02,0,0,0,0,0,0,0,41.77,658.838,2278961
-0.0116577,-0.00756836,1.01196,-0.0610352,-0.0610352,-0.0610352,0,0,-0.02,0,0,0,0,0,0,0,41.77,658.858,2278976
-0.0111084,-0.00787354,1.01355,0,0,-0.183105,0,0,-0.01,0,0,0,0,0,0,0,41.78,658.879,2279006
-0.0100098,-0.0101318,1.0127,-0.0610352,-0.183105,0,0,-0.002,-0.01,0,0,0,0,0,0,0,41.78,658.898,2279021
-0.0117188,-0.00616455,1.01111,-0.0610352,-0.0610352,-0.0610352,0,0.001,-0.01,0,0,0,0,0,0,0,41.78,658.918,2279036
-0.0130005,-0.00897217,1.01349,0,0,-0.0610352,-0.002,0,-0.01,0,0,0,0,0,0,0,41.78,658.938,2279066
-0.013916,-0.00976562,1.005,0,0,0,-0.002,-0.001,-0.01,0,0,0,0,0,0,0,41.78,658.959,2279081
-0.0125122,-0.00646973,1.01227,-0.12207,-0.0610352,-0.12207,-0.001,0.001,-0.01,0,0,0,0,0,0,0,41.78,658.979,2279096
-0.0162964,-0.00927734,1.01398,0,0,-0.0610352,-0.005,-0.001,-0.01,0,0,0,0,0,0,0,41.78,658.998,2279126
-0.0112915,-0.00769043,1.01147,-0.0610352,0,-0.0610352,0,0,-0.01,0,0,0,0,0,0,0,41.78,659.02,2279141
-0.0098877,-0.0067749,1.01215,-0.0610352,-0.12207,-0.0610352,0.001,0.001,-0.01,0,0,0,0,0,0,0,41.78,659.038,2279156
-0.00897217,-0.0043335,1.00482,-0.0610352,0,0,0.002,0.003,-0.01,0,0,0,0,0,0,0,41.78,659.057,2279186
-0.00976562,-0.00714111,1.01538,0,0,0.0610352,0.001,0.001,-0.01,0,0,0,0,0,0,0,41.78,659.078,2279201
-0.0101929,-0.00830078,1.01593,0.0610352,0.0610352,0,0,0,-0.01,0,0,0,0,0,0,0,41.78,659.097,2279216
-0.00933838,-0.00872803,1.01544,-0.0610352,-0.12207,-0.12207,0.001,0,-0.01,0,0,0,0,0,0,0,41.78,659.124,2279246
-0.0100098,-0.00775146,1.01587,-0.0610352,0,-0.0610352,0.001,0,-0.01,0,0,0,0,0,0,0,41.78,659.14,2279261
-0.0100708,-0.00848389,1.01141,0,0,0.0610352,0,0,-0.01,0,0,0,0,0,0,0,41.78,659.157,2279276
-0.0103149,-0.00634766,1.00964,-0.183105,-0.0610352,-0.0610352,0,0.001,-0.01,0,0,0,0,0,0,0,41.78,659.178,2279306
-0.0100098,-0.00787354,1.00885,-0.0610352,-0.12207,-0.0610352,0.001,0,-0.01,0,0,0,0,0,0,0,41.78,659.197,2279321
-0.0117798,-0.00921631,1.01593,0,0,0,0,-0.001,-0.02,0,0,0,0,0,0,0,41.78,659.217,2279337
-0.0109863,-0.0117188,1.01385,-0.0610352,-0.12207,0,0,-0.003,-0.02,0,0,0,0,0,0,0,41.78,659.237,2279366
-0.010498,-0.00842285,1.01068,-0.0610352,-0.12207,0,0,0,-0.02,0,0,0,0,0,0,0,41.78,659.257,2279381
-0.012085,-0.00646973,1.01282,-0.0610352,-0.0610352,0,-0.001,0.001,-0.02,0,0,0,0,0,0,0,41.78,659.278,2279397
-0.0108032,-0.00830078,1.01282,0.0610352,0,0,0,0,-0.02,0,0,0,0,0,0,0,41.78,659.298,2279426
-0.0123901,-0.00909424,1.01398,0.0610352,0,-0.0610352,-0.001,0,-0.02,0,0,0,0,0,0,0,41.78,659.318,2279441
-0.0112305,-0.00708008,1.01392,-0.0610352,-0.0610352,-0.12207,0,0.001,-0.02,0,0,0,0,0,0,0,41.78,659.338,2279457
-0.0107422,-0.00994873,1.0119,-0.0610352,-0.12207,-0.0610352,0,-0.001,-0.02,0,0,0,0,0,0,0,41.78,659.358,2279486
-0.00915527,-0.00842285,1.01062,0.0610352,0,0,0.001,0,-0.02,0,0,0,0,0,0,0,41.78,659.379,2279501
-0.0106812,-0.00805664,1.01849,-0.0610352,-0.183105,-0.0610352,0,0,-0.02,0,0,0,0,0,0,0,41.78,659.398,2279517
-0.0101318,-0.00842285,1.01166,0,0,-0.0610352,0,0,-0.02,0,0,0,0,0,0,0,41.78,659.418,2279546
-0.00866699,-0.00604248,1.01141,-0.12207,-0.0610352,0,0.002,0.002,-0.03,0,0,0,0,0,0,0,41.78,659.438,2279561
-0.00897217,-0.00695801,1.0163,0,0.12207,-0.12207,0.002,0.001,-0.02,0,0,0,0,0,0,0,41.78,659.46,2279577
-0.010437,-0.00836182,1.00879,0,0.0610352,0.0610352,0,0,-0.03,0,0,0,0,0,0,0,41.78,659.478,2279606
-0.00927734,-0.0108032,1.01416,-0.0610352,-0.0610352,-0.12207,0.001,-0.002,-0.03,0,0,0,0,0,0,0,41.78,659.497,2279621
-0.0115967,-0.00634766,1.01172,0.12207,0.0610352,0,0,0.001,-0.03,0,0,0,0,0,0,0,41.78,659.518,2279637
-0.0108032,-0.0067749,1.01654,0.0610352,0.12207,-0.0610352,0,0.001,-0.02,0,0,0,0,0,0,0,41.78,659.538,2279666
-0.010437,-0.00769043,1.01526,0,0.0610352,-0.12207,0,0,-0.02,0,0,0,0,0,0,0,41.78,659.558,2279681
-0.0124512,-0.00952148,1.00909,0,0,-0.0610352,-0.001,-0.001,-0.02,0,0,0,0,0,0,0,41.78,659.578,2279697
-0.00939941,-0.00915527,1.01306,0,0,-0.0610352,0.001,0,-0.02,0,0,0,0,0,0,0,41.78,659.598,2279726
-0.0107422,-0.00689697,1.00836,0,0,-0.0610352,0,0.001,-0.02,0,0,0,0,0,0,0,41.78,659.617,2279741
-0.00964355,-0.00994873,1.00903,-0.0610352,-0.0610352,-0.12207,0.001,-0.001,-0.02,0,0,0,0,0,0,0,41.78,659.638,2279757
-0.0112915,-0.0106812,1.01239,0,-0.0610352,0.0610352,0,-0.002,-0.02,0,0,0,0,0,0,0,41.78,659.658,2279786
-0.0088501,-0.00732422,1.01099,-0.0610352,-0.0610352,-0.0610352,0.002,0,-0.02,0,0,0,0,0,0,0,41.78,659.678,2279801
-0.0108643,-0.00671387,1.00983,0.0610352,0,-0.183105,0,0.001,-0.02,0,0,0,0,0,0,0,41.78,659.698,2279817
-0.0112915,-0.00543213,1.00873,0,0.0610352,-0.0610352,0,0.002,-0.02,0,0,0,0,0,0,0,41.78,659.718,2279847
-0.0114136,-0.00708008,1.00555,-0.0610352,-0.0610352,0,0,0.001,-0.02,0,0,0,0,0,0,0,41.78,659.738,2279862
-0.0101929,-0.00817871,1.01453,0,0.0610352,0,0,0,-0.02,0,0,0,0,0,0,0,41.78,659.758,2279877
-0.0117798,-0.00500488,1.01215,0,0,0,0,0.003,-0.02,0,0,0,0,0,0,0,41.78,659.778,2279907
-0.0118408,-0.00799561,1.01044,0,0.0610352,0,0,0,-0.02,0,0,0,0,0,0,0,41.78,659.799,2279922
-0.0112915,-0.00970459,1.01349,0,0.0610352,-0.0610352,0,-0.001,-0.02,0,0,0,0,0,0,0,41.78,659.818,2279937
-0.00823975,-0.00646973,1.00867,0.0610352,0.0610352,-0.12207,0.002,0.001,-0.02,0,0,0,0,0,0,0,41.78,659.839,2279967
-0.0135498,-0.00872803,1.01038,0,0.0610352,-0.0610352,-0.002,0,-0.02,0,0,0,0,0,0,0,41.78,659.858,2279982
-0.010376,-0.0107422,1.00812,0,-0.0610352,-0.0610352,0,-0.002,-0.02,0,0,0,0,0,0,0,41.78,659.878,2279997
-0.00921631,-0.00946045,1.00964,-0.12207,0,0,0.001,-0.001,-0.02,0,0,0,0,0,0,0,41.76,659.898,2280027
-0.0113525,-0.00720215,1.01508,0.0610352,0.0610352,0,0,0,-0.03,0,0,0,0,0,0,0,41.76,659.918,2280042
-0.0120239,-0.00866699,1.01324,0.12207,0.0610352,0.0610352,0,0,-0.03,0,0,0,0,0,0,0,41.76,659.942,2280072
-0.0106201,-0.00762939,1.01025,0.0610352,0.0610352,0,0,0,-0.03,0,0,0,0,0,0,0,41.76,659.96,2280087
-0.0100098,-0.0100708,1.01141,0,0,0,0.001,-0.002,-0.03,0,0,0,0,0,0,0,41.76,659.978,2280102
-0.0107422,-0.00720215,1.0119,-0.0610352,-0.12207,-0.0610352,0,0,-0.03,0,0,0,0,0,0,0,41.76,659.998,2280117
-0.00860596,-0.00714111,1.01562,0,0,0,0.002,0,-0.03,0,0,0,0,0,0,0,41.76,660.018,2280132
-0.00811768,-0.00787354,1.00934,-0.12207,-0.183105,-0.0610352,0.002,0,-0.03,0,0,0,0,0,0,0,41.76,660.038,2280162
-0.0115356,-0.00756836,1.00903,0.12207,0,-0.0610352,0,0,-0.03,0,0,0,0,0,0,0,41.76,660.057,2280177
-0.0118408,-0.0122681,1.01208,0,0,-0.12207,0,-0.004,-0.03,0,0,0,0,0,0,0,41.76,660.078,2280207
-0.0128174,-0.0045166,1.01202,0,0,-0.12207,-0.001,0.003,-0.03,0,0,0,0,0,0,0,41.76,660.098,2280222
-0.00982666,-0.00524902,1.01001,0,0.12207,0,0.001,0.002,-0.03,0,0,0,0,0,0,0,41.76,660.118,2280239
-0.00976562,-0.00769043,1.01117,-0.0610352,-0.0610352,-0.12207,0.001,0,-0.03,0,0,0,0,0,0,0,41.76,660.138,2280267
-0.00915527,-0.00384521,1.01428,-0.12207,-0.0610352,-0.12207,0.001,0.004,-0.03,0,0,0,0,0,0,0,41.76,660.157,2280282
-0.0108643,-0.00653076,1.01251,-0.0610352,-0.12207,0.0610352,0,0.001,-0.03,0,0,0,0,0,0,0,41.76,660.188,2280312
-0.0101318,-0.0102539,1.00812,0.12207,0.0610352,-0.0610352,0,-0.002,-0.03,0,0,0,0,0,0,0,41.76,660.198,2280327
-0.0117188,-0.00817871,1.01245,-0.0610352,-0.0610352,-0.12207,0,0,-0.03,0,0,0,0,0,0,0,41.76,660.217,2280342
-0.0134277,-0.00793457,1.0119,0,0.0610352,-0.12207,-0.002,0,-0.03,0,0,0,0,0,0,0,41.76,660.238,2280357
-0.012207,-0.00860596,1.01416,-0.0610352,-0.12207,0,-0.001,0,-0.03,0,0,0,0,0,0,0,41.76,660.26,2280387
-0.0118408,-0.00726318,1.01324,-0.12207,-0.12207,-0.0610352,0,0,-0.02,0,0,0,0,0,0,0,41.76,660.278,2280402
-0.0117188,-0.00805664,1.01599,-0.12207,-0.0610352,-0.0610352,0,0,-0.02,0,0,0,0,0,0,0,41.76,660.297,2280417
-0.0126343,-0.00622559,1.01581,0,0.0610352,0,-0.001,0.001,-0.02,0,0,0,0,0,0,0,41.76,660.317,2280432
-0.0125732,-0.00769043,1.01654,-0.0610352,-0.12207,0,-0.001,0,-0.02,0,0,0,0,0,0,0,41.76,660.338,2280462
-0.0098877,-0.0101929,1.00897,-0.0610352,-0.0610352,-0.12207,0.001,-0.002,-0.02,0,0,0,0,0,0,0,41.76,660.357,2280477
-0.00994873,-0.00860596,1.01447,0,0.12207,-0.0610352,0.001,0,-0.02,0,0,0,0,0,0,0,41.76,660.38,2280507
-0.0126343,-0.00506592,1.00952,-0.0610352,-0.183105,0.0610352,-0.001,0.002,-0.02,0,0,0,0,0,0,0,41.76,660.398,2280522
-0.0114746,-0.00616455,1.01178,0.0610352,0.0610352,-0.0610352,0,0.001,-0.02,0,0,0,0,0,0,0,41.81,660.418,2280537
-0.0125732,-0.00982666,1.00922,-0.12207,-0.12207,0.0610352,-0.001,-0.001,-0.02,0,0,0,0,0,0,0,41.81,660.438,2280567
-0.00891113,-0.00628662,1.01062,-0.0610352,-0.183105,-0.0610352,0.002,0.001,-0.02,0,0,0,0,0,0,0,41.81,660.458,2280582
-0.0115356,-0.00726318,1.01288,-0.0610352,-0.0610352,0.12207,0,0,-0.03,0,0,0,0,0,0,0,41.81,660.478,2280597
-0.0112305,-0.00787354,1.01111,-0.0610352,-0.0610352,-0.0610352,0,0,-0.02,0,0,0,0,0,0,0,41.81,660.498,2280627
-0.010437,-0.00994873,1.01123,0.0610352,0.12207,-0.0610352,0,-0.002,-0.03,0,0,0,0,0,0,0,41.81,660.518,2280642
-0.00946045,-0.00915527,1.01154,0,-0.0610352,-0.12207,0.001,-0.001,-0.02,0,0,0,0,0,0,0,41.81,660.538,2280658
-0.0147095,-0.00708008,1.01599,0,0,-0.0610352,-0.003,0,-0.02,0,0,0,0,0,0,0,41.81,660.558,2280687
-0.0110474,-0.00848389,1.01123,0,-0.12207,0,0,0,-0.02,0,0,0,0,0,0,0,41.81,660.579,2280702
-0.00952148,-0.00836182,1.01337,0,-0.0610352,-0.0610352,0.001,0,-0.02,0,0,0,0,0,0,0,41.81,660.598,2280718
-0.0145264,-0.00933838,1.00952,0,0.0610352,-0.12207,-0.003,-0.001,-0.02,0,0,0,0,0,0,0,41.81,660.617,2280732
-0.00970459,-0.00811768,1.01434,-0.0610352,-0.0610352,0.0610352,0.001,0,-0.03,0,0,0,0,0,0,0,41.81,660.637,2280762
-0.012085,-0.00726318,1.01404,0,0.0610352,-0.0610352,0,0,-0.02,0,0,0,0,0,0,0,41.81,660.659,2280778
-0.0114136,-0.00848389,1.00977,0,0,-0.0610352,0,0,-0.03,0,0,0,0,0,0,0,41.81,660.678,2280807
-0.0119019,-0.00891113,1.01245,-0.0610352,-0.12207,-0.0610352,0,-0.001,-0.03,0,0,0,0,0,0,0,41.81,660.697,2280822
-0.0126343,-0.00872803,1.01031,0,0,0.0610352,-0.001,0,-0.03,0,0,0,0,0,0,0,41.81,660.72,2280838
-0.0131836,-0.00854492,1.01392,-0.0610352,-0.12207,0,-0.002,0,-0.03,0,0,0,0,0,0,0,41.81,660.738,2280867
-0.0101929,-0.00823975,1.00793,-0.0610352,-0.0610352,-0.12207,0,0,-0.03,0,0,0,0,0,0,0,41.81,660.759,2280882
-0.00994873,-0.0067749,1.01257,-0.0610352,-0.0610352,0,0.001,0.001,-0.03,0,0,0,0,0,0,0,41.81,660.779,2280898
-0.0115967,-0.00830078,1.01483,-0.12207,0,-0.0610352,0,0,-0.03,0,0,0,0,0,0,0,41.81,660.798,2280927
-0.0119629,-0.0117188,1.01318,-0.0610352,-0.0610352,0.0610352,0,-0.003,-0.03,0,0,0,0,0,0,0,41.81,660.828,2280942
-0.0101929,-0.00531006,1.01257,0,0,-0.0610352,0,0.002,-0.03,0,0,0,0,0,0,0,41.81,660.838,2280958
-0.0102539,-0.0102539,1.01392,0,-0.0610352,-0.0610352,0,-0.002,-0.03,0,0,0,0,0,0,0,41.81,660.857,2280972
-0.0115356,-0.0101318,1.01129,-0.0610352,-0.0610352,-0.12207,0,-0.002,-0.03,0,0,0,0,0,0,0,41.81,660.877,2281002
-0.0108643,-0.003479,1.00958,-0.0610352,-0.12207,-0.0610352,0,0.004,-0.03,0,0,0,0,0,0,0,41.81,660.897,2281018
-0.0098877,-0.00933838,1.01532,-0.0610352,-0.0610352,0,0.001,-0.001,-0.03,0,0,0,0,0,0,0,41.8,660.917,2281047
-0.0111084,-0.00921631,1.00958,-0.0610352,-0.0610352,-0.0610352,0,-0.001,-0.03,0,0,0,0,0,0,0,41.8,660.937,2281062
-0.010498,-0.00878906,1.01672,0,0,-0.12207,0,0,-0.03,0,0,0,0,0,0,0,41.8,660.957,2281078
-0.010498,-0.00921631,1.01099,-0.0610352,-0.12207,0,0,-0.001,-0.03,0,0,0,0,0,0,0,41.8,660.977,2281107
-0.0126343,-0.00616455,1.01233,-0.0610352,-0.12207,-0.12207,-0.001,0.001,-0.03,0,0,0,0,0,0,0,41.8,660.998,2281122
-0.0101929,-0.00994873,1.0152,-0.12207,-0.244141,-0.12207,0,-0.002,-0.03,0,0,0,0,0,0,0,41.8,661.017,2281138
-0.0108032,-0.00799561,1.01605,-0.0610352,-0.0610352,-0.12207,0,0,-0.03,0,0,0,0,0,0,0,41.8,661.037,2281168
-0.0101929,-0.0090332,1.01331,0,0.0610352,-0.0610352,0,-0.001,-0.03,0,0,0,0,0,0,0,41.8,661.059,2281183
-0.00921631,-0.0106812,1.00745,0,0,0.0610352,0.001,-0.002,-0.03,0,0,0,0,0,0,0,41.8,661.079,2281198
-0.00469971,0.0213013,1.01166,0.366211,0,0.793457,0.006,0.029,-0.03,0,1.52588e-05,0,0,0,0,0,41.8,661.097,2281213
-0.0117188,-0.0485229,1.01831,-0.366211,0.12207,2.80762,0,-0.04,-0.1,0,4.57764e-05,0,0,0,0,0,41.8,661.118,2281243
-0.0211182,0.0189819,0.993408,-0.610352,0.0610352,3.90625,-0.01,0.027,-0.15,0,3.05176e-05,0,0,0,0,0,41.8,661.138,2281258
-0.0180054,-0.013916,1.01135,0.0610352,0.12207,1.58691,-0.006,-0.006,-0.23,0,4.57764e-05,0,0,0,0,0,41.8,661.158,2281288
-0.0090332,-0.0294189,1.0163,-0.305176,-0.244141,2.31934,0.002,-0.021,-0.26,0,3.05176e-05,0,0,0,0,0,41.8,661.178,2281303
0.0022583,-0.00262451,1.00391,-0.0610352,-0.183105,1.46484,0.013,0.005,-0.29,0,0,0,0,0,0,0,41.8,661.199,2281318
-0.0141602,-0.0114746,1.01587,0.12207,-0.244141,3.35693,-0.002,-0.003,-0.36,0,-1.52588e-05,0,0,0,0,0,41.8,661.219,2281348
-0.00115967,-0.0119629,1.01013,0.244141,-0.0610352,2.50244,0.01,-0.003,-0.4,0,-1.52588e-05,0,0,0,0,0,41.8,661.237,2281363
-0.0268555,-0.0187988,1.01111,0,-0.12207,2.86865,-0.015,-0.01,-0.44,0,-1.52588e-05,0,0,0,0,0,41.8,661.258,2281378
-0.0065918,-0.00689697,1.01208,0.12207,-0.0610352,2.74658,0.004,0.001,-0.54,0,-1.52588e-05,0,0,0,0,0,41.8,661.278,2281408
-0.0201416,-0.0119019,1.013,0,-0.183105,3.35693,-0.009,-0.003,-0.58,0,-1.52588e-05,0,0,0,0,0,41.8,661.298,2281423
-0.00537109,0.00982666,1.0072,0.305176,0,3.23486,0.005,0.017,-0.63,0,-1.52588e-05,0,0,0,0,0,41.8,661.319,2281438
-0.0202637,-0.11615,1.02374,-1.09863,-0.183105,4.39453,-0.007,-0.107,-0.75,0,-9.15527e-05,0,0,0,0,0,41.8,661.338,2281468
-0.00848389,-0.00952148,0.999634,-2.19727,-0.244141,6.34766,0.002,0,-0.83,0,-0.000228882,0,0,0,0,0,41.8,661.357,2281483
-0.00701904,0.0245361,1.00397,-0.366211,0,7.08008,0.003,0.034,-0.94,0,-0.000366211,0,0,0,0,0,41.8,661.378,2281498
-0.0110474,-0.0679321,1.01398,0.12207,-0.427246,9.09424,0.001,-0.057,-1.19,0,-0.000671387,0,0,0,0,0,41.8,661.401,2281528
-0.0221558,-0.0211182,1.01044,-0.12207,-0.305176,8.72803,-0.01,-0.01,-1.32,0,-0.000900269,0,0,0,0,0,41.8,661.418,2281543
-0.0227051,-0.0204468,1.00708,0.427246,-0.366211,9.58252,-0.011,-0.01,-1.46,0,-0.00114441,0,0,0,0,0,41.77,661.438,2281558
-0.0134277,-0.0294189,1.01721,0.793457,-0.427246,12.0239,-0.001,-0.019,-1.8,0,-0.00172424,0,0,0,0,0,41.77,661.46,2281588
-0.0181274,-0.0820312,1.04236,-0.12207,-0.549316,13.6108,-0.004,-0.071,-2,0,-0.00209045,0,0,0,0,0,41.77,661.478,2281603
-0.00750732,-0.060791,1.0025,-2.62451,-0.915527,15.686,0.005,-0.048,-2.23,0,-0.00253296,0,0,0,0,0,41.77,661.498,2281618
-0.00317383,0.0198364,0.997803,0.244141,-0.549316,13.6719,0.005,0.032,-2.67,0,-0.00344849,0,0,0,0,0,41.77,661.518,2281648
-0.0283203,-0.0333862,1.0141,1.52588,-0.488281,13.977,-0.016,-0.022,-2.88,0,-0.00389099,0,0,0,0,0,41.77,661.538,2281663
-0.00360107,-0.0446167,1.00586,1.95312,-0.305176,13.3667,0.008,-0.032,-3.08,0,-0.00436401,0,0,0,0,0,41.77,661.559,2281678
-0.0291748,-0.0383911,1.01886,-0.366211,-0.671387,13.3667,-0.017,-0.027,-3.47,0,-0.00547791,0,0,0,0,0,41.77,661.58,2281708
-0.00598145,-0.0123901,1.01044,-0.427246,-0.488281,13.7329,0.003,0,-3.68,0,-0.00605774,0,0,0,0,0,41.77,661.598,2281723
0.000549316,-0.0279541,0.997864,-0.427246,-0.732422,13.6719,0.011,-0.014,-3.88,0,-0.00666809,0,0,0,0,0,41.77,661.618,2281738
-0.000488281,-0.0230103,1.01636,-0.488281,-0.488281,14.8315,0.01,-0.009,-4.1,0,-0.00666809,0,0,0,0,0,41.77,661.638,2281753
-0.024353,-0.0130615,1.00922,1.15967,-0.12207,13.855,-0.014,-0.001,-4.52,0,-0.00660706,0,0,0,0,0,41.77,661.658,2281783
-0.00164795,-0.0846558,1.03717,0.793457,-0.12207,14.4653,0.014,-0.071,-4.74,0,-0.00662231,0,0,0,0,0,41.77,661.678,2281798
-0.0496826,-0.0921631,1.00714,-4.08936,-0.0610352,12.3291,-0.033,-0.08,-5.14,9.15527e-05,-0.00698853,0,0,0,0,0,41.77,661.7,2281828
-0.00494385,0.0206909,1.03088,-2.62451,-0.183105,12.4512,0.001,0.037,-5.33,0.00012207,-0.00724792,0,0,0,0,0,41.77,661.718,2281843
0.0113525,0.0160522,0.981689,1.2207,0,10.376,0.017,0.033,-5.5,0.00012207,-0.00746155,0,0,0,0,0,41.77,661.738,2281858
-0.0227051,0.0383301,0.996399,2.44141,-0.183105,11.9019,-0.018,0.051,-5.83,3.05176e-05,-0.00793457,0,0,0,0,0,41.77,661.758,2281888
0.00537109,-0.0609131,1.02203,2.38037,-0.488281,11.7187,0.02,-0.044,-6.01,-1.52588e-05,-0.00816345,0,0,0,0,0,41.77,661.778,2281903
-0.0253906,-0.0106201,1.02307,1.28174,-0.549316,13.916,-0.015,0.001,-6.2,-6.10352e-05,-0.00842285,0,0,0,0,0,41.77,661.799,2281918
0.0107422,-0.067688,1.03662,-1.95312,-0.793457,14.5874,0.026,-0.05,-6.63,-0.000167847,-0.00912476,0,0,0,0,0,41.77,661.819,2281948
-0.02948,-0.0168457,1.01514,-2.2583,-0.854492,14.5874,-0.019,-0.004,-6.85,-0.000198364,-0.00956726,0,0,0,0,0,41.77,661.838,2281963
-0.00762939,-0.00299072,0.964539,-0.793457,-0.854492,13.916,0,0.011,-7.05,-0.000244141,-0.00956726,0,0,0,0,0,41.77,661.857,2281979
-0.022644,0.0305786,1.00793,1.70898,-0.793457,14.4043,-0.019,0.042,-7.49,-0.000244141,-0.00941467,0,0,0,0,0,41.77,661.878,2282008
0.00872803,-0.0148315,1.0282,0.610352,-0.366211,13.3057,0.017,0.001,-7.7,-0.000244141,-0.00927734,0,0,0,0,0,41.77,661.898,2282023
-0.00299072,-0.0280151,1.03735,-0.549316,0.244141,10.1929,0.007,-0.013,-7.87,-0.000244141,-0.00927734,0,0,0,0,0,41.77,661.918,2282039
0.0438232,0.0490723,0.987122,-2.13623,-1.2207,5.12695,0.042,0.069,-7.97,-0.000213623,-0.00924683,0,0,0,0,0,41.77,661.938,2282053
-0.0206909,0.00372314,0.958374,-0.610352,0.12207,-1.95312,-0.015,0.014,-7.98,-0.000152588,-0.00897217,0,0,0,0,0,41.79,661.96,2282083
0.0259399,-0.0178833,1.01141,0.915527,0.0610352,-3.35693,0.034,0,-7.94,-0.00012207,-0.00897217,0,0,0,0,0,41.79,661.979,2282099
-0.0126953,-0.0625,1.03186,0.183105,0.549316,-1.77002,0.002,-0.049,-7.86,0,-0.00912476,0,0,0,0,0,41.79,661.998,2282128
0.000854492,-0.043396,1.04578,0.549316,0.732422,-3.2959,0.013,-0.029,-7.82,0,-0.0092926,0,0,0,0,0,41.79,662.019,2282143
-0.0296631,-0.0425415,1.03381,0,0.183105,-2.86865,-0.016,-0.032,-7.78,0,-0.00950623,0,0,0,0,0,41.79,662.038,2282159
-0.010498,-0.0216675,1.0434,-1.58691,1.09863,-0.793457,0,-0.007,-7.73,-7.62939e-05,-0.0100403,0,0,0,0,0,41.79,662.059,2282188
-0.0119629,0.0685425,0.994263,-0.183105,0.671387,0.305176,-0.013,0.08,-7.74,-0.000137329,-0.0102539,0,0,0,0,0,41.79,662.085,2282203
-0.0251465,0.013855,0.984375,0.793457,-0.183105,-0.183105,-0.019,0.024,-7.76,-0.000137329,-0.0104218,0,0,0,0,0,41.79,662.115,2282233
-0.00848389,0.0269165,0.971619,-0.305176,-0.610352,-0.549316,-0.004,0.039,-7.74,-0.000137329,-0.0104218,0,0,0,0,0,41.79,662.138,2282263
-0.024292,-0.0527344,1.01343,0.12207,1.0376,0.366211,-0.009,-0.041,-7.74,-0.000137329,-0.0103912,0,0,0,0,0,41.79,662.149,2282279
-0.024292,-0.0527344,1.01343,0.12207,1.0376,0.366211,-0.009,-0.041,-7.74,-0.000137329,-0.0103912,0,0,0,0,0,41.79,662.16,2282279
0.0175171,-0.029541,1.0462,-0.244141,0.610352,0.610352,0.029,-0.011,-7.75,-0.00012207,-0.0104065,0,0,0,0,0,41.79,662.178,2282293
-0.00701904,-0.0149536,0.981445,0.732422,0.183105,-0.549316,0.002,-0.002,-7.75,-3.05176e-05,-0.0104065,0,0,0,0,0,41.79,662.198,2282323
-0.00799561,-0.0859985,1.03497,0.732422,0.427246,0,0.011,-0.072,-7.75,-3.05176e-05,-0.0104523,0,0,0,0,0,41.79,662.218,2282339
-0.0183105,0.00170898,1.00745,0.305176,0.671387,1.64795,-0.01,0.013,-7.78,-3.05176e-05,-0.010788,0,0,0,0,0,41.79,662.238,2282368
-0.0410156,-0.090271,1.10175,-0.12207,0.0610352,1.46484,-0.019,-0.079,-7.8,-3.05176e-05,-0.0110016,0,0,0,0,0,41.79,662.258,2282383
-0.0206299,-0.0314331,1.01825,-1.89209,-0.488281,0.549316,-0.007,-0.02,-7.81,-3.05176e-05,-0.0113068,0,0,0,0,0,41.79,662.278,2282399
-0.0240479,0.0439453,1.03467,-0.732422,-0.671387,0,-0.021,0.055,-7.81,-4.57764e-05,-0.011734,0,0,0,0,0,41.79,662.298,2282428
-0.0216675,-0.0674438,1.01416,-0.244141,0.244141,0.793457,-0.004,-0.055,-7.82,-9.15527e-05,-0.0119171,0,0,0,0,0,41.79,662.319,2282443
0.00469971,-0.0158081,1.03009,0.244141,0.244141,0.366211,0.014,0,-7.83,-0.00012207,-0.0121307,0,0,0,0,0,41.79,662.337,2282459
0.00274658,-0.100586,1.04846,-1.0376,-0.244141,-0.671387,0.024,-0.084,-7.83,-0.00012207,-0.0124054,0,0,0,0,0,41.79,662.359,2282473
-0.0155029,0.00610352,0.986938,-0.12207,0.12207,-1.28174,-0.009,0.017,-7.79,-7.62939e-05,-0.0130463,0,0,0,0,0,41.79,662.377,2282504
-0.0155029,-0.031189,1.06787,-0.0610352,0.976562,-1.15967,-0.003,-0.017,-7.77,-7.62939e-05,-0.0130463,0,0,0,0,0,41.79,662.399,2282519
-0.000488281,-0.0516968,1.01331,-1.2207,0.976562,0.488281,0.014,-0.036,-7.77,-7.62939e-05,-0.0130768,0,0,0,0,0,41.79,662.418,2282534
-0.0296631,-0.0349731,1.00897,0.610352,0.0610352,0.366211,-0.016,-0.024,-7.79,-7.62939e-05,-0.0131836,0,0,0,0,0,41.79,662.437,2282564
-0.0196533,-0.0389404,1.06122,0.976562,-0.12207,-0.244141,-0.005,-0.026,-7.79,-7.62939e-05,-0.0132751,0,0,0,0,0,41.79,662.458,2282579
-0.0439453,-0.0656738,1.02362,0.0610352,-0.183105,-0.366211,-0.026,-0.056,-7.79,-0.000106812,-0.0134277,0,0,0,0,0,41.79,662.478,2282594
0.022522,0.0684204,1.02362,-0.0610352,-0.732422,0.610352,0.021,0.085,-7.8,-0.000183105,-0.0136261,0,0,0,0,0,41.79,662.502,2282624
-0.0465698,-0.00482178,1.04218,-0.366211,-0.549316,0.305176,-0.037,0.003,-7.81,-0.000228882,-0.0136108,0,0,0,0,0,41.79,662.519,2282639
0.0280762,0.0126953,1.00598,-0.244141,-1.0376,-0.488281,0.033,0.03,-7.81,-0.000274658,-0.0135651,0,0,0,0,0,41.79,662.537,2282654
-0.00170898,-0.0078125,0.99585,-0.0610352,-0.183105,-0.732422,0.006,0.005,-7.78,-0.000305176,-0.013504,0,0,0,0,0,41.79,662.558,2282684
0.0372925,-0.036377,1.03955,0.183105,0.671387,-0.610352,0.049,-0.016,-7.77,-0.000274658,-0.013504,0,0,0,0,0,41.79,662.578,2282699
0.0117798,-0.0579224,1.02527,0,0.610352,-0.366211,0.027,-0.041,-7.76,-0.000152588,-0.0136108,0,0,0,0,0,41.79,662.598,2282729
-0.0210571,-0.0289307,0.97998,-0.366211,0.549316,-0.671387,-0.009,-0.018,-7.75,-7.62939e-05,-0.0137177,0,0,0,0,0,41.79,662.618,2282744
-0.0313721,0.022522,0.973328,-0.915527,-0.244141,-0.671387,-0.026,0.031,-7.74,-1.52588e-05,-0.0138245,0,0,0,0,0,41.79,662.637,2282759
-0.0286255,-0.0544434,1.02484,-0.610352,-0.305176,1.34277,-0.012,-0.043,-7.76,3.05176e-05,-0.0139618,0,0,0,0,0,41.79,662.657,2282789
-0.0253906,-0.0358887,0.987183,-0.183105,-0.671387,1.34277,-0.012,-0.024,-7.79,3.05176e-05,-0.0140839,0,0,0,0,0,41.79,662.678,2282804
-0.0158691,0.00604248,0.988403,0.366211,-1.52588,-0.0610352,-0.008,0.017,-7.79,3.05176e-05,-0.0142059,0,0,0,0,0,41.79,662.697,2282819
0.00354004,-0.00549316,1.00159,-0.244141,-1.34277,-0.915527,0.011,0.009,-7.79,3.05176e-05,-0.0142059,0,0,0,0,0,41.79,662.718,2282834
0.00622559,0.0368042,1.01471,0.671387,0.183105,-1.15967,0.008,0.051,-7.76,3.05176e-05,-0.0140381,0,0,0,0,0,41.79,662.739,2282864
-0.0176392,-0.0513306,1.02814,0.244141,0.427246,-1.2207,-0.003,-0.039,-7.74,3.05176e-05,-0.0139008,0,0,0,0,0,41.79,662.758,2282879
0.0153809,0.0259399,1.01251,0.183105,-0.12207,-1.40381,0.018,0.041,-7.72,3.05176e-05,-0.0137634,0,0,0,0,0,41.79,662.778,2282894
-0.0218506,-0.0421143,1.03241,-0.0610352,0.976562,-1.58691,-0.008,-0.03,-7.66,3.05176e-05,-0.0135193,0,0,0,0,0,41.79,662.798,2282924
-0.000549316,-0.0750122,1.00238,-0.610352,0.427246,-0.12207,0.016,-0.06,-7.66,3.05176e-05,-0.0134735,0,0,0,0,0,41.79,662.819,2282939
-0.0314941,0.0267944,1.02563,0.183105,0.915527,-0.244141,-0.027,0.036,-7.66,3.05176e-05,-0.013443,0,0,0,0,0,41.79,662.838,2282954
-0.00854492,-0.0430908,0.97699,0,0,-0.244141,0.005,-0.03,-7.66,-1.52588e-05,-0.0132751,0,0,0,0,0,41.79,662.858,2282984
-0.017334,0.0953979,0.968689,0.488281,-0.976562,-0.427246,-0.022,0.105,-7.66,-6.10352e-05,-0.0131378,0,0,0,0,0,41.79,662.877,2282999
-0.0219116,0.0241089,0.99762,1.46484,-0.0610352,-0.0610352,-0.016,0.034,-7.65,-0.000183105,-0.012619,0,0,0,0,0,41.79,662.898,2283029
0.00799561,-0.0236206,0.995422,0.366211,-0.427246,0.0610352,0.019,-0.009,-7.65,-0.000183105,-0.0123138,0,0,0,0,0,41.79,662.918,2283044
0.00274658,0.0216675,1.04071,0.12207,-0.0610352,-0.183105,0.007,0.035,-7.65,-0.000183105,-0.0119934,0,0,0,0,0,41.79,662.938,2283059
-0.00244141,0.0424194,1.00146,-0.427246,-0.610352,-0.244141,0,0.054,-7.64,-0.000183105,-0.0116119,0,0,0,0,0,41.79,662.958,2283074
-0.00787354,-0.0508423,1.06158,-0.732422,0,0.305176,0.007,-0.037,-7.65,-0.000183105,-0.0109253,0,0,0,0,0,41.81,662.978,2283104
-0.0272827,-0.0942993,1.04517,-0.488281,-0.12207,1.0376,-0.006,-0.083,-7.66,-0.000183105,-0.0107117,0,0,0,0,0,41.81,662.997,2283119
-0.0291138,0.0281372,1.01404,1.34277,-0.0610352,-0.671387,-0.024,0.036,-7.66,-0.000259399,-0.0102692,0,0,0,0,0,41.81,663.018,2283149
-0.0266724,-0.0906372,1.03186,0.488281,0.488281,-1.28174,-0.006,-0.08,-7.65,-0.000335693,-0.0100555,0,0,0,0,0,41.81,663.039,2283164
-0.00610352,-0.101379,1.03723,0.0610352,0.305176,-0.244141,0.015,-0.088,-7.64,-0.000335693,-0.00996399,0,0,0,0,0,41.81,663.059,2283179
-0.000854492,-0.0139771,1.03571,0.427246,0,0.183105,0.009,-0.001,-7.64,-0.000335693,-0.00991821,0,0,0,0,0,41.81,663.077,2283194
-0.00561523,0.0113525,1.02338,0.549316,-0.244141,-1.40381,0,0.022,-7.63,-0.000335693,-0.00984192,0,0,0,0,0,41.81,663.098,2283224
-0.0270386,-0.0992432,1.04895,-0.610352,0.427246,-1.28174,-0.005,-0.089,-7.61,-0.000335693,-0.00982666,0,0,0,0,0,41.81,663.118,2283239
-0.0158081,-0.0446167,1.02576,0.915527,0.549316,0.244141,-0.001,-0.034,-7.59,-0.000335693,-0.00991821,0,0,0,0,0,41.81,663.139,2283269
-0.00335693,-0.0250854,0.979736,-0.488281,0,0.427246,0.007,-0.013,-7.59,-0.000335693,-0.0100098,0,0,0,0,0,41.81,663.158,2283284
-0.0055542,0.0819092,0.981506,-0.366211,-0.366211,-0.549316,-0.008,0.091,-7.59,-0.000335693,-0.0100403,0,0,0,0,0,41.81,663.18,2283299
-0.0337524,-0.0332642,0.976135,-0.366211,0.12207,-0.244141,-0.02,-0.025,-7.56,-0.000366211,-0.00993347,0,0,0,0,0,41.81,663.198,2283329
0.0032959,0.0613403,0.973999,-0.12207,-0.183105,0.305176,0.003,0.072,-7.56,-0.000396729,-0.00984192,0,0,0,0,0,41.81,663.219,2283344
-0.00372314,0.0863037,1.00977,0.610352,-1.0376,0.488281,-0.006,0.096,-7.57,-0.000442505,-0.00964355,0,0,0,0,0,41.81,663.238,2283360
-0.015564,-0.0175781,1.02686,0.305176,-0.610352,0.12207,-0.004,-0.007,-7.58,-0.000442505,-0.00938416,0,0,0,0,0,41.81,663.258,2283374
-0.0137939,-0.0446777,1.02527,-0.488281,-0.427246,-0.610352,0,-0.034,-7.56,-0.000488281,-0.00891113,0,0,0,0,0,41.81,663.278,2283404
0.0271606,0.0582275,0.997253,-0.671387,-0.732422,-0.0610352,0.027,0.072,-7.56,-0.00050354,-0.00865173,0,0,0,0,0,41.81,663.298,2283420
-0.00616455,-0.0559692,1.03149,0.366211,0.12207,-0.671387,0.009,-0.044,-7.56,-0.000473022,-0.00802612,0,0,0,0,0,41.81,663.322,2283449
0.0123291,-0.160217,1.05145,-1.15967,-0.427246,-1.09863,0.041,-0.144,-7.55,-0.000411987,-0.00785828,0,0,0,0,0,41.81,663.339,2283464
-0.00701904,-0.150269,0.979187,-3.11279,0,-1.40381,0.019,-0.136,-7.53,-0.000305176,-0.00785828,0,0,0,0,0,41.81,663.358,2283480
-0.0346069,0.0090332,0.995178,0.671387,-0.244141,0,-0.028,0.019,-7.52,-1.52588e-05,-0.00816345,0,0,0,0,0,41.81,663.393,2283509
-0.0296631,-0.0146484,0.993652,2.38037,-0.244141,-1.09863,-0.02,-0.004,-7.51,9.15527e-05,-0.00831604,0,0,0,0,0,41.81,663.4,2283524
-0.0162354,-0.108887,1.04645,2.62451,0.549316,-0.244141,0.005,-0.095,-7.5,0.000183105,-0.00854492,0,0,0,0,0,41.81,663.418,2283540
-0.0475464,-0.0422363,1.04138,0.305176,0.854492,-0.244141,-0.034,-0.032,-7.5,0.000274658,-0.0088501,0,0,0,0,0,41.81,663.438,2283554
-0.0350342,-0.0761719,0.975464,0.549316,0.793457,0.0610352,-0.017,-0.064,-7.48,0.000335693,-0.00965881,0,0,0,0,0,41.81,663.458,2283584
0.00445557,-0.0568848,1.05896,2.38037,0.976562,0.427246,0.019,-0.039,-7.49,0.000335693,-0.0101929,0,0,0,0,0,41.77,663.477,2283600
-0.0378418,-0.0911865,1.04181,0.366211,-1.09863,-0.0610352,-0.017,-0.078,-7.49,0.000335693,-0.010788,0,0,0,0,0,41.77,663.497,2283614
0.0238647,-0.00952148,0.997253,1.64795,0.610352,0.427246,0.032,0.009,-7.48,0.000350952,-0.0123138,0,0,0,0,0,41.77,663.518,2283644
-0.0394897,-0.130798,1.06677,0.793457,0.610352,-0.671387,-0.014,-0.118,-7.48,0.00038147,-0.0131836,0,0,0,0,0,41.77,663.538,2283660
0.024353,0.0776367,0.985962,-2.68555,1.0376,-0.976562,0.021,0.098,-7.43,0.000396729,-0.0151062,0,0,0,0,0,41.77,663.559,2283689
-0.0290527,0.00164795,1.07013,-1.34277,0.244141,-2.19727,-0.021,0.017,-7.41,0.000411987,-0.015976,0,0,0,0,0,41.77,663.577,2283704
0.0177002,-0.0743408,0.990723,1.52588,0.671387,-0.793457,0.034,-0.053,-7.39,0.000442505,-0.016861,0,0,0,0,0,41.77,663.599,2283720
-0.0335083,-0.0968628,1.01819,1.89209,-1.15967,0.244141,-0.012,-0.082,-7.4,0.00050354,-0.0187683,0,0,0,0,0,41.77,663.619,2283749
0.0202637,-0.0106812,0.973816,-0.183105,0.244141,0.976562,0.029,0.009,-7.41,0.000534058,-0.0198059,0,0,0,0,0,41.77,663.639,2283764
-0.013916,0.124512,0.945923,-0.793457,-2.80762,-0.0610352,-0.022,0.138,-7.42,0.000564575,-0.0207367,0,0,0,0,0,41.77,663.658,2283780
-0.00939941,0.0248413,1.00769,-2.01416,-0.671387,0.671387,-0.004,0.041,-7.42,0.000579834,-0.0215454,0,0,0,0,0,41.77,663.678,2283794
0.0759888,-0.0523682,1.02765,-3.35693,-3.78418,-0.732422,0.089,-0.023,-7.42,0.00062561,-0.0228729,0,0,0,0,0,41.77,663.699,2283825
0.0213013,-0.0220337,0.974121,-3.72314,0.732422,-0.488281,0.03,0,-7.42,0.000762939,-0.0235291,0,0,0,0,0,41.77,663.718,2283840
0.052002,-0.098938,1.01117,0.244141,3.05176,-0.488281,0.071,-0.071,-7.38,0.000991821,-0.0249329,0,0,0,0,0,41.77,663.74,2283870
-0.0355835,-0.109314,0.991882,0,0.427246,-1.46484,-0.014,-0.092,-7.37,0.00115967,-0.0257874,0,0,0,0,0,41.77,663.76,2283885
0.0408325,-0.0678711,1.0083,-2.13623,-0.305176,-1.28174,0.056,-0.04,-7.34,0.00134277,-0.0267334,0,0,0,0,0,41.77,663.78,2283900
-0.0237427,0.000854492,1.01611,-1.58691,1.15967,0.0610352,-0.016,0.02,-7.34,0.0015564,-0.0276947,0,0,0,0,0,41.77,663.798,2283915
0.0186768,-0.0374756,0.974304,-0.12207,-0.0610352,1.09863,0.03,-0.012,-7.35,0.00193787,-0.0293732,0,0,0,0,0,41.77,663.819,2283945
-0.0404663,0.121765,0.990967,-0.793457,-1.64795,-0.488281,-0.047,0.138,-7.35,0.00212097,-0.0300903,0,0,0,0,0,41.77,663.838,2283960
0.0264282,0.107361,0.977051,-0.732422,-1.2207,0.488281,0.02,0.132,-7.35,0.00227356,-0.0306244,0,0,0,0,0,41.77,663.858,2283975
0.00854492,-0.00958252,1.0744,-0.671387,0.12207,0.183105,0.018,0.015,-7.35,0.00245667,-0.0317383,0,0,0,0,0,41.77,663.878,2284005
0.0336914,-0.00500488,0.991638,-2.01416,-1.09863,-1.2207,0.041,0.021,-7.33,0.00250244,-0.0322876,0,0,0,0,0,41.77,663.898,2284020
-0.0300903,0.00439453,1.01483,0,0.854492,-1.77002,-0.023,0.023,-7.3,0.00259399,-0.0331879,0,0,0,0,0,41.77,663.918,2284050
-0.036438,-0.11615,1.07141,-1.0376,0.793457,-0.915527,-0.013,-0.095,-7.28,0.00260925,-0.0336456,0,0,0,0,0,41.77,663.938,2284065
-0.0507202,0.0306396,0.976013,-0.976562,0.732422,-1.89209,-0.047,0.046,-7.27,0.00259399,-0.0341339,0,0,0,0,0,41.77,663.96,2284080
0.0012207,-0.0344238,0.988525,-1.83105,-0.427246,-0.549316,0.012,-0.011,-7.25,0.00253296,-0.0346069,0,0,0,0,0,41.77,663.978,2284095
-0.00878906,0.055481,1.00873,0.549316,-0.854492,-0.244141,-0.008,0.078,-7.22,0.00248718,-0.0355072,0,0,0,0,0,41.78,663.999,2284125
0.0500488,0.0133057,1.00739,0.549316,-0.0610352,-1.15967,0.055,0.043,-7.22,0.0025177,-0.0358429,0,0,0,0,0,41.78,664.024,2284140
-0.00610352,-0.167175,1.00153,-0.671387,-0.305176,-0.793457,0.022,-0.143,-7.2,0.00260925,-0.0362396,0,0,0,0,0,41.78,664.038,2284155
-0.0582886,-0.085022,1.06641,0.915527,0.305176,-0.488281,-0.039,-0.066,-7.17,0.00288391,-0.0375824,0,0,0,0,0,41.78,664.059,2284185
0.0238037,-0.0397949,0.989807,0,0.610352,1.34277,0.036,-0.013,-7.18,0.00302124,-0.0383911,0,0,0,0,0,41.78,664.077,2284200
-0.00244141,-0.0586548,1.0462,0.12207,0,0.732422,0.012,-0.034,-7.19,0.00318909,-0.0392303,0,0,0,0,0,41.78,664.097,2284215
0.00567627,0.0570068,0.987976,-2.13623,-0.854492,-1.2207,0.005,0.08,-7.19,0.003479,-0.0405884,0,0,0,0,0,41.78,664.118,2284245
0.0517578,0.0309448,1.03455,-0.976562,-0.488281,0,0.055,0.061,-7.19,0.00366211,-0.0411072,0,0,0,0,0,41.78,664.138,2284260
0.031311,-0.0286255,1.05524,0.366211,-0.671387,0.427246,0.042,0,-7.17,0.00401306,-0.0415802,0,0,0,0,0,41.78,664.158,2284290
-0.0479126,0.168457,0.893372,0.549316,-0.854492,-1.34277,-0.062,0.18,-7.16,0.00418091,-0.0414581,0,0,0,0,0,41.78,664.177,2284305
0.0485229,0.183594,0.99054,1.70898,-0.976562,-1.0376,0.032,0.21,-7.15,0.0043335,-0.0410767,0,0,0,0,0,41.78,664.198,2284320
-0.0144043,-0.106262,1.05121,-1.0376,-1.34277,-2.50244,0.006,-0.084,-7.12,0.00450134,-0.0405884,0,0,0,0,0,41.78,664.218,2284335
0.00543213,-0.0471191,0.959595,-1.40381,-1.40381,-1.58691,0.017,-0.025,-7.09,0.00497437,-0.0398102,0,0,0,0,0,41.78,664.238,2284365
0.0340576,-0.0263672,0.982605,-0.488281,-1.89209,-0.854492,0.043,-0.001,-7.07,0.00527954,-0.039444,0,0,0,0,0,41.78,664.261,2284380
-0.0305786,-0.00994873,0.987244,0.0610352,-0.671387,-2.13623,-0.022,0.007,-7.05,0.00559998,-0.0390778,0,0,0,0,0,41.78,664.28,2284395
-0.0296021,-0.109741,1.0213,-0.183105,-0.183105,-1.40381,-0.008,-0.091,-7.01,0.00590515,-0.0386353,0,0,0,0,0,41.78,664.299,2284425
-0.0134888,-0.0790405,0.996277,-0.0610352,-0.305176,-1.46484,0.003,-0.059,-6.98,0.00590515,-0.0385742,0,0,0,0,0,41.78,664.317,2284440
0.0280151,0.00152588,1.01447,0.244141,1.34277,-0.427246,0.034,0.026,-6.98,0.00593567,-0.0385437,0,0,0,0,0,41.78,664.338,2284455
0.0499268,0.0319824,1.05249,0.0610352,0.305176,-1.52588,0.053,0.059,-6.95,0.00608826,-0.0383453,0,0,0,0,0,41.78,664.357,2284485
-0.0449829,-0.222778,1.05212,0,0.610352,-1.34277,-0.009,-0.205,-6.93,0.00622559,-0.0383148,0,0,0,0,0,41.78,664.378,2284500
-0.00354004,-0.148132,1.1283,1.09863,2.13623,0.244141,0.022,-0.124,-6.93,0.00636292,-0.0385132,0,0,0,0,0,41.78,664.398,2284515
0.0152588,0.0275269,1.06519,-0.549316,0.610352,1.52588,0.02,0.05,-6.94,0.00660706,-0.0393219,0,0,0,0,0,41.78,664.417,2284545
-0.057251,-0.112976,1.01752,-0.488281,0.427246,0.488281,-0.035,-0.098,-6.95,0.00672913,-0.0397797,0,0,0,0,0,41.78,664.438,2284560
0.0167236,0.0545044,1.05969,-1.15967,-0.793457,-0.671387,0.018,0.077,-6.95,0.00679016,-0.0407715,0,0,0,0,0,41.78,664.461,2284590
0.039978,-0.0692749,1.12524,-1.77002,0.610352,0.671387,0.056,-0.04,-6.95,0.00686646,-0.041214,0,0,0,0,0,41.78,664.49,2284605
0.0596313,0.0578003,1.07898,0.854492,0.427246,-0.549316,0.06,0.086,-6.95,0.00701904,-0.0418396,0,0,0,0,0,41.78,664.52,2284635
0.000610352,0.076416,0.997375,-0.244141,-0.976562,-1.52588,-0.001,0.096,-6.9,0.00726318,-0.0419922,0,0,0,0,0,41.78,664.539,2284665
-0.0475464,-0.0982056,1.06665,-2.0752,0.732422,-1.46484,-0.027,-0.08,-6.89,0.00737,-0.0419922,0,0,0,0,0,41.78,664.56,2284681
-0.00817871,-0.0557251,1.02863,-0.610352,-0.488281,-0.671387,0.006,-0.034,-6.87,0.00747681,-0.0420837,0,0,0,0,0,41.78,664.579,2284695
-0.00750732,0.0307007,0.904663,-1.2207,-1.34277,-0.366211,-0.004,0.049,-6.88,0.00756836,-0.0424194,0,0,0,0,0,41.78,664.599,2284725
0.0137939,-0.0734253,1.20251,-0.0610352,-0.305176,0.488281,0.031,-0.044,-6.88,0.00759888,-0.0426025,0,0,0,0,0,41.78,664.618,2284741
-0.015686,-0.172424,0.978088,-2.92969,-1.70898,0.793457,0.012,-0.152,-6.9,0.00764465,-0.0429077,0,0,0,0,0,41.78,664.638,2284755
-0.0452271,0.0133057,0.954346,1.28174,-0.732422,-0.12207,-0.04,0.028,-6.9,0.00787354,-0.0435028,0,0,0,0,0,41.78,664.657,2284785
0.0404053,-0.0519409,1.13843,0.671387,-0.427246,-0.488281,0.053,-0.022,-6.89,0.00801086,-0.0437469,0,0,0,0,0,41.78,664.681,2284801
0.0371704,-0.132019,1.06085,-0.915527,-0.488281,-1.46484,0.059,-0.104,-6.87,0.00822449,-0.0440979,0,0,0,0,0,41.78,664.697,2284815
-0.0511475,-0.439575,1.31824,-2.31934,2.19727,-1.95312,0.009,-0.415,-6.83,0.00848389,-0.0454102,0,0,0,0,0,41.78,664.717,2284845
-0.0686035,-0.0322876,1.15985,-1.09863,3.23486,-1.34277,-0.057,-0.015,-6.8,0.00845337,-0.0465393,0,0,0,0,0,41.78,664.738,2284861
-0.0183716,-0.0445557,0.975403,-0.915527,-0.427246,-0.610352,-0.007,-0.024,-6.78,0.00837708,-0.047699,0,0,0,0,0,41.78,664.757,2284875
-0.046875,-0.120056,1.04144,1.34277,1.58691,-2.2583,-0.025,-0.102,-6.74,0.00817871,-0.0501251,0,0,0,0,0,41.78,664.778,2284905
0.031189,0.0594482,1.00513,-0.427246,-0.854492,-0.488281,0.03,0.084,-6.72,0.00808716,-0.0513916,0,0,0,0,0,41.78,664.797,2284921
0.00177002,-0.0703735,0.979126,-0.610352,0.0610352,-1.77002,0.015,-0.048,-6.7,0.00801086,-0.0526276,0,0,0,0,0,41.78,664.819,2284935
-0.0355225,-0.184143,1.10297,-0.854492,-0.0610352,1.34277,-0.006,-0.163,-6.7,0.00801086,-0.0554199,0,0,0,0,0,41.78,664.838,2284965
-0.0581055,-0.191223,1.08508,1.40381,0.244141,0.610352,-0.028,-0.173,-6.7,0.00798035,-0.0571136,0,0,0,0,0,41.78,664.858,2284981
-0.0529785,-0.249084,1.08667,-0.0610352,1.28174,-0.244141,-0.016,-0.231,-6.7,0.00793457,-0.059082,0,0,0,0,0,41.78,664.877,2284995
-0.0200195,0.104187,1.03674,1.52588,-0.427246,-0.854492,-0.025,0.122,-6.7,0.00769043,-0.0635529,0,0,0,0,0,41.78,664.897,2285025
0.00714111,0.00341797,1.03046,1.09863,-0.732422,0.427246,0.013,0.025,-6.69,0.00752258,-0.0656891,0,0,0,0,0,41.78,664.918,2285041
-0.0231323,0.0197144,1.07196,1.28174,-0.0610352,-0.610352,-0.018,0.038,-6.7,0.00752258,-0.0677948,0,0,0,0,0,41.78,664.94,2285055
-0.0968628,0.0615234,0.953308,4.94385,-0.12207,-2.2583,-0.097,0.068,-6.67,0.00747681,-0.0721283,0,0,0,0,0,41.78,664.96,2285085
-0.129883,-0.609619,1.21381,0.488281,2.0752,-0.488281,-0.05,-0.598,-6.66,0.00732422,-0.0746765,0,0,0,0,0,41.78,664.978,2285101
-0.0756836,-0.0111694,1.22675,0.793457,2.50244,-0.793457,-0.066,0.002,-6.63,0.00709534,-0.0776367,0,0,0,0,0,41.78,664.998,2285115
-0.00164795,0.0754395,1.02008,1.40381,0.488281,-2.2583,-0.003,0.092,-6.58,0.00648499,-0.0834351,0,0,0,0,0,41.75,665.018,2285145
-0.0610962,-0.366943,1.078,-0.0610352,1.34277,-2.62451,-0.011,-0.353,-6.55,0.00616455,-0.0864716,0,0,0,0,0,41.75,665.038,2285161
0.0334473,0.12323,0.970337,-0.366211,-0.671387,-2.2583,0.025,0.143,-6.48,0.00546265,-0.0929565,0,0,0,0,0,41.75,665.062,2285191
0.0201416,0.0775146,0.966309,0.793457,0.732422,-1.70898,0.017,0.095,-6.45,0.00514221,-0.0959778,0,0,0,0,0,41.75,665.08,2285206
-0.0137939,-0.0579224,0.920593,2.19727,0.183105,-0.976562,0,-0.044,-6.43,0.00514221,-0.0989685,0,0,0,0,0,41.75,665.097,2285221
0.0335083,0.0358887,1.06921,1.83105,0.610352,-1.46484,0.037,0.056,-6.42,0.00517273,-0.101959,0,0,0,0,0,41.75,665.118,2285236
-0.0919189,-0.012207,1.14539,1.34277,2.0752,0,-0.081,-0.004,-6.39,0.00527954,-0.108002,0,0,0,0,0,41.75,665.138,2285266
-0.00836182,-0.0286255,0.97052,-0.610352,0,0.549316,0.002,-0.014,-6.4,0.00527954,-0.111069,0,0,0,0,0,41.75,665.158,2285281
-0.0184326,0.162781,0.973511,0.183105,-0.854492,1.40381,-0.029,0.175,-6.42,0.00524902,-0.114029,0,0,0,0,0,41.75,665.178,2285297
-0.00549316,0.197937,1.00354,0.427246,-0.732422,0.183105,-0.019,0.211,-6.45,0.00521851,-0.119415,0,0,0,0,0,41.75,665.198,2285326
0.0462036,0.116577,0.955811,0.732422,-1.34277,-0.854492,0.04,0.135,-6.45,0.00521851,-0.12178,0,0,0,0,0,41.75,665.218,2285341
0.0452271,0.0140991,1.06708,-0.305176,0,-0.0610352,0.051,0.034,-6.44,0.0052948,-0.124023,0,0,0,0,0,41.75,665.238,2285356
0.0737305,0.0668945,1.07031,-1.2207,0.976562,-1.95312,0.074,0.09,-6.4,0.00556946,-0.128403,0,0,0,0,0,41.75,665.258,2285386
-0.00341797,-0.0419922,0.955322,-2.62451,-0.427246,-2.2583,0.008,-0.027,-6.38,0.00579834,-0.130524,0,0,0,0,0,41.75,665.279,2285401
0.0523071,-0.157776,1.06873,-1.58691,0.671387,-2.62451,0.077,-0.134,-6.34,0.006073,-0.132751,0,0,0,0,0,41.75,665.298,2285416
0.103516,0.29541,0.916626,1.0376,-2.13623,-1.95312,0.078,0.32,-6.3,0.00682068,-0.136871,0,0,0,0,0,41.75,665.32,2285446
0.0126343,0.0670776,0.916382,-1.34277,-1.40381,-0.549316,0.013,0.082,-6.3,0.00727844,-0.138504,0,0,0,0,0,41.75,665.338,2285461
-0.0339966,-0.0910034,0.924561,-0.0610352,-1.09863,-0.976562,-0.015,-0.078,-6.29,0.00772095,-0.140121,0,0,0,0,0,41.75,665.357,2285476
-0.0671997,-0.0182495,0.939636,-0.12207,-1.40381,-0.793457,-0.056,-0.01,-6.29,0.00863647,-0.143265,0,0,0,0,0,41.75,665.378,2285506
-0.039978,-0.0685425,1.03589,0.793457,0.732422,0.671387,-0.023,-0.055,-6.29,0.00901794,-0.144852,0,0,0,0,0,41.75,665.398,2285521
-0.0380859,0.0733032,0.884644,2.01416,0.427246,0.488281,-0.038,0.082,-6.3,0.00935364,-0.146408,0,0,0,0,0,41.75,665.418,2285536
-0.0438843,-0.177307,0.988037,0.427246,1.0376,-1.0376,-0.016,-0.165,-6.29,0.0100555,-0.149628,0,0,0,0,0,41.75,665.438,2285566
0.0149536,0.166809,1.06226,-0.671387,0.244141,-1.15967,0.005,0.184,-6.28,0.0104065,-0.151306,0,0,0,0,0,41.75,665.458,2285581
0.0336914,-0.0446777,0.997253,-2.01416,-0.854492,-1.70898,0.046,-0.024,-6.25,0.010788,-0.152863,0,0,0,0,0,41.75,665.478,2285596
0.039978,0.0637207,1.04163,1.58691,0.244141,-0.915527,0.041,0.084,-6.22,0.0114899,-0.155823,0,0,0,0,0,41.75,665.5,2285626
-0.0558472,0.184387,0.945251,2.86865,1.58691,-2.92969,-0.067,0.192,-6.18,0.0118256,-0.157074,0,0,0,0,0,41.76,665.518,2285641
0.00805664,0.0322266,0.979187,1.58691,-0.366211,-1.52588,0.013,0.048,-6.16,0.0121155,-0.158157,0,0,0,0,0,41.76,665.539,2285656
-0.0362549,-0.107849,1.05566,0,0.732422,-1.58691,-0.014,-0.095,-6.12,0.0121155,-0.160233,0,0,0,0,0,41.76,665.557,2285686
-0.0258179,0.0667114,1.02753,-1.09863,0.610352,0.183105,-0.023,0.079,-6.11,0.012085,-0.161301,0,0,0,0,0,41.76,665.581,2285701
-0.00714111,0.124084,0.964783,-0.732422,-0.854492,0,-0.011,0.137,-6.11,0.0120392,-0.162216,0,0,0,0,0,41.76,665.597,2285716
0.00665283,-0.0806885,1.05731,0.305176,-0.488281,-0.427246,0.024,-0.063,-6.08,0.0118713,-0.163757,0,0,0,0,0,41.76,665.617,2285746
0.0748291,0.253113,0.755066,-3.05176,-2.62451,0.854492,0.054,0.27,-6.08,0.0118408,-0.164368,0,0,0,0,0,41.76,665.638,2285761
0.0727539,0.223633,0.903625,2.74658,-2.2583,-1.95312,0.056,0.243,-6.07,0.0118866,-0.164642,0,0,0,0,0,41.76,665.657,2285776
-0.0373535,-0.114258,0.962646,0.244141,-1.28174,-0.671387,-0.016,-0.104,-6.08,0.0119629,-0.164627,0,0,0,0,0,41.76,665.678,2285806
-0.0109253,0.136597,1.0473,-0.610352,0,-1.40381,-0.016,0.148,-6.06,0.0119629,-0.164581,0,0,0,0,0,41.76,665.699,2285821
-0.0175171,-0.0189209,0.981995,1.2207,-0.0610352,-0.915527,-0.007,-0.007,-6.04,0.0119629,-0.164444,0,0,0,0,0,41.76,665.717,2285836
-0.0314941,-0.11438,1.02362,3.66211,1.46484,-0.671387,-0.01,-0.105,-6.02,0.011795,-0.164581,0,0,0,0,0,41.76,665.738,2285866
-0.0145874,0.0339355,1.02252,3.23486,0.915527,-0.610352,-0.009,0.043,-6.01,0.011673,-0.16478,0,0,0,0,0,41.76,665.758,2285881
-0.0534058,-0.0348511,1.02576,2.62451,0.854492,-2.50244,-0.04,-0.029,-5.98,0.0115204,-0.164978,0,0,0,0,0,41.76,665.779,2285896
0.0791016,0.0157471,1.00482,-0.854492,-0.549316,-2.01416,0.086,0.035,-5.92,0.0110779,-0.165085,0,0,0,0,0,41.76,665.797,2285926
-0.0479126,0.0708008,1.14172,1.95312,1.70898,-3.11279,-0.044,0.078,-5.87,0.01091,-0.164993,0,0,0,0,0,41.76,665.818,2285941
-0.012146,-0.0327759,0.983398,1.09863,1.77002,-1.09863,0,-0.023,-5.85,0.0106964,-0.164871,0,0,0,0,0,41.76,665.838,2285956
-0.0722046,0.0113525,0.966125,2.19727,-0.183105,-1.64795,-0.063,0.013,-5.8,0.0106506,-0.164444,0,0,0,0,0,41.76,665.858,2285986
-0.0322876,0.00775146,1.02814,2.86865,0.305176,0.488281,-0.023,0.014,-5.79,0.0105438,-0.164185,0,0,0,0,0,41.76,665.879,2286002
-0.00488281,-0.0151367,0.952026,0.732422,-0.671387,1.0376,0.005,-0.006,-5.81,0.010437,-0.164185,0,0,0,0,0,41.76,665.899,2286016
0.0334473,0.0118408,0.980225,0.12207,-0.854492,1.40381,0.041,0.024,-5.86,0.0101624,-0.16391,0,0,0,0,0,41.76,665.917,2286046
0.017334,-0.0844727,1.02875,0.854492,0.183105,-0.610352,0.035,-0.073,-5.87,0.00990295,-0.163605,0,0,0,0,0,41.76,665.949,2286076
0.017334,-0.0844727,1.02875,0.854492,0.183105,-0.610352,0.035,-0.073,-5.87,0.00990295,-0.163605,0,0,0,0,0,41.76,665.958,2286076
0.000305176,0.147644,0.960144,3.78418,-1.09863,-2.01416,-0.006,0.155,-5.86,0.00987244,-0.162811,0,0,0,0,0,41.76,665.978,2286106
0.116577,0.182312,0.97644,-0.183105,-1.0376,-1.40381,0.106,0.201,-5.84,0.00993347,-0.162033,0,0,0,0,0,41.76,665.998,2286122
-0.0334473,-0.081665,0.97467,-0.610352,-1.2207,-2.01416,-0.016,-0.077,-5.82,0.0100708,-0.161163,0,0,0,0,0,41.76,666.018,2286136
-0.0272217,0.0584717,0.908752,-1.15967,-0.549316,-1.52588,-0.024,0.062,-5.75,0.0102386,-0.159088,0,0,0,0,0,41.76,666.038,2286166
-0.0758667,-0.00372314,1.10339,1.28174,1.89209,-0.427246,-0.064,-0.002,-5.75,0.0102539,-0.157928,0,0,0,0,0,41.76,666.058,2286182
-0.0449829,0.0973511,0.948792,1.77002,0.12207,-0.0610352,-0.045,0.099,-5.75,0.0101776,-0.156708,0,0,0,0,0,41.76,666.078,2286196
-0.0403442,0.137085,0.96167,0.793457,0.183105,-0.915527,-0.044,0.139,-5.73,0.00993347,-0.153824,0,0,0,0,0,41.76,666.098,2286226
-0.00610352,0.00592041,0.96698,-0.854492,-1.52588,-0.610352,0.002,0.012,-5.72,0.00975037,-0.152206,0,0,0,0,0,41.76,666.118,2286242
-0.0143433,-0.143677,1.0116,-0.427246,-0.427246,1.70898,0.009,-0.136,-5.74,0.00958252,-0.150681,0,0,0,0,0,41.76,666.138,2286256
0.0197754,0.0113525,0.934082,-0.549316,-1.46484,0.793457,0.026,0.02,-5.78,0.00958252,-0.147781,0,0,0,0,0,41.76,666.158,2286286
-0.010437,0.126404,0.994873,-1.2207,-1.70898,0.610352,-0.014,0.132,-5.79,0.00959778,-0.146225,0,0,0,0,0,41.76,666.178,2286302
-0.00744629,0.177185,0.958557,0.427246,-1.0376,0.0610352,-0.017,0.182,-5.78,0.00971985,-0.1427,0,0,0,0,0,41.76,666.206,2286331
-0.0238647,-0.0349731,0.970825,0.610352,-0.488281,-0.366211,-0.012,-0.03,-5.78,0.00978088,-0.140762,0,0,0,0,0,41.76,666.218,2286346
-0.0414429,-0.0869751,1.02417,0.610352,1.64795,-1.89209,-0.024,-0.084,-5.76,0.0098114,-0.138901,0,0,0,0,0,41.76,666.24,2286362
-0.0169678,0.0267334,0.963501,-0.183105,0.854492,-1.09863,-0.012,0.031,-5.71,0.00990295,-0.135513,0,0,0,0,0,41.76,666.259,2286391
-0.100281,-0.318359,1.01965,1.52588,1.77002,-2.68555,-0.06,-0.319,-5.68,0.00991821,-0.134048,0,0,0,0,0,41.76,666.277,2286406
0.0161133,0.131836,1.0318,-0.366211,1.95312,1.77002,0.01,0.14,-5.68,0.00975037,-0.132477,0,0,0,0,0,41.76,666.317,2286436
-0.0249023,0.148499,0.978333,-0.793457,-0.549316,-0.976562,-0.031,0.152,-5.67,0.00964355,-0.131607,0,0,0,0,0,41.76,666.328,2286451
-0.0169678,-0.114136,0.928101,-0.183105,-0.183105,-1.34277,0.001,-0.107,-5.66,0.00950623,-0.130707,0,0,0,0,0,41.76,666.346,2286466
-0.0578613,-0.0206299,0.977173,0.366211,0.915527,-0.366211,-0.047,-0.018,-5.65,0.00933838,-0.129883,0,0,0,0,0,41.76,666.363,2286482
0.0656128,0.136169,0.959473,-0.915527,-1.0376,0.854492,0.059,0.149,-5.63,0.00907898,-0.128036,0,0,0,0,0,41.76,666.394,2286512
-0.0263062,0.0171509,0.998047,-1.89209,0.549316,-0.854492,-0.019,0.021,-5.61,0.00886536,-0.1259,0,0,0,0,0,41.76,666.418,2286542
0.0757446,-0.13208,1.01007,-1.83105,-0.915527,-0.854492,0.096,-0.116,-5.6,0.00880432,-0.124908,0,0,0,0,0,41.76,666.438,2286557
0.00714111,-0.0672607,0.979858,-1.2207,0,-1.58691,0.021,-0.058,-5.57,0.00865173,-0.123199,0,0,0,0,0,41.76,666.458,2286587
0.0351562,0.0910034,1.03394,-0.305176,0.0610352,-0.671387,0.034,0.102,-5.56,0.0085907,-0.12236,0,0,0,0,0,41.76,666.477,2286602
0.00769043,-0.0965576,1.01172,-1.0376,-0.610352,-2.31934,0.024,-0.087,-5.53,0.00857544,-0.121506,0,0,0,0,0,41.76,666.497,2286617
-0.0674438,-0.222656,1.0625,-0.305176,2.86865,-1.95312,-0.037,-0.219,-5.46,0.00846863,-0.120316,0,0,0,0,0,41.76,666.518,2286647
0.0717773,0.0930176,1.02759,-0.183105,0.854492,-1.58691,0.071,0.108,-5.43,0.00842285,-0.119919,0,0,0,0,0,41.74,666.537,2286662
-0.00299072,0.0664062,1.01257,0.305176,-0.0610352,-2.19727,0,0.074,-5.4,0.00840759,-0.1194,0,0,0,0,0,41.74,666.557,2286677
-0.0615845,-0.0802002,0.972778,0.183105,1.58691,-2.99072,-0.045,-0.077,-5.34,0.00837708,-0.118225,0,0,0,0,0,41.74,666.588,2286707
0.000793457,0.0612183,0.997131,-0.549316,0.793457,-0.427246,0.004,0.07,-5.32,0.00831604,-0.117645,0,0,0,0,0,41.74,666.598,2286722
-0.0603638,0.347107,0.865845,2.68555,-0.183105,-0.305176,-0.084,0.348,-5.32,0.00819397,-0.116791,0,0,0,0,0,41.74,666.617,2286737
-0.0697021,-0.0730591,0.947449,3.78418,0.915527,-0.549316,-0.053,-0.069,-5.33,0.00798035,-0.115738,0,0,0,0,0,41.74,666.637,2286752
-0.0406494,-0.121643,1.0589,-0.793457,0.732422,0.610352,-0.018,-0.114,-5.34,0.00737,-0.114029,0,0,0,0,0,41.74,666.658,2286782
-0.0143433,0.0100708,0.940674,0.305176,1.0376,-0.732422,-0.005,0.017,-5.34,0.00701904,-0.113312,0,0,0,0,0,41.74,666.678,2286797
0.0126343,-0.0673828,1.0968,-0.0610352,0.610352,-1.28174,0.03,-0.055,-5.33,0.00646973,-0.111664,0,0,0,0,0,41.74,666.704,2286827
-0.0556641,-0.0213013,0.925598,1.2207,1.95312,-1.2207,-0.044,-0.017,-5.31,0.00622559,-0.11087,0,0,0,0,0,41.74,666.718,2286842
-0.0158691,-0.15387,1.00238,0.366211,0.549316,-2.92969,0.008,-0.144,-5.28,0.00595093,-0.110199,0,0,0,0,0,41.74,666.737,2286857
-0.0351562,-0.052124,1.06726,0.488281,1.0376,-1.83105,-0.018,-0.044,-5.24,0.00567627,-0.1091,0,0,0,0,0,41.74,666.758,2286887
0.000671387,-0.0275879,1.06946,-0.793457,1.28174,0.12207,0.015,-0.016,-5.23,0.00567627,-0.108612,0,0,0,0,0,41.74,666.78,2286902
-0.0703735,-0.0540161,1.13556,0.610352,0.305176,-1.77002,-0.051,-0.048,-5.21,0.00564575,-0.10817,0,0,0,0,0,41.74,666.798,2286917
-0.119202,-0.0479736,1.0022,2.0752,0.976562,-1.58691,-0.102,-0.048,-5.19,0.00549316,-0.107681,0,0,0,0,0,41.74,666.818,2286947
0.0271606,0.188171,0.967712,1.58691,-0.305176,0.488281,0.021,0.199,-5.18,0.00532532,-0.107407,0,0,0,0,0,41.74,666.838,2286962
-0.0328979,-0.0584717,0.992676,-0.549316,0.366211,-0.305176,-0.015,-0.051,-5.19,0.00517273,-0.106201,0,0,0,0,0,41.74,666.862,2286992
-0.0462646,-0.0568237,1.09589,-0.549316,0.549316,-1.2207,-0.028,-0.049,-5.17,0.00514221,-0.105621,0,0,0,0,0,41.74,666.877,2287007
0.034729,0.0176392,1.0639,-1.58691,-0.244141,-0.0610352,0.045,0.031,-5.17,0.00512695,-0.105057,0,0,0,0,0,41.74,666.897,2287022
-0.0341187,-0.053894,1.02911,-0.793457,0.671387,-1.52588,-0.017,-0.045,-5.14,0.00512695,-0.104492,0,0,0,0,0,41.74,666.919,2287037
-0.107239,-0.530762,1.33929,-0.854492,4.63867,-0.488281,-0.043,-0.526,-5.15,0.00494385,-0.10408,0,0,0,0,0,41.74,666.938,2287067
-0.00115967,0.118591,1.11151,2.13623,2.68555,-0.854492,0.001,0.128,-5.11,0.00479126,-0.10437,0,0,0,0,0,41.74,666.958,2287082
-0.0432739,0.0148315,1.06464,-0.366211,0.732422,-1.2207,-0.031,0.021,-5.09,0.00462341,-0.104553,0,0,0,0,0,41.74,666.977,2287097
-0.0961914,-0.0889893,1.04272,0.793457,1.64795,-2.44141,-0.074,-0.086,-5.04,0.00424194,-0.104919,0,0,0,0,0,41.74,666.998,2287127
-0.0231323,0.0810547,0.967712,-0.854492,-0.793457,0.793457,-0.017,0.088,-5.04,0.00396729,-0.105133,0,0,0,0,0,41.74,667.019,2287142
0.00982666,0.0823364,1.0495,-0.244141,-0.915527,-1.77002,0.016,0.093,-5.03,0.00370789,-0.105209,0,0,0,0,0,41.74,667.037,2287157
-0.00463867,-0.138428,1.12262,-1.46484,-0.427246,-0.427246,0.021,-0.127,-5,0.00326538,-0.10556,0,0,0,0,0,41.71,667.058,2287187
-0.00323486,-0.00695801,1.04797,-1.77002,-0.793457,0.305176,0.01,0.002,-5.01,0.00309753,-0.105911,0,0,0,0,0,41.71,667.078,2287202
-0.0303955,-0.0490723,0.987,-1.34277,-1.34277,0.610352,-0.013,-0.041,-5.01,0.00309753,-0.106277,0,0,0,0,0,41.71,667.097,2287217
-0.0838623,0.0391846,0.980835,-1.0376,-1.28174,0.549316,-0.075,0.041,-5.05,0.00315857,-0.107101,0,0,0,0,0,41.71,667.118,2287247
-0.100403,0.457581,1.02649,0.793457,3.60107,1.46484,-0.128,0.456,-5.07,0.0030365,-0.107178,0,0,0,0,0,41.71,667.141,2287262
0.115417,-0.32605,1.18896,-0.793457,3.90625,-5.24902,0.157,-0.302,-5.04,0.00292969,-0.107147,0,0,0,0,0,41.71,667.16,2287277
-0.104187,-0.132568,1.01129,-0.915527,0.12207,0.488281,-0.081,-0.132,-5.08,0.00257874,-0.107773,0,0,0,0,0,41.71,667.178,2287307
-0.00811768,0.0308838,1.01868,-1.2207,-1.40381,1.28174,0,0.04,-5.08,0.0022583,-0.108231,0,0,0,0,0,41.71,667.198,2287323
-0.0650024,0.188965,1.09802,-2.19727,0.854492,0.793457,-0.07,0.194,-5.11,0.00189209,-0.108521,0,0,0,0,0,41.71,667.219,2287337
-0.0415649,-0.150146,1.02972,-1.34277,0.12207,0.976562,-0.017,-0.142,-5.14,0.00119019,-0.10936,0,0,0,0,0,41.71,667.238,2287367
-0.081665,-0.013855,1.00958,3.05176,1.34277,0.732422,-0.069,-0.01,-5.14,0.000793457,-0.110016,0,0,0,0,0,41.71,667.257,2287383
-0.185852,-0.555359,1.31915,1.52588,5.24902,-0.549316,-0.121,-0.556,-5.14,0.000274658,-0.111038,0,0,0,0,0,41.71,667.278,2287397
0.00396729,-0.0515747,0.978027,-2.2583,-1.34277,0.732422,0.019,-0.04,-5.15,-0.00105286,-0.11409,0,0,0,0,0,41.71,667.298,2287427
0.00720215,0.12323,1.01935,-2.01416,-1.15967,2.31934,0.006,0.135,-5.18,-0.00172424,-0.115601,0,0,0,0,0,41.71,667.317,2287443
-0.112,-0.0109253,0.981567,-2.13623,-0.793457,1.28174,-0.099,-0.008,-5.2,-0.00244141,-0.117004,0,0,0,0,0,41.71,667.338,2287457
-0.0691528,0.192627,0.971497,0.366211,-1.64795,0.488281,-0.076,0.197,-5.24,-0.0039978,-0.116882,0,0,0,0,0,41.71,667.357,2287487
-0.00823975,-0.0896606,1.02496,-0.976562,-0.793457,0.854492,0.01,-0.077,-5.25,-0.00483704,-0.116669,0,0,0,0,0,41.71,667.378,2287503
-0.0244751,-0.0148926,1.04401,-0.732422,0.305176,-0.366211,-0.012,-0.004,-5.25,-0.00566101,-0.116516,0,0,0,0,0,41.71,667.398,2287517
0.0217285,0.0043335,1.06879,-1.2207,-0.732422,-0.976562,0.031,0.02,-5.25,-0.00714111,-0.115875,0,0,0,0,0,41.71,667.418,2287547
-0.135742,-0.0769043,0.929199,-2.13623,2.92969,0.12207,-0.119,-0.076,-5.26,-0.00788879,-0.115524,0,0,0,0,0,41.71,667.44,2287563
0.0331421,-0.109863,1.03339,-3.479,0.183105,-0.671387,0.053,-0.091,-5.24,-0.00868225,-0.115295,0,0,0,0,0,41.71,667.458,2287577
-0.0118408,-0.0174561,1.01282,0,-1.46484,0.732422,0,-0.003,-5.3,-0.00946045,-0.114777,0,0,0,0,0,41.71,667.479,2287607
0.0743408,0.0710449,0.904968,-1.77002,-1.52588,1.70898,0.076,0.091,-5.32,-0.00939941,-0.114426,0,0,0,0,0,41.71,667.497,2287623
-0.0848999,0.0189209,0.993286,-0.610352,-0.854492,-1.15967,-0.076,0.026,-5.33,-0.00935364,-0.113983,0,0,0,0,0,41.71,667.52,2287637
-0.069397,-0.100769,0.97937,-2.38037,-0.915527,-0.976562,-0.05,-0.09,-5.32,-0.00926208,-0.113113,0,0,0,0,0,41.71,667.537,2287667
0.0634766,-0.0563354,1.02606,-1.70898,-2.01416,1.15967,0.078,-0.033,-5.33,-0.00920105,-0.112778,0,0,0,0,0,41.74,667.558,2287683
-0.0524902,0.00189209,1.07507,-1.2207,-2.01416,0.244141,-0.042,0.015,-5.34,-0.0091095,-0.112457,0,0,0,0,0,41.74,667.578,2287697
0.0822144,-0.194397,1.14014,-5.18799,-1.46484,-0.0610352,0.109,-0.167,-5.34,-0.00868225,-0.112061,0,0,0,0,0,41.74,667.599,2287727
0.0593262,0.0909424,0.970764,-2.13623,-0.427246,-3.17383,0.058,0.113,-5.3,-0.00827026,-0.111984,0,0,0,0,0,41.74,667.618,2287743
0.0146484,0.0895996,1.02618,-1.09863,-2.44141,-6.22559,0.014,0.108,-5.22,-0.0078125,-0.111755,0,0,0,0,0,41.74,667.639,2287757
-0.0560913,-0.210022,1.15045,0.549316,2.01416,-8.30078,-0.028,-0.194,-5.01,-0.00679016,-0.11113,0,0,0,0,0,41.74,667.659,2287787
-0.0155029,-0.0458374,0.962524,1.0376,2.44141,-6.65283,-0.003,-0.03,-4.91,-0.00628662,-0.110992,0,0,0,0,0,41.74,667.678,2287803
-0.0726929,-0.0908813,1.02673,0,1.83105,-7.56836,-0.056,-0.079,-4.79,-0.0058136,-0.110947,0,0,0,0,0,41.74,667.701,2287817
0.00793457,0.0532227,0.978271,0,0.366211,-8.05664,0.011,0.07,-4.59,-0.00492859,-0.110718,0,0,0,0,0,41.74,667.718,2287848
-0.127197,-0.0722046,1.01013,-1.2207,2.19727,-7.20215,-0.112,-0.064,-4.47,-0.00454712,-0.11055,0,0,0,0,0,41.74,667.738,2287863
0.0791016,0.101196,1.03253,-1.2207,-2.31934,-6.22559,0.08,0.125,-4.37,-0.00418091,-0.110336,0,0,0,0,0,41.74,667.758,2287878
-0.0406494,0.00494385,1.01508,0.915527,-0.366211,-7.26318,-0.031,0.019,-4.15,-0.00340271,-0.109909,0,0,0,0,0,41.74,667.779,2287908
-0.0055542,0.079834,0.873779,-2.01416,-0.305176,-7.20215,-0.002,0.095,-4.05,-0.00305176,-0.109634,0,0,0,0,0,41.74,667.798,2287923
-0.122559,-0.00360107,1.03046,0.976562,1.70898,-9.8877,-0.112,0.005,-3.92,-0.0027771,-0.109299,0,0,0,0,0,41.74,667.818,2287938
-0.161072,-0.397705,1.23535,0.427246,1.70898,-14.5874,-0.124,-0.385,-3.53,-0.00244141,-0.109024,0,0,0,0,0,41.74,667.839,2287968
-0.0576782,0.03479,1.12549,4.02832,1.34277,-15.3198,-0.049,0.05,-3.28,-0.00242615,-0.109283,0,0,0,0,0,41.74,667.858,2287983
0.106384,-0.0256348,1.12225,2.74658,0.976562,-16.9067,0.118,-0.001,-3.04,-0.00236511,-0.109482,0,0,0,0,0,41.74,667.878,2287998
-0.14624,0.00238037,1.18878,8.36182,-0.610352,-11.2915,-0.135,0.011,-2.61,-0.0020752,-0.109726,0,0,0,0,0,41.74,667.898,2288028
-0.013855,-0.00952148,0.974976,3.2959,-0.366211,-2.74658,-0.004,0,-2.54,-0.00204468,-0.109802,0,0,0,0,0,41.74,667.918,2288043
-0.0569458,0.0817871,1.04968,5.67627,0.366211,-4.5166,-0.05,0.089,-2.47,-0.00205994,-0.109818,0,0,0,0,0,41.74,667.938,2288058
-0.155457,-0.0215454,0.988464,-4.45557,-13.4888,-0.366211,-0.146,-0.02,-2.48,-0.00256348,-0.109802,0,0,0,0,0,41.74,667.96,2288088
-0.175964,-0.0430908,0.783264,-11.1084,-16.2354,-4.63867,-0.17,-0.042,-2.44,-0.00312805,-0.109863,0,0,0,0,0,41.74,667.977,2288103
-0.121582,0.0224609,0.77002,-13.977,-18.0664,-8.17871,-0.12,0.028,-2.33,-0.00389099,-0.10994,0,0,0,0,0,41.74,667.998,2288118
0.104431,0.0839233,1.09363,-23.5596,-12.5732,-23.2544,0.096,0.114,-1.81,-0.00563049,-0.110123,0,0,0,0,0,41.74,668.018,2288148
0.055603,0.0244751,1.22565,-25.7568,-16.7847,-28.8696,0.043,0.061,-1.4,-0.00639343,-0.110077,0,0,0,0,0,41.74,668.037,2288163
0.03125,0.104797,1.19598,-24.292,-16.7236,-34.1797,0.012,0.147,-0.92,-0.00712585,-0.109909,0,0,0,0,0,41.74,668.058,2288178
0.0976562,0.103821,0.779358,-24.5361,-16.8457,-45.9595,0.079,0.138,0.35,-0.00840759,-0.10907,0,0,0,0,0,41.73,668.078,2288208
0.00634766,0.0175171,0.848572,-24.7192,-11.1694,-50.0488,-0.017,0.06,1.09,-0.00897217,-0.108429,0,0,0,0,0,41.73,668.098,2288223
0.127686,0.319519,0.849182,-15.9302,-8.97217,-54.0161,0.113,0.363,1.9,-0.00946045,-0.107513,0,0,0,0,0,41.73,668.118,2288238
0.219238,-0.124634,0.754578,-15.1367,-6.16455,-52.8564,0.185,-0.089,3.5,-0.00996399,-0.105225,0,0,0,0,0,41.73,668.139,2288268
0.0987549,-0.184998,0.92157,-13.2446,-2.56348,-48.0347,0.052,-0.128,4.25,-0.00996399,-0.104248,0,0,0,0,0,41.73,668.158,2288283
0.0772095,-0.0655518,1.02454,-8.23975,3.05176,-43.7012,0.035,0.001,4.93,-0.00990295,-0.103363,0,0,0,0,0,41.73,668.178,2288298
0.130981,-0.156433,1.01746,-1.40381,6.22559,-38.3301,0.08,-0.093,5.53,-0.00975037,-0.102539,0,0,0,0,0,41.73,668.198,2288313
-0.0088501,-0.0870972,0.977112,4.45557,10.5591,-28.1372,-0.048,-0.012,6.49,-0.00942993,-0.10141,0,0,0,0,0,41.73,668.218,2288343
0.169312,-0.136841,0.954773,8.11768,12.8784,-22.9492,0.124,-0.085,6.86,-0.00923157,-0.100967,0,0,0,0,0,41.73,668.238,2288358
0.060791,-0.0457764,1.014651,1.9019,13.0005,-15.686,0.03,0.015,7.38,-0.00857544,-0.100357,0,0,0,0,0,41.73,668.259,2288388
0.0754395,-0.00299072,0.9883421,0.498,11.9629,-19.6533,0.054,0.051,7.65,-0.00814819,-0.100021,0,0,0,0,0,41.73,668.278,2288403
-0.000915527,-0.193359,1.082951,0.0098,12.085,-22.583,-0.047,-0.123,7.96,-0.00773621,-0.0997467,0,0,0,0,0,41.73,668.298,2288418
-0.11322,-0.125366,0.96521,-5.49316,11.4136,-36.0107,-0.142,-0.047,8.84,-0.00692749,-0.0992889,0,0,0,0,0,41.73,668.318,2288448
-0.0455933,-0.0475464,1.03168,-4.57764,8.72803,-40.1001,-0.061,0.024,9.42,-0.00669861,-0.0990753,0,0,0,0,0,41.73,668.338,2288463
0.0377808,0.0268555,1.02655,-0.549316,6.89697,-45.3491,0.036,0.083,10.06,-0.00648499,-0.0987854,0,0,0,0,0,41.73,668.358,2288478
-0.0147095,-0.0928955,0.960999,2.2583,5.00488,-56.4575,-0.034,-0.03,11.56,-0.00610352,-0.0982971,0,0,0,0,0,41.73,668.378,2288508
0.0189209,0.010498,1.06256,6.89697,3.479,-57.8003,0.021,0.068,12.43,-0.00593567,-0.0980682,0,0,0,0,0,41.73,668.398,2288523
0.0542603,-0.0755615,1.03271,5.67627,7.69043,-58.2886,0.038,-0.027,13.3,-0.0057373,-0.0978088,0,0,0,0,0,41.73,668.418,2288538
0.110901,-0.0469971,1.05615,9.52148,8.05664,-62.1338,0.098,-0.019,15.09,-0.00534058,-0.0974884,0,0,0,0,0,41.73,668.439,2288568
-0.000366211,-0.227783,1.14008,6.7749,12.085,-66.6504,-0.057,-0.163,16.08,-0.00511169,-0.0974884,0,0,0,0,0,41.73,668.459,2288583
0.0259399,-0.153992,1.03589,7.38525,14.8315,-64.6973,-0.012,-0.106,17.07,-0.00492859,-0.0976562,0,0,0,0,0,41.73,668.479,2288598
-0.0443115,-0.098999,0.9614261,3.916,26.001,-64.1479,-0.06,-0.04,19.01,-0.00427246,-0.0983276,0,0,0,0,0,41.73,668.499,2288628
0.20343,0.0821533,0.9350592,4.9634,31.6772,-57.1289,0.238,0.039,19.91,-0.00379944,-0.0986938,0,0,0,0,0,41.73,668.519,2288643
-0.0219727,-0.0457764,1.039612,6.062,26.9775,-56.3354,-0.011,-0.009,20.75,-0.00315857,-0.0990448,0,0,0,0,0,41.73,668.537,2288658
-0.0466919,-0.10791,1.196231,2.2681,12.207,-63.7207,-0.053,-0.06,21.68,-0.00257874,-0.0994415,0,0,0,0,0,41.73,668.557,2288673
-0.474243,0.0795898,0.959167,7.93457,10.8032,-66.7114,-0.37,0.272,23.61,-0.00238037,-0.0997314,0,0,0,0,0,41.73,668.577,2288704
-0.358826,-0.0497437,0.941101,2.0752,0.610352,-74.0967,-0.311,0.112,24.69,-0.00299072,-0.0994568,0,0,0,0,0,41.73,668.598,2288718
-0.180237,-0.0110474,1.0603,-4.15039,-5.7373,-74.2188,-0.124,0.078,26.85,-0.00476074,-0.0983887,0,0,0,0,0,41.73,668.618,2288748
0.133972,0.167908,1.14795,-2.80762,-10.0708,-73.3032,0.24,0.092,27.96,-0.00563049,-0.0976562,0,0,0,0,0,41.73,668.639,2288764
0.0797119,-0.00622559,1.02631,-1.09863,-3.84521,-78.3691,0.103,-0.038,29.11,-0.0062561,-0.0968781,0,0,0,0,0,41.73,668.657,2288778
0.065979,-0.0343628,0.969971,-1.89209,-0.244141,-80.6274,0.07,-0.055,31.52,-0.00735474,-0.0954895,0,0,0,0,0,41.73,668.677,2288808
-0.0379639,-0.0447388,0.959473,-3.54004,2.31934,-78.6133,-0.022,-0.008,32.72,-0.00785828,-0.0948639,0,0,0,0,0,41.73,668.697,2288824
-0.128235,0.000549316,1.14569,-5.31006,2.2583,-79.895,-0.064,0.082,33.9,-0.00840759,-0.0941925,0,0,0,0,0,41.73,668.717,2288838
-0.0144043,0.0195923,1.08655,-5.61523,2.80762,-82.7026,0.04,0.034,35.12,-0.00898743,-0.0934448,0,0,0,0,0,41.73,668.738,2288853
-0.122375,-0.0977173,1.0329,-0.244141,3.72314,-80.0171,-0.115,0.007,37.48,-0.0100555,-0.0917511,0,0,0,0,0,41.73,668.76,2288884
-0.0751953,-0.0472412,1.05054,-2.92969,1.77002,-79.0405,-0.045,0.019,38.67,-0.0107269,-0.0908661,0,0,0,0,0,41.73,668.778,2288898
-0.117493,-0.0876465,0.996094,-1.0376,3.17383,-74.2188,-0.104,0.017,39.81,-0.0114899,-0.0908661,0,0,0,0,0,41.73,668.798,2288913
-0.074646,-0.218445,1.0094,-0.366211,1.95312,-76.6602,-0.158,-0.103,42.09,-0.0132599,-0.0909424,0,0,0,0,0,41.73,668.817,2288944
-0.0147705,-0.0753784,0.989441,-0.366211,1.15967,-73.6694,-0.019,-0.036,43.21,-0.0142975,-0.0911102,0,0,0,0,0,41.73,668.837,2288958
0.0370483,0.0160522,1.04669,-2.01416,0.732422,-73.7305,0.083,-0.005,44.31,-0.0153046,-0.0912933,0,0,0,0,0,41.73,668.858,2288973
-0.0199585,-0.0405273,1.02167,0.12207,1.40381,-72.998,0.002,-0.005,46.55,-0.0171356,-0.0916138,0,0,0,0,0,41.73,668.877,2289004
-0.0974731,0.0759277,0.700623,0.610352,1.28174,-71.167,0.022,0.128,47.63,-0.0180054,-0.0916901,0,0,0,0,0,41.73,668.9,2289018
-0.0524902,0.114136,0.882935,1.34277,0.976562,-73.1812,0.091,0.12,48.7,-0.0188141,-0.0915833,0,0,0,0,0,41.73,668.917,2289033
-0.0407715,-0.0507202,0.976746,1.34277,3.60107,-73.4863,-0.019,0.004,50.92,-0.0202332,-0.0910034,0,0,0,0,0,41.73,668.939,2289064
-0.0345459,-0.0301514,0.96167,1.83105,2.86865,-74.1577,0,0.012,52.03,-0.0209656,-0.0906677,0,0,0,0,0,41.73,668.957,2289078
-0.0249634,-0.00231934,1.11023,0.427246,2.86865,-74.4019,0.035,0.021,54.26,-0.0209351,-0.0898895,0,0,0,0,0,41.73,668.978,2289108
-0.132629,0.145813,1.06342,4.02832,3.41797,-74.7681,0.094,0.194,55.39,-0.0208282,-0.089325,0,0,0,0,0,41.73,668.998,2289124
0.0648804,-0.0284424,1.08179,0.488281,0.610352,-75.9277,0.062,-0.068,56.52,-0.0205994,-0.0886841,0,0,0,0,0,41.73,669.018,2289138
0.0132446,-0.160828,1.02643,-2.19727,1.40381,-74.8291,-0.082,-0.095,58.76,-0.0201263,-0.0876312,0,0,0,0,0,41.73,669.038,2289169
-0.14502,0.101318,1.0755,1.46484,3.54004,-75.1343,0.066,0.175,59.9,-0.0199127,-0.0871124,0,0,0,0,0,41.73,669.058,2289184
-0.0351562,-0.00616455,1.0661,-1.15967,0.549316,-75.0122,0.029,0.026,61.02,-0.0196533,-0.086441,0,0,0,0,0,41.73,669.08,2289199
0.0246582,-0.0297852,0.848145,-1.0376,-0.12207,-76.8433,0.026,-0.037,62.16,-0.0193481,-0.0857697,0,0,0,0,0,41.75,669.098,2289214
0.0526123,0.0245972,1.13141,-0.366211,0,-77.5757,0.099,-0.04,64.47,-0.0187225,-0.0844269,0,0,0,0,0,41.75,669.118,2289244
-0.048645,0.15741,1.01892,1.52588,2.13623,-77.8809,0.173,0.105,65.64,-0.0182037,-0.0837097,0,0,0,0,0,41.75,669.141,2289259
0.0151978,0.0695801,0.954285,0.305176,0.915527,-78.9185,0.115,0.009,66.82,-0.0175018,-0.082901,0,0,0,0,0,41.75,669.158,2289274
-0.12793,-0.0598755,1.04736,0.671387,3.54004,-81.9092,-0.051,0.092,69.25,-0.0159454,-0.0813446,0,0,0,0,0,41.75,669.178,2289304
0.0305786,0.0449219,1.03998,-0.671387,2.86865,-81.604,0.102,-0.02,70.47,-0.015152,-0.0805054,0,0,0,0,0,41.75,669.198,2289319
0.0690308,0.449219,0.606384,-2.62451,-1.52588,-82.9468,0.478,0.061,72.93,-0.0128784,-0.0787354,0,0,0,0,0,41.75,669.218,2289349
0.189575,0.183105,0.966248,0.305176,-2.68555,-85.3882,0.274,-0.141,74.18,-0.0110168,-0.0778809,0,0,0,0,0,41.75,669.237,2289364
0.0960083,0.0307617,1.20801,-0.976562,1.89209,-80.8105,0.111,-0.096,75.39,-0.00889587,-0.077179,0,0,0,0,0,41.75,669.258,2289379
0.266418,-0.155701,1.21838,-6.28662,0.244141,-76.8433,-0.031,-0.309,76.58,-0.00672913,-0.076767,0,0,0,0,0,41.75,669.278,2289394
0.0313721,-0.121521,0.922852,-0.0610352,1.46484,-68.0542,-0.068,-0.065,78.78,-0.00236511,-0.0763397,0,0,0,0,0,41.75,669.298,2289424
-0.0476074,-0.13501,1.0202,0.793457,1.09863,-63.5986,-0.091,0.009,79.75,-0.000289917,-0.0761719,0,0,0,0,0,41.75,669.318,2289439
-0.0134888,0.0423584,0.991089,2.80762,-0.0610352,-61.9507,0.087,0.005,81.63,0.00382996,-0.0759888,0,0,0,0,0,41.75,669.338,2289469
-0.108459,-0.215149,0.989441,3.72314,3.96728,-57.8003,-0.18,0.064,82.5,0.00587463,-0.075943,0,0,0,0,0,41.75,669.358,2289484
-0.0689087,-0.125671,1.03522,3.35693,0.976562,-57.6172,-0.084,0.038,83.36,0.00775146,-0.0758209,0,0,0,0,0,41.75,669.38,2289499
-0.0651855,-0.0583496,1.01404,1.40381,2.13623,-61.7676,-0.017,0.043,84.26,0.009552,-0.0756531,0,0,0,0,0,41.75,669.398,2289514
-0.0244751,0.0893555,0.895508,-1.64795,0.427246,-58.8379,0.129,0.016,86.06,0.0137024,-0.0752258,0,0,0,0,0,41.75,669.418,2289544
-0.00421143,6.10352e-05,1.11694,-1.46484,1.95312,-63.2935,0.051,-0.013,86.98,0.0160217,-0.0752258,0,0,0,0,0,41.75,669.438,2289559
-0.0475464,-0.0571899,1.02625,0.793457,2.44141,-57.5561,-0.011,0.028,88.8,0.0204926,-0.075119,0,0,0,0,0,41.75,669.459,2289589
0.0339966,-0.0703125,0.945801,-0.427246,-0.488281,-59.9365,-0.027,-0.05,89.68,0.0226593,-0.075058,0,0,0,0,0,41.75,669.478,2289604
-0.109375,-0.101135,1.17322,0.915527,1.58691,-61.0962,-0.047,0.089,90.59,0.0247803,-0.0749817,0,0,0,0,0,41.75,669.498,2289619
0.0303345,0.012207,0.890015,-1.58691,0.732422,-55.7251,0.05,-0.047,92.35,0.0285645,-0.0745239,0,0,0,0,0,41.75,669.519,2289649
-0.00817871,0.0101929,1.00165,-1.83105,-0.976562,-53.772,0.055,-0.011,93.18,0.0304718,-0.0743103,0,0,0,0,0,41.75,669.538,2289664
-0.0136108,-0.0441284,1.0553,-4.08936,1.0376,-50.8423,0.005,-0.003,93.94,0.0324097,-0.0743103,0,0,0,0,0,41.75,669.558,2289679
-0.0115967,-0.00274658,1.05432,-3.11279,-1.83105,-48.4619,0.047,-0.008,95.46,0.0364532,-0.0743103,0,0,0,0,0,41.75,669.578,2289709
-0.135986,-0.446411,1.24554,-4.15039,2.50244,-47.5464,-0.37,0.158,96.17,0.0382843,-0.0742035,0,0,0,0,0,41.75,669.598,2289724
-0.117371,-0.434448,1.14453,-1.83105,4.57764,-47.9736,-0.362,0.146,96.89,0.0396271,-0.0738983,0,0,0,0,0,41.75,669.619,2289739
-0.0169678,-0.0723267,0.999268,-2.50244,-0.671387,-44.5557,-0.02,0.006,97.6,0.0406952,-0.0734863,0,0,0,0,0,41.75,669.638,2289754
-0.113831,-0.109985,0.99823,0.732422,1.77002,-42.7856,-0.041,0.109,98.89,0.0428314,-0.0726471,0,0,0,0,0,41.75,669.658,2289784
-0.0610962,-0.184265,1.01465,-1.28174,0.488281,-36.1328,-0.12,0.07,99.47,0.0437775,-0.0720825,0,0,0,0,0,41.75,669.68,2289799
0.0488281,0.0216064,0.990479,-1.83105,-1.34277,-33.6304,0.063,-0.071,100.49,0.0457764,-0.071228,0,0,0,0,0,41.75,669.699,2289829
-0.0415039,0.0151367,1.02472,-1.09863,0.976562,-30.8228,0.075,0.017,100.96,0.0469208,-0.0709076,0,0,0,0,0,41.75,669.718,2289844
-0.0737305,-0.148438,0.998535,-0.854492,1.89209,-31.4941,-0.079,0.081,101.43,0.0480652,-0.0705261,0,0,0,0,0,41.75,669.737,2289859
0.195679,-0.00750732,1.05707,-1.95312,-1.0376,-29.1748,0.007,-0.211,101.88,0.0491638,-0.0702362,0,0,0,0,0,41.75,669.757,2289874
0.0175781,-0.0672607,0.996155,-0.915527,0.12207,-28.6255,-0.017,-0.022,102.76,0.0502625,-0.0697632,0,0,0,0,0,41.75,669.777,2289904
0.00561523,-0.115784,1.02643,-1.64795,1.2207,-30.2124,-0.06,0,103.2,0.0502014,-0.0695038,0,0,0,0,0,41.75,669.797,2289919
-0.0322876,-0.264832,1.01605,-2.38037,0.915527,-31.189,-0.196,0.073,103.66,0.0499725,-0.0691986,0,0,0,0,0,41.75,669.817,2289934
-0.0883789,-0.146484,1.03131,1.0376,2.0752,-30.5176,-0.066,0.101,104.57,0.0491486,-0.068573,0,0,0,0,0,41.75,669.838,2289964
0.0328369,-0.0983887,1.03455,0.366211,0.793457,-30.2734,-0.05,-0.026,105.03,0.0486298,-0.0681763,0,0,0,0,0,41.75,669.858,2289979
0.0408325,0.0689697,1.04187,-1.83105,-0.0610352,-29.2358,0.109,-0.078,105.48,0.0481415,-0.0678711,0,0,0,0,0,41.75,669.877,2289994
0.000732422,-0.165588,0.986084,-0.366211,1.58691,-30.7617,-0.108,0.026,106.39,0.0470734,-0.0673218,0,0,0,0,0,41.75,669.897,2290025
-0.0204468,-0.282532,1.00916,-0.305176,1.64795,-31.4941,-0.213,0.08,106.87,0.0462494,-0.0669556,0,0,0,0,0,41.75,669.917,2290039
-0.0570679,0.083374,1.07733,1.95312,2.56348,-29.9072,0.151,0.007,107.78,0.044342,-0.0655975,0,0,0,0,0,41.75,669.937,2290069
0.0164795,-0.0708008,1.01703,-0.732422,1.89209,-28.8696,-0.021,-0.015,108.23,0.0435028,-0.0648346,0,0,0,0,0,41.75,669.958,2290085
-0.0253296,-0.0310669,1.05499,1.09863,2.74658,-28.8696,0.031,0.011,108.66,0.0426788,-0.0648346,0,0,0,0,0,41.75,669.978,2290099
-0.0215454,0.0185547,0.923462,1.70898,1.40381,-29.1748,0.07,-0.005,109.1,0.0419312,-0.0648346,0,0,0,0,0,41.75,669.998,2290114
-0.0514526,-0.125854,1.0827,0.366211,1.77002,-29.3579,-0.048,0.068,109.95,0.0404053,-0.0649109,0,0,0,0,0,41.75,670.017,2290145
-0.0750122,-0.0709229,0.941895,0.0610352,1.28174,-28.8086,0.005,0.074,110.39,0.039566,-0.0648499,0,0,0,0,0,41.75,670.038,2290159
0.0201416,0.0213623,1.01892,-0.244141,-1.40381,-29.6631,0.062,-0.048,110.82,0.0387878,-0.0647736,0,0,0,0,0,41.75,670.057,2290174
0.0310669,0.118347,1.03662,-0.854492,1.09863,-30.7617,0.148,-0.095,111.74,0.0377808,-0.0648499,0,0,0,0,0,41.75,670.079,2290205
-0.0725098,-0.114319,1.05548,0.488281,1.0376,-31.311,-0.028,0.087,112.21,0.0374756,-0.0649567,0,0,0,0,0,41.75,670.098,2290219
0.0022583,-0.0645752,1.06012,0.732422,1.58691,-30.6396,-0.009,0,112.67,0.0371399,-0.0649872,0,0,0,0,0,41.74,670.118,2290234
-0.0317993,0.13678,0.883423,0.305176,-1.40381,-31.5552,0.179,-0.044,113.62,0.0366669,-0.0653687,0,0,0,0,0,41.74,670.138,2290265
0.0598755,-0.123413,0.944519,-1.2207,-1.40381,-33.5693,-0.093,-0.022,114.58,0.0365448,-0.0660706,0,0,0,0,0,41.74,670.165,2290294
0.0168457,0.154053,1.04645,-0.366211,1.2207,-30.2734,0.18,-0.102,115.06,0.0365143,-0.0665436,0,0,0,0,0,41.74,670.183,2290309
0.0844727,-0.000732422,0.965088,0.0610352,1.70898,-32.7759,0.007,-0.096,115.53,0.0366211,-0.0671539,0,0,0,0,0,41.74,670.207,2290325
0.0516357,-0.23291,1.04065,-0.305176,-0.488281,-32.7759,-0.184,0.033,116.03,0.0366058,-0.0678101,0,0,0,0,0,41.74,670.218,2290339
0.156616,0.038147,0.941589,-2.86865,-0.488281,-32.7148,0.005,-0.177,117,0.0364532,-0.0691376,0,0,0,0,0,41.74,670.238,2290369
0.191223,-0.0228271,1.02594,-4.08936,0.183105,-30.2124,-0.062,-0.182,117.48,0.0363617,-0.0701141,0,0,0,0,0,41.74,670.258,2290385
-0.0759277,-0.00164795,0.96405,1.70898,2.01416,-29.1748,0.076,0.046,117.92,0.0362854,-0.071167,0,0,0,0,0,41.74,670.278,2290399
-0.0103149,-0.0593262,1.05304,5.5542,0.366211,-30.7617,-0.004,0.016,118.76,0.0363312,-0.0735931,0,0,0,0,0,41.74,670.301,2290429
-0.00378418,-0.0166016,1.02417,5.24902,-0.427246,-31.9824,0.026,-0.008,119.25,0.0363922,-0.0735931,0,0,0,0,0,41.74,670.319,2290445
0.0391846,-0.0192261,0.995361,2.2583,0.305176,-32.2876,0.001,-0.044,119.73,0.0364685,-0.0736237,0,0,0,0,0,41.74,670.342,2290459
0.0585327,0.0213013,0.952942,0.305176,0.183105,-35.7056,0.023,-0.079,120.24,0.0365601,-0.0737457,0,0,0,0,0,41.74,670.358,2290474
0.0403442,0.0206299,1.0462,-3.11279,2.19727,-36.438,0.034,-0.065,121.36,0.03685,-0.0740662,0,0,0,0,0,41.74,670.38,2290505
-0.0116577,-0.0128174,1.01935,-2.01416,3.23486,-40.2832,0.031,-0.003,122.54,0.0373688,-0.074646,0,0,0,0,0,41.74,670.405,2290535
-0.0116577,-0.0128174,1.01935,-2.01416,3.23486,-40.2832,0.031,-0.003,122.54,0.0373688,-0.074646,0,0,0,0,0,41.74,670.418,2290535
-0.00469971,0.0160522,1.13831,-2.0752,2.50244,-42.1753,0.056,-0.029,123.75,0.0380554,-0.0754852,0,0,0,0,0,41.74,670.438,2290565
-0.0424194,-0.145264,1.14801,-1.34277,4.88281,-39.917,-0.056,0.091,124.36,0.0384216,-0.0758972,0,0,0,0,0,41.74,670.458,2290580
-0.0263672,-0.0991821,0.926025,-0.976562,4.45557,-36.377,-0.033,0.056,124.92,0.0387268,-0.0762024,0,0,0,0,0,41.74,670.478,2290595
-0.0309448,-0.111755,1.04376,2.2583,2.99072,-35.0342,-0.038,0.065,126,0.0393066,-0.0767212,0,0,0,0,0,41.74,670.5,2290625
-0.0527344,-0.0897827,0.99707,3.2959,2.19727,-32.5317,-0.008,0.071,126.5,0.0395508,-0.0768738,0,0,0,0,0,41.74,670.52,2290640
-0.000427246,-0.0820923,1.03418,1.09863,0.976562,-32.959,-0.032,0.024,127.49,0.0399323,-0.0769806,0,0,0,0,0,41.74,670.541,2290670
0.0262451,0.124084,0.990051,3.96728,1.77002,-29.8462,0.111,-0.121,127.95,0.0401611,-0.0770721,0,0,0,0,0,41.74,670.558,2290685
0.0967407,0.123962,0.945496,1.70898,-1.64795,-31.1279,0.064,-0.175,128.41,0.0405121,-0.0773773,0,0,0,0,0,41.74,670.583,2290700
0.0427246,-0.0287476,1.09045,1.89209,2.0752,-32.7148,-0.021,-0.038,129.4,0.0416107,-0.0783691,0,0,0,0,0,41.74,670.605,2290730
0.0613403,-0.00488281,1.02094,1.09863,1.58691,-33.9966,-0.017,-0.066,129.89,0.0421753,-0.0789795,0,0,0,0,0,41.71,670.626,2290745
-0.0603638,-0.0321655,0.941223,0.549316,2.56348,-36.1328,0.038,0.046,130.43,0.0427551,-0.0795898,0,0,0,0,0,41.71,670.643,2290760
-0.102783,-0.133057,1.12018,-1.34277,4.39453,-35.7666,-0.004,0.139,131.51,0.0439301,-0.0806274,0,0,0,0,0,41.71,670.661,2290790
0.0401001,0.144775,0.9599,-1.40381,1.58691,-35.0342,0.103,-0.149,132.03,0.0445709,-0.0811005,0,0,0,0,0,41.71,670.678,2290805
-0.119446,0.02948,0.990601,3.54004,3.41797,-33.3252,0.125,0.043,133.08,0.0463715,-0.0824432,0,0,0,0,0,41.71,670.703,2290835
0.0130005,-0.255798,1.14435,1.09863,2.01416,-33.4473,-0.169,0.139,133.57,0.0473328,-0.0830231,0,0,0,0,0,41.71,670.718,2290850
-0.0267334,-0.174561,0.990967,1.83105,1.83105,-32.7148,-0.085,0.117,134.07,0.0481262,-0.0834198,0,0,0,0,0,41.71,670.738,2290865
-0.0249023,-0.0362549,0.981873,0.549316,0.671387,-31.9824,0.012,0.019,134.56,0.0488586,-0.0837402,0,0,0,0,0,41.71,670.761,2290880
-0.00183105,-0.0618896,0.994812,-0.183105,1.28174,-32.8979,-0.021,0.021,135.53,0.0503998,-0.083725,0,0,0,0,0,41.71,670.782,2290910
-0.0351562,-0.00830078,0.989685,0.610352,0.854492,-35.5225,0.039,0.007,136.05,0.051178,-0.0837097,0,0,0,0,0,41.71,670.806,2290925
0.0355225,-0.193909,1.03717,0.488281,2.86865,-34.3628,-0.137,0.095,137.61,0.0539246,-0.0836792,0,0,0,0,0,41.71,670.852,2290970
0.0286255,0.0101318,0.967651,-0.305176,0.976562,-35.3394,0.002,-0.048,139.17,0.0560303,-0.0831299,0,0,0,0,0,41.71,670.887,2291015
-0.0689697,-0.0946045,0.977661,-0.244141,1.77002,-35.7666,0.008,0.093,139.7,0.0560303,-0.0829468,0,0,0,0,0,41.71,670.913,2291030
-0.024292,-0.150208,1.03217,1.52588,1.83105,-34.4849,-0.059,0.108,140.75,0.0559082,-0.0821838,0,0,0,0,0,41.71,670.929,2291060
-0.024292,-0.150208,1.03217,1.52588,1.83105,-34.4849,-0.059,0.108,140.75,0.0559082,-0.0821838,0,0,0,0,0,41.71,670.938,2291060
0.0933228,-0.111511,1.02814,1.2207,1.40381,-35.1562,-0.126,0.005,141.28,0.0556946,-0.081665,0,0,0,0,0,41.71,670.958,2291075
0.03302,0.0878906,1.008,2.01416,-0.488281,-34.9121,0.042,-0.112,142.35,0.0551605,-0.0807648,0,0,0,0,0,41.71,670.977,2291105
0.0164795,-0.00384521,1.02069,0.976562,1.09863,-36.0107,-0.001,-0.029,142.88,0.0549469,-0.0804596,0,0,0,0,0,41.71,671.001,2291120
-0.00805664,0.0365601,0.995605,0.976562,1.89209,-36.8042,0.041,-0.045,143.43,0.0547638,-0.0802155,0,0,0,0,0,41.71,671.019,2291135
-0.0675049,-0.0142212,0.973022,0,0.854492,-36.377,0.059,0.029,144.49,0.0545044,-0.0799255,0,0,0,0,0,41.71,671.038,2291165
-0.0198364,-0.112183,0.993347,0.12207,1.77002,-34.0576,-0.036,0.082,145.02,0.0544128,-0.0797119,0,0,0,0,0,41.71,671.057,2291180
-0.119934,0.0437622,1.02515,4.76074,2.74658,-32.5928,0.135,0.01,145.52,0.0543823,-0.0794525,0,0,0,0,0,41.71,671.078,2291195
-0.126526,-0.212097,1.15973,3.35693,3.2959,-33.02,0,0.223,146.49,0.0544434,-0.0784302,0,0,0,0,0,41.71,671.099,2291225
0.0943604,-0.0487671,1.02386,0.793457,2.19727,-32.2266,-0.096,-0.03,146.98,0.0544128,-0.0776672,0,0,0,0,0,41.71,671.117,2291240
-0.0145264,0.0947266,1.06525,1.2207,1.64795,-36.5601,0.073,-0.092,147.51,0.0543518,-0.0769806,0,0,0,0,0,41.7,671.137,2291255
0.0823975,0.0360107,1.02985,0.488281,1.95312,-35.1562,-0.042,-0.094,148.57,0.0545349,-0.0756226,0,0,0,0,0,41.7,671.158,2291285
-0.0254517,0.138,0.955994,3.11279,2.31934,-36.1938,0.1,-0.123,149.11,0.0546875,-0.0751038,0,0,0,0,0,41.7,671.177,2291300
-0.00274658,0.0750732,1.05194,1.52588,1.28174,-35.4614,0.047,-0.083,149.66,0.0549469,-0.0747223,0,0,0,0,0,41.7,671.198,2291315
-0.0524292,-0.00872803,0.910034,0.366211,1.09863,-35.7056,0.047,0.016,150.69,0.0555878,-0.0743408,0,0,0,0,0,41.7,671.219,2291346
-0.0197144,-0.0505981,1.00409,1.40381,0.915527,-35.4004,-0.001,0.035,151.23,0.0559387,-0.0741577,0,0,0,0,0,41.7,671.238,2291360
0.0563965,0.18396,0.873108,-2.0752,-1.2207,-32.959,0.041,-0.204,151.74,0.0563354,-0.0740967,0,0,0,0,0,41.7,671.257,2291375
-0.11853,-0.0651855,0.992737,0.549316,1.70898,-34.8511,0.08,0.094,152.79,0.0572815,-0.0744934,0,0,0,0,0,41.7,671.278,2291406
0.0596924,-0.0120239,1.13483,1.64795,-0.549316,-33.9355,-0.054,-0.035,153.31,0.0578156,-0.0746765,0,0,0,0,0,41.7,671.298,2291420
-0.00439453,-0.118286,1.05127,0.671387,0.793457,-34.9121,-0.043,0.09,153.82,0.0582733,-0.0748138,0,0,0,0,0,41.7,671.319,2291435
0.0339966,-0.0346069,1.06763,-0.915527,0.488281,-34.668,-0.041,0,154.86,0.0592041,-0.0750427,0,0,0,0,0,41.7,671.34,2291466
-0.0179443,-0.0628662,1.13843,0.183105,2.38037,-36.0107,-0.005,0.046,155.4,0.0596313,-0.0751495,0,0,0,0,0,41.7,671.358,2291480
0.0144653,-0.115295,1.05371,-1.70898,0.671387,-35.9497,-0.056,0.082,155.94,0.0600128,-0.0751648,0,0,0,0,0,41.7,671.378,2291495
-0.0723877,-0.00592041,1.00085,0.915527,1.95312,-35.5225,0.067,0.017,157.03,0.0606842,-0.0749054,0,0,0,0,0,41.7,671.398,2291526
0.0889282,0.0651245,1.06451,0.671387,-0.0610352,-35.4004,-0.054,-0.111,157.56,0.0610504,-0.0748138,0,0,0,0,0,41.7,671.418,2291540
-0.0526123,-0.102783,1.04663,-0.183105,0.793457,-34.79,0.013,0.097,158.08,0.0614014,-0.0747223,0,0,0,0,0,41.7,671.44,2291555
-0.031311,0.00439453,1.03351,-0.183105,0.549316,-34.5459,0.033,-0.009,159.14,0.0621643,-0.0745544,0,0,0,0,0,41.7,671.46,2291586
0.0184326,-0.0151978,1.08276,-0.915527,0.793457,-36.2549,-0.019,-0.009,159.67,0.0625916,-0.0745544,0,0,0,0,0,41.7,671.478,2291600
-0.0601807,-0.0479736,1.02319,-1.34277,1.15967,-36.8652,0.043,0.048,160.22,0.0630188,-0.0745392,0,0,0,0,0,41.7,671.498,2291615
-0.0250244,0.130493,0.977905,0.976562,0.732422,-35.7666,0.068,-0.133,161.28,0.0642242,-0.0749817,0,0,0,0,0,41.7,671.518,2291646
-0.00714111,0.159912,1.01562,0.244141,1.0376,-33.8135,0.059,-0.167,161.79,0.0649872,-0.075531,0,0,0,0,0,41.7,671.538,2291660
0.0272217,0.0397949,0.954712,0.488281,-0.488281,-33.8135,-0.011,-0.062,162.28,0.0657654,-0.0762329,0,0,0,0,0,41.7,671.558,2291675
-0.012146,0.00402832,0.994324,-1.58691,0.244141,-33.8745,0.015,-0.017,163.31,0.0672913,-0.0777893,0,0,0,0,0,41.7,671.578,2291706
-0.0932617,-0.173706,1.00427,-0.854492,1.89209,-34.4238,0.043,0.175,163.82,0.0681,-0.078476,0,0,0,0,0,41.7,671.598,2291720
0.0494385,-0.00604248,1.01257,0,0.366211,-35.0342,-0.047,-0.025,164.34,0.0688934,-0.0790558,0,0,0,0,0,41.7,671.618,2291735
0.0282593,-0.0808716,1.03186,0.366211,1.83105,-33.1421,-0.045,0.052,165.35,0.0703735,-0.0800171,0,0,0,0,0,41.7,671.639,2291766
-0.0322266,-0.0250244,0.99469,1.52588,1.15967,-34.79,0.027,0.014,165.87,0.0710754,-0.0804138,0,0,0,0,0,41.7,671.66,2291780
0.151489,-0.0878906,1.00128,-2.0752,-0.0610352,-32.4097,-0.166,0.035,166.87,0.0722046,-0.0810394,0,0,0,0,0,41.7,671.679,2291810
-0.0142822,0.0773926,0.92572,2.0752,0.915527,-36.7432,0.032,-0.087,167.42,0.0726013,-0.0813599,0,0,0,0,0,41.7,671.698,2291826
-0.0139771,-0.0819702,1.01532,-1.0376,1.46484,-35.7666,-0.002,0.067,167.96,0.0730133,-0.0816803,0,0,0,0,0,41.7,671.719,2291841
0.0600586,0.0297852,1.04706,-1.28174,1.46484,-37.3535,-0.052,-0.058,168.51,0.0733795,-0.082016,0,0,0,0,0,41.7,671.738,2291856
-0.0120239,0.0721436,0.928101,-0.0610352,0.915527,-37.5366,0.024,-0.083,169.63,0.0741425,-0.082901,0,0,0,0,0,41.7,671.758,2291886
-0.0274048,-0.0444336,1.07574,1.89209,2.62451,-35.2173,0.017,0.031,170.17,0.0745697,-0.0834351,0,0,0,0,0,41.7,671.778,2291901
-0.00708008,-0.153198,1.07306,0.854492,1.40381,-35.7056,-0.019,0.136,170.7,0.0749969,-0.083847,0,0,0,0,0,41.7,671.798,2291916
-0.0410767,0.0321045,1.05225,1.09863,0.976562,-36.1328,0.042,-0.041,171.77,0.0750275,-0.084671,0,0,0,0,0,41.7,671.818,2291946
0.00683594,-0.116333,1.07068,-0.12207,0.976562,-34.668,-0.025,0.098,172.3,0.0750732,-0.0850983,0,0,0,0,0,41.7,671.838,2291961
-0.0270386,0.0943604,0.996399,0.976562,1.40381,-35.0952,0.035,-0.105,172.82,0.0751343,-0.0855255,0,0,0,0,0,41.7,671.858,2291976
-0.00457764,0.123901,1.08557,0.244141,1.40381,-34.0576,0.013,-0.138,173.86,0.0753326,-0.0867157,0,0,0,0,0,41.7,671.878,2292006
0.0297852,0.0913696,0.936646,0.244141,0.549316,-33.8135,-0.024,-0.107,174.36,0.0754242,-0.0875549,0,0,0,0,0,41.7,671.898,2292021
0.0078125,0.160339,0.919861,-0.0610352,-0.0610352,-34.1797,0.003,-0.173,174.88,0.0755157,-0.088562,0,0,0,0,0,41.7,671.918,2292036
0.140503,-0.374268,1.19037,-2.68555,2.80762,-31.9824,-0.172,0.348,175.86,0.0757446,-0.0903625,0,0,0,0,0,41.7,671.94,2292066
0.038147,-0.0144043,1.05536,0.488281,2.92969,-33.6304,-0.044,-0.001,176.38,0.0756836,-0.0908661,0,0,0,0,0,41.7,671.957,2292081
-0.0966797,-0.171387,0.988159,0.671387,2.2583,-32.7759,0.082,0.164,176.88,0.0756531,-0.0912628,0,0,0,0,0,41.7,671.978,2292096
-0.000976562,-0.0758057,1.02185,-0.366211,0.976562,-33.7524,-0.008,0.064,177.9,0.0756073,-0.0915985,0,0,0,0,0,41.7,671.998,2292126
0.0158081,0.0532227,0.97052,-0.12207,-0.732422,-33.5693,-0.02,-0.064,178.4,0.0755615,-0.0917358,0,0,0,0,0,41.7,672.017,2292141
-0.0587769,0.015686,0.97937,0.244141,1.34277,-33.4473,0.052,-0.025,178.9,0.0755157,-0.0919189,0,0,0,0,0,41.7,672.038,2292156
0.0456543,0.083313,0.972107,-2.31934,-0.793457,-33.6914,-0.052,-0.094,179.91,0.0755157,-0.0924683,0,0,0,0,0,41.7,672.057,2292186
0.0370483,0.0506592,0.943115,-1.28174,-0.732422,-34.9731,-0.044,-0.06,-179.57,0.0754395,-0.0928955,0,0,0,0,0,41.7,672.078,2292201
-0.00799561,0.141907,0.916138,-0.305176,-0.12207,-33.1421,-0.001,-0.151,-179.06,0.0753174,-0.0934601,0,0,0,0,0,41.7,672.097,2292216
0.0078125,0.124939,0.979797,-0.549316,-1.40381,-36.3159,-0.018,-0.135,-178.03,0.0748444,-0.0954437,0,0,0,0,0,41.7,672.119,2292246
-0.0377808,-0.0159912,1.00818,-1.15967,0,-35.7666,0.031,0.004,-177.5,0.0745697,-0.0966644,0,0,0,0,0,41.7,672.139,2292261
-0.00360107,-0.0332642,1.08649,-1.28174,0.12207,-35.7056,-0.003,0.021,-176.96,0.0743256,-0.0978699,0,0,0,0,0,41.68,672.158,2292276
-0.0727539,-0.119568,1.0564,-0.793457,1.15967,-38.0249,0.073,0.103,-175.85,0.0737305,-0.100174,0,0,0,0,0,41.68,672.181,2292306
0.0427246,0.0395508,1.06396,-2.2583,0.12207,-37.1704,-0.054,-0.047,-175.28,0.0734558,-0.101257,0,0,0,0,0,41.68,672.198,2292321
0.0495605,0.031311,0.94574,-1.46484,-0.366211,-36.8042,-0.059,-0.036,-174.74,0.0731049,-0.102402,0,0,0,0,0,41.68,672.218,2292336
0.00592041,-0.0974731,1.02063,1.28174,0.854492,-36.499,-0.003,0.087,-173.62,0.072403,-0.10466,0,0,0,0,0,41.68,672.24,2292366
-0.0131226,0.0147705,0.994446,-0.854492,0.183105,-37.2925,0.003,-0.026,-173.07,0.072052,-0.105713,0,0,0,0,0,41.68,672.258,2292381
-0.0270386,-0.100525,1.06964,-2.50244,1.70898,-38.4521,0.031,0.084,-171.92,0.0713196,-0.107758,0,0,0,0,0,41.68,672.28,2292411
0.00140381,-0.154785,1.03943,-1.89209,1.70898,-38.4521,0.012,0.142,-171.34,0.0709686,-0.108597,0,0,0,0,0,41.68,672.299,2292426
0.0477905,-0.0883179,0.989136,-2.86865,-0.366211,-36.8042,-0.041,0.084,-170.78,0.0706024,-0.109268,0,0,0,0,0,41.68,672.319,2292441
0.0101318,-0.0280762,0.971008,0.549316,1.09863,-36.7432,-0.014,0.018,-169.67,0.0698853,-0.110519,0,0,0,0,0,41.68,672.35,2292471
0.0422363,0.204041,0.9422,-0.0610352,-1.95312,-34.0576,-0.089,-0.202,-169.15,0.069458,-0.111252,0,0,0,0,0,41.68,672.359,2292486
-0.0632935,0.0203247,1.05396,1.58691,1.40381,-36.1328,0.048,-0.044,-168.63,0.0690002,-0.112167,0,0,0,0,0,41.68,672.378,2292501
-0.05896,0.107178,0.96991,-1.0376,1.15967,-36.5601,0.026,-0.127,-168.08,0.0686035,-0.11319,0,0,0,0,0,41.68,672.397,2292516
-0.00189209,-0.0368042,1.03333,-3.54004,0.976562,-37.8418,0,0.023,-166.98,0.0676117,-0.115417,0,0,0,0,0,41.68,672.417,2292546
-0.00598145,0.0524902,0.921265,-2.50244,0.183105,-36.3159,-0.016,-0.063,-166.43,0.0676117,-0.116547,0,0,0,0,0,41.68,672.438,2292561
-0.065918,0.148132,1.02124,2.38037,1.83105,-36.5601,0.016,-0.171,-165.89,0.0676117,-0.117828,0,0,0,0,0,41.68,672.458,2292576
-0.0774536,-0.0548096,1.05762,1.09863,1.28174,-35.2783,0.077,0.02,-164.85,0.0674744,-0.12088,0,0,0,0,0,41.68,672.479,2292606
-0.0263672,-0.122437,1.13239,0.0610352,3.41797,-35.0342,0.045,0.098,-164.33,0.0674896,-0.122375,0,0,0,0,0,41.68,672.498,2292621
-0.0753174,-0.0419312,1.11829,-0.549316,2.92969,-35.8276,0.07,0.007,-163.79,0.0675964,-0.123779,0,0,0,0,0,41.68,672.519,2292636
0.0411987,0.11615,1.04919,-3.11279,0.549316,-31.5552,-0.086,-0.109,-162.79,0.067688,-0.123871,0,0,0,0,0,41.68,672.537,2292666
0.0540771,0.085022,1.0564,-0.793457,-0.610352,-29.8462,-0.089,-0.074,-162.33,0.0675507,-0.124069,0,0,0,0,0,41.68,672.562,2292681
-0.151611,0.0974121,1.12152,0.244141,3.479,-28.6255,0.101,-0.149,-161.9,0.0674438,-0.124435,0,0,0,0,0,41.68,672.577,2292696
0.0675659,0.0419312,0.959656,-6.04248,-0.549316,-24.353,-0.089,-0.027,-161.14,0.0671234,-0.125397,0,0,0,0,0,41.68,672.598,2292727
-0.00128174,0.100891,0.992554,-4.21143,0.793457,-21.9727,-0.044,-0.105,-160.8,0.0668182,-0.125992,0,0,0,0,0,41.68,672.618,2292741
-0.010498,-0.00634766,0.977051,-1.95312,0.427246,-16.9067,0,-0.007,-160.52,0.0664825,-0.126648,0,0,0,0,0,41.68,672.64,2292756
-0.0487671,0.120056,0.981018,-0.244141,0,-16.9678,-0.008,-0.14,-160,0.0654907,-0.128159,0,0,0,0,0,41.69,672.657,2292787
-0.0421143,-0.0147705,1.0484,0.732422,0.793457,-14.3433,0.03,-0.012,-159.78,0.0649567,-0.129074,0,0,0,0,0,41.69,672.677,2292801
0.00567627,-0.169739,0.980591,-0.366211,1.0376,-14.7095,0.04,0.149,-159.56,0.0644684,-0.129913,0,0,0,0,0,41.69,672.697,2292816
-0.0339355,-0.0256348,0.98999,-2.44141,-0.12207,-15.686,0.027,0,-159.14,0.0635681,-0.13118,0,0,0,0,0,41.69,672.718,2292847
-0.0297241,0.1026,0.972168,-0.427246,-0.488281,-12.5122,-0.022,-0.118,-158.94,0.0631409,-0.131882,0,0,0,0,0,41.69,672.742,2292861
-0.0116577,0.0551758,1.05304,-0.183105,0.488281,-15.564,-0.023,-0.069,-158.73,0.0626678,-0.13269,0,0,0,0,0,41.69,672.759,2292876
0.0137939,0.0496826,1.03851,1.52588,0,-14.9536,-0.045,-0.054,-158.28,0.0615234,-0.134552,0,0,0,0,0,41.69,672.778,2292907
0.0197144,0.012207,1.02905,0,0.305176,-16.9067,-0.036,-0.017,-158.03,0.0608673,-0.135559,0,0,0,0,0,41.69,672.798,2292921
-0.0212402,-0.143677,1.07971,-1.15967,1.34277,-15.7471,0.059,0.111,-157.79,0.0602112,-0.13649,0,0,0,0,0,41.69,672.818,2292936
0.0847168,0.139709,0.941101,-0.549316,-0.793457,-16.9678,-0.145,-0.108,-157.27,0.0588989,-0.138245,0,0,0,0,0,41.69,672.838,2292967
0.0144043,0.0375366,0.963318,-0.671387,-2.56348,-10.6201,-0.041,-0.04,-157.08,0.058075,-0.139252,0,0,0,0,0,41.69,672.863,2292981
0.00384521,0.0939331,1.03473,1.40381,-3.60107,-12.7563,-0.052,-0.097,-156.91,0.0571747,-0.14035,0,0,0,0,0,41.69,672.878,2292996
-0.154785,0.0289307,0.98291,-6.34766,-5.06592,-16.7847,0.119,-0.1,-156.46,0.0556793,-0.142807,0,0,0,0,0,41.69,672.899,2293027
0.03479,0.0689697,0.953125,-9.52148,-6.10352,-23.3154,-0.07,-0.062,-156.16,0.0550385,-0.144196,0,0,0,0,0,41.69,672.918,2293041
-0.0303955,-0.155396,1.14502,-10.9253,-5.06592,-29.1138,0.079,0.109,-155.74,0.0544281,-0.145538,0,0,0,0,0,41.69,672.938,2293056
0.0308838,-0.0020752,0.919861,-7.38525,-9.52148,-30.7007,-0.036,-0.005,-154.81,0.0532837,-0.148422,0,0,0,0,0,41.69,672.958,2293087
0.0651855,-0.0369263,1.00586,-1.95312,-5.31006,-32.0435,-0.048,0.035,-153.87,0.0519104,-0.151199,0,0,0,0,0,41.69,672.988,2293116
0.0651855,-0.0369263,1.00586,-1.95312,-5.31006,-32.0435,-0.048,0.035,-153.87,0.0519104,-0.151199,0,0,0,0,0,41.69,672.998,2293116
0.104309,-0.0566406,1.01007,-1.70898,-0.305176,-36.0107,-0.07,0.069,-152.86,0.0502014,-0.153763,0,0,0,0,0,41.69,673.018,2293147
0.134399,-0.0976562,1.03943,-3.23486,1.40381,-38.5132,-0.076,0.118,-152.29,0.0491943,-0.154907,0,0,0,0,0,41.69,673.038,2293161
0.119995,-0.141541,1.03143,-4.3335,2.2583,-39.7949,-0.041,0.15,-151.71,0.048111,-0.155853,0,0,0,0,0,41.69,673.058,2293176
0.124329,-0.204773,1.03412,-3.41797,6.65283,-38.0249,-0.013,0.207,-150.51,0.0460358,-0.157272,0,0,0,0,0,41.69,673.078,2293207
-0.0599976,0.0379028,0.97821,1.77002,8.48389,-39.2456,0.026,-0.092,-149.92,0.0450439,-0.157806,0,0,0,0,0,41.69,673.098,2293222
-0.0209351,-0.105103,1.03168,1.28174,6.65283,-36.1328,0.062,0.049,-149.35,0.0440979,-0.158371,0,0,0,0,0,41.69,673.117,2293237
-0.0438232,-0.0136719,0.998169,1.64795,5.43213,-35.0342,0.032,-0.038,-148.32,0.0424652,-0.159348,0,0,0,0,0,41.69,673.138,2293267
-0.125916,-0.0400391,1.05292,1.77002,3.60107,-34.5459,0.113,-0.061,-147.8,0.0417633,-0.159897,0,0,0,0,0,41.69,673.157,2293282
0.00396729,-0.0784912,1.02991,0.0610352,2.38037,-34.5459,0.024,0.041,-147.29,0.0411682,-0.160446,0,0,0,0,0,41.7,673.178,2293297
-0.0786133,0.0508423,1.04541,-0.183105,-0.183105,-34.729,0.021,-0.113,-146.27,0.0400696,-0.161819,0,0,0,0,0,41.7,673.198,2293327
-0.0507812,-0.0150146,1.04816,-0.671387,0.671387,-32.8979,0.034,-0.042,-145.77,0.039566,-0.162674,0,0,0,0,0,41.7,673.217,2293342
0.0194092,0.0930176,1.05865,-0.12207,-0.305176,-34.9731,-0.085,-0.092,-145.26,0.039032,-0.163635,0,0,0,0,0,41.7,673.237,2293357
0.0376587,0.0285034,1.09894,-0.732422,0.549316,-34.3628,-0.063,-0.029,-144.2,0.037735,-0.165863,0,0,0,0,0,41.7,673.258,2293387
0.06604,-0.0510864,1.01501,-1.0376,1.58691,-35.2173,-0.037,0.054,-143.67,0.036972,-0.167007,0,0,0,0,0,41.7,673.279,2293402
0.0603638,-0.0195312,0.981934,-1.34277,1.2207,-36.0718,-0.05,0.026,-143.13,0.0361633,-0.168091,0,0,0,0,0,41.7,673.298,2293417
0.0510254,-0.113647,1.00336,-3.96728,3.17383,-36.438,0.014,0.095,-142.03,0.0343933,-0.170258,0,0,0,0,0,41.7,673.318,2293447
0.0368042,-0.0369873,0.986694,-2.01416,2.80762,-37.1094,-0.021,0.026,-141.48,0.033493,-0.171249,0,0,0,0,0,41.7,673.338,2293462
-0.115479,-0.00976562,0.996704,-0.366211,3.96728,-35.9497,0.079,-0.09,-140.94,0.0326385,-0.172287,0,0,0,0,0,41.7,673.357,2293477
-0.0906372,-0.0759888,1.05713,1.0376,4.02832,-35.6445,0.099,-0.025,-139.87,0.0307922,-0.174545,0,0,0,0,0,41.7,673.378,2293507
0.0783691,-0.16095,1.00421,-2.13623,1.95312,-34.5459,0.026,0.15,-139.35,0.0299377,-0.175613,0,0,0,0,0,41.7,673.397,2293522
0.0222168,0.126465,0.951965,-2.01416,-0.610352,-34.8511,-0.118,-0.102,-138.82,0.0290222,-0.176651,0,0,0,0,0,41.7,673.418,2293537
0.053772,0.0531616,1.00214,-0.732422,0,-32.5928,-0.096,-0.026,-137.84,0.0268097,-0.179199,0,0,0,0,0,41.7,673.438,2293567
0.0045166,-0.0308838,1.00549,-0.671387,1.40381,-30.6396,-0.004,0.002,-137.37,0.0255737,-0.180557,0,0,0,0,0,41.7,673.459,2293582
-0.0151367,-0.0413208,0.996338,1.28174,2.38037,-27.4658,0.016,-0.002,-136.94,0.0255737,-0.181915,0,0,0,0,0,41.7,673.48,2293597
0.0264893,-0.0841675,0.910522,5.85937,3.35693,-24.7803,0.019,0.06,-136.19,0.0253448,-0.184464,0,0,0,0,0,41.7,673.498,2293627
-0.00720215,-0.0474243,1.00714,8.91113,6.71387,-22.8882,0.016,0.01,-135.83,0.0252075,-0.185654,0,0,0,0,0,41.7,673.518,2293642
0.0404053,-0.0545044,1.060551,4.7095,12.146,-23.3154,-0.012,0.054,-135.15,0.024826,-0.187866,0,0,0,0,0,41.7,673.542,2293672
0.268372,0.00830078,1.034611,5.5029,6.89697,-23.6206,-0.214,0.175,-134.8,0.0244598,-0.188766,0,0,0,0,0,41.7,673.559,2293687
-0.0430908,-0.0684814,0.9849851,8.0664,6.04248,-26.2451,0.064,0.012,-134.43,0.0239868,-0.18956,0,0,0,0,0,41.7,673.578,2293702
-0.135254,-0.0699463,1.082461,5.686,7.08008,-33.02,0.128,-0.049,-133.96,0.0236359,-0.190369,0,0,0,0,0,41.7,673.597,2293717
-0.0835571,-0.000305176,0.9768071,1.7187,5.98144,-32.959,0.044,-0.057,-133.45,0.023407,-0.191238,0,0,0,0,0,41.7,673.617,2293732
-0.0803833,0.078064,0.912598,5.67627,0.366211,-34.729,-0.015,-0.104,-132.46,0.0232239,-0.193115,0,0,0,0,0,41.7,673.638,2293762
-0.164001,-0.00769043,0.921753,3.90625,-0.305176,-36.438,0.104,-0.107,-131.92,0.0232849,-0.194229,0,0,0,0,0,41.7,673.658,2293777
-0.128601,0.00640869,1.02435,-0.488281,-3.23486,-34.3628,0.068,-0.088,-130.88,0.0235138,-0.196655,0,0,0,0,0,41.7,673.678,2293807
-0.0336914,0.109009,0.988037,-1.95312,-3.66211,-32.1045,-0.071,-0.084,-130.39,0.0236206,-0.198013,0,0,0,0,0,41.7,673.698,2293822
-0.0808105,0.0671387,1.04169,-1.64795,-2.50244,-33.6914,-0.009,-0.092,-129.89,0.0236969,-0.199493,0,0,0,0,0,41.7,673.718,2293837
0.0179443,0.0929565,1.02789,-0.732422,-3.41797,-31.7383,-0.091,-0.033,-128.94,0.0235748,-0.202652,0,0,0,0,0,41.7,673.737,2293867
0.0268555,0.0435181,0.979126,-0.610352,-3.2959,-31.189,-0.057,0.004,-128.48,0.0233612,-0.204269,0,0,0,0,0,41.7,673.757,2293882
0.0491333,-0.0516357,1.01147,-1.83105,-2.13623,-32.1655,0.004,0.08,-128,0.0231018,-0.205841,0,0,0,0,0,41.7,673.778,2293897
0.0147705,0.0673828,0.998474,-2.01416,0.793457,-32.3486,-0.068,-0.02,-127.03,0.0223694,-0.208801,0,0,0,0,0,41.7,673.798,2293927
0.0840454,-0.0373535,1.06342,-1.28174,2.31934,-34.0576,-0.026,0.097,-126.53,0.0218811,-0.21022,0,0,0,0,0,41.7,673.818,2293942
-0.0131836,-0.0267334,1.02197,-1.28174,2.2583,-34.4238,0.023,0.012,-126.01,0.0213776,-0.211578,0,0,0,0,0,41.7,673.839,2293957
-0.00561523,0.00921631,0.997498,-1.40381,2.01416,-35.0342,-0.011,-0.002,-124.98,0.0204773,-0.211578,0,0,0,0,0,41.7,673.858,2293987
-0.0196533,0.00286865,0.99054,0.488281,0.854492,-32.2266,0.001,-0.01,-124.47,0.0200195,-0.211578,0,0,0,0,0,41.7,673.878,2294002
-0.0881958,0.0448608,1.04541,2.99072,-1.64795,-26.6113,0.004,-0.088,-124.04,0.0200195,-0.211639,0,0,0,0,0,41.7,673.898,2294017
-0.0388184,0.0498657,1.00092,5.79834,-2.44141,-24.7192,-0.025,-0.049,-123.67,0.0200043,-0.211807,0,0,0,0,0,41.7,673.918,2294032
-0.100769,-0.121094,0.982727,2.92969,-8.11768,-22.7051,0.154,-0.008,-122.97,0.0201111,-0.212402,0,0,0,0,0,41.7,673.938,2294062
-0.10437,-0.0166016,0.950806,-0.488281,-8.54492,-26.1841,0.068,-0.07,-122.59,0.0203705,-0.212799,0,0,0,0,0,41.7,673.958,2294077
0.0339355,0.0709229,0.993713,-6.7749,-9.33838,-30.7617,-0.08,-0.004,-121.74,0.0210114,-0.213715,0,0,0,0,0,41.7,673.978,2294108
0.00830078,0.019165,1.05457,-7.08008,-7.75146,-35.1562,-0.022,-0.002,-121.24,0.0212402,-0.213715,0,0,0,0,0,41.7,673.999,2294122
0.0961304,0.0465698,0.986206,-6.89697,-6.83594,-34.4238,-0.091,0.057,-120.71,0.0213928,-0.213669,0,0,0,0,0,41.7,674.017,2294137
0.127991,0.0574341,1.02344,-5.5542,-5.79834,-34.0576,-0.115,0.076,-120.21,0.0214233,-0.213547,0,0,0,0,0,41.7,674.037,2294152
0.0946045,0.0546265,0.974792,-1.46484,0.488281,-35.2173,-0.094,0.048,-119.14,0.0210724,-0.213043,0,0,0,0,0,41.7,674.057,2294182
0.120544,-0.0369263,1.04169,-1.2207,3.60107,-32.8369,-0.025,0.115,-118.64,0.020752,-0.212646,0,0,0,0,0,41.7,674.078,2294197
0.0748291,-0.0556641,1.06836,-3.17383,4.63867,-30.6396,0.012,0.082,-118.17,0.0204315,-0.212112,0,0,0,0,0,41.7,674.098,2294212
0.0148315,-0.00762939,1.00305,-5.18799,6.34766,-24.4751,-0.005,0.008,-117.35,0.0198517,-0.211517,0,0,0,0,0,41.7,674.118,2294242
-0.039978,-0.0280762,0.972168,-5.12695,4.76074,-20.813,0.036,-0.029,-117.02,0.0195923,-0.211517,0,0,0,0,0,41.7,674.138,2294257
-0.0306396,0.0600586,1.02606,-6.95801,2.13623,-17.395,-0.052,-0.06,-116.44,0.0192413,-0.211685,0,0,0,0,0,41.7,674.158,2294288
-0.158752,0.0527954,1.07349,-6.46973,1.0376,-16.2354,0.008,-0.171,-116.2,0.019043,-0.211945,0,0,0,0,0,41.7,674.178,2294302
-0.0804443,0.0170288,1.01825,-6.7749,-0.671387,-15.9302,0.004,-0.085,-115.95,0.0188446,-0.212387,0,0,0,0,0,41.67,674.199,2294317
-0.046814,0.0123291,0.984253,-8.23975,-3.54004,-16.4795,-0.008,-0.054,-115.5,0.0184021,-0.21347,0,0,0,0,0,41.67,674.218,2294348
0.020752,0.026062,1.04657,-8.17871,-4.39453,-17.4561,-0.052,-0.001,-115.24,0.0181122,-0.214066,0,0,0,0,0,41.67,674.237,2294362
0.0375977,-0.0131226,1.02966,-10.3149,-3.96728,-17.9443,-0.024,0.028,-114.98,0.0177765,-0.214661,0,0,0,0,0,41.67,674.259,2294377
0.0665283,0.0220947,1.02441,-11.4746,-1.95312,-22.644,-0.071,0.035,-114.35,0.0168762,-0.215637,0,0,0,0,0,41.67,674.278,2294408
0.0949097,-0.176086,1.19769,-11.1084,1.34277,-23.7427,0.091,0.137,-114.01,0.0164032,-0.215973,0,0,0,0,0,41.67,674.298,2294422
0.0205688,0.0825195,0.987976,-7.38525,2.86865,-20.6909,-0.111,-0.031,-113.66,0.0158997,-0.216248,0,0,0,0,0,41.67,674.318,2294437
-0.0380859,-0.168518,0.971985,0.366211,4.02832,-21.3013,0.141,0.011,-113.04,0.0146484,-0.216522,0,0,0,0,0,41.67,674.338,2294468
-0.0368042,-0.109985,0.991455,0.793457,5.12695,-15.686,0.085,-0.008,-112.78,0.0141907,-0.216522,0,0,0,0,0,41.67,674.358,2294482
0.0512695,-0.118469,1.04602,4.5166,5.92041,-16.8457,0.057,0.075,-112.53,0.0138245,-0.216476,0,0,0,0,0,41.67,674.378,2294497
-0.115845,-0.150879,1.02795,1.40381,4.5166,-15.8081,0.15,-0.066,-112.03,0.0135956,-0.215912,0,0,0,0,0,41.67,674.398,2294528
-0.0348511,-0.160217,1.05237,1.77002,4.63867,-17.0288,0.127,0.012,-111.79,0.0137634,-0.215622,0,0,0,0,0,41.67,674.418,2294543
0.0728149,-0.217834,0.938293,-0.0610352,2.92969,-12.8784,0.144,0.137,-111.56,0.0141144,-0.21524,0,0,0,0,0,41.67,674.438,2294558
-0.101196,-0.101257,0.977173,6.04248,3.41797,-11.8408,0.099,-0.067,-111.12,0.0150604,-0.214188,0,0,0,0,0,41.67,674.458,2294588
0.0525513,-0.0483398,1.000611,0.2539,7.01904,-15.564,-0.004,0.059,-110.92,0.0156097,-0.213669,0,0,0,0,0,41.67,674.478,2294603
0.161316,-0.0289917,1.04481,1.2305,7.08008,-17.9443,-0.059,0.155,-110.64,0.0161285,-0.213013,0,0,0,0,0,41.67,674.5,2294618
0.00927734,-0.0714111,1.045411,1.2305,5.79834,-18.9209,0.036,0.028,-110.37,0.0166321,-0.212219,0,0,0,0,0,41.67,674.518,2294633
     0,0.0510254,1.02368,7.26318,6.40869,-22.9492,-0.07,-0.016,-109.7,0.0177612,-0.210556,0,0,0,0,0,41.67,674.538,2294663
0.00878906,0.012146,0.980408,6.28662,3.23486,-23.9258,-0.034,0.005,-109.35,0.0182648,-0.209732,0,0,0,0,0,41.67,674.557,2294678
-0.116394,-0.0106201,1.01843,7.32422,1.15967,-24.4751,0.03,-0.1,-108.6,0.0191193,-0.20842,0,0,0,0,0,41.67,674.578,2294708
-0.0628052,0.0216064,1.00433,7.62939,-1.46484,-21.5454,-0.015,-0.058,-108.27,0.0195618,-0.207962,0,0,0,0,0,41.67,674.603,2294723
-0.0701904,-0.0594482,1.01135,6.34766,-0.793457,-18.5547,0.064,-0.04,-107.97,0.0200195,-0.207565,0,0,0,0,0,41.67,674.618,2294738
-0.0299072,-0.0512695,1.00757,6.95801,-3.2959,-13.6108,0.048,-0.004,-107.49,0.0209503,-0.206985,0,0,0,0,0,41.67,674.638,2294768
0.034729,0.0182495,1.11328,5.06592,-2.80762,-9.39941,-0.037,0.036,-107.33,0.0214081,-0.206711,0,0,0,0,0,41.67,674.658,2294783
0.0142822,0.103577,1.00232,4.27246,-3.23486,-7.50732,-0.11,-0.01,-107.21,0.0217743,-0.206406,0,0,0,0,0,41.67,674.678,2294798
0.0686035,0.00524902,1.07318,1.95312,-0.366211,-3.2959,-0.029,0.07,-107.05,0.0222473,-0.205673,0,0,0,0,0,41.66,674.699,2294828
0.0371704,0.0418701,0.948059,1.09863,0.0610352,-3.23486,-0.053,0.027,-107,0.0224152,-0.2052,0,0,0,0,0,41.66,674.717,2294843
0.0337524,0.0481567,1.05066,-0.366211,1.95312,-2.92969,-0.058,0.023,-106.96,0.0224915,-0.204697,0,0,0,0,0,41.66,674.739,2294858
-0.0323486,0.0767212,0.995605,-1.95312,2.2583,1.83105,-0.067,-0.048,-106.97,0.0224915,-0.203568,0,0,0,0,0,41.66,674.758,2294888
-0.00915527,0.0101318,1.07495,-1.09863,2.38037,3.2959,-0.01,-0.005,-107.01,0.0224152,-0.203033,0,0,0,0,0,41.66,674.779,2294903
-0.0245972,0.0206909,0.983032,-1.83105,0.732422,6.28662,-0.016,-0.023,-107.09,0.0223083,-0.20253,0,0,0,0,0,41.66,674.798,2294918
-0.0149536,0.0145264,1.00513,-0.549316,-0.610352,7.69043,-0.013,-0.011,-107.31,0.0223083,-0.201614,0,0,0,0,0,41.66,674.819,2294948
-0.0333252,-0.0320435,1.05255,-2.31934,-0.915527,10.3149,0.036,-0.014,-107.45,0.0223236,-0.201614,0,0,0,0,0,41.66,674.839,2294963
-0.00640869,0.0518188,0.987732,-1.28174,-1.34277,10.498,-0.051,-0.015,-107.61,0.0223236,-0.201614,0,0,0,0,0,41.66,674.858,2294978
0.0639038,0.0196533,0.992615,-3.05176,-1.52588,12.5732,-0.043,0.059,-107.97,0.0223083,-0.201538,0,0,0,0,0,41.66,674.878,2295008
0.0428467,0.0519409,1.04199,-4.27246,0.0610352,13.855,-0.069,0.027,-108.36,0.0222015,-0.201263,0,0,0,0,0,41.66,674.911,2295038
0.0428467,0.0519409,1.04199,-4.27246,0.0610352,13.855,-0.069,0.027,-108.36,0.0222015,-0.201263,0,0,0,0,0,41.66,674.92,2295038
-0.00457764,-0.0132446,1.02161,-4.57764,-0.305176,17.8223,0.005,0.001,-108.8,0.0219116,-0.200775,0,0,0,0,0,41.66,674.938,2295068
0.0289307,-0.00140381,0.997253,-5.00488,0.488281,23.4375,-0.017,0.029,-109.14,0.0217438,-0.200485,0,0,0,0,0,41.66,674.958,2295083
-0.000549316,0.00170898,1.00714,-3.66211,0.488281,23.1934,-0.011,0,-109.48,0.0217438,-0.200165,0,0,0,0,0,41.66,674.978,2295098
-0.0349121,-0.0349731,1.07532,-4.63867,0.305176,26.9775,0.032,-0.02,-109.87,0.021759,-0.19986,0,0,0,0,0,41.66,674.998,2295113
-0.0125732,0.0230103,0.979614,-5.85937,-1.34277,28.7476,-0.03,-0.02,-110.72,0.021759,-0.199341,0,0,0,0,0,41.66,675.018,2295143
0.0187988,0.0487061,1.00195,-6.22559,-1.09863,29.3579,-0.067,-0.001,-111.17,0.0216675,-0.199097,0,0,0,0,0,41.66,675.037,2295158
0.0195923,0.020752,1.04462,-8.36182,-1.58691,29.7852,-0.045,0.006,-112.06,0.0214386,-0.198547,0,0,0,0,0,41.66,675.058,2295188
0.0267334,-0.0515137,0.984558,-8.36182,-1.46484,28.1982,0.018,0.039,-112.49,0.021286,-0.198212,0,0,0,0,0,41.66,675.077,2295203
0.109192,0.193726,0.973328,-3.84521,-3.11279,27.6489,-0.24,0.018,-112.92,0.0209961,-0.197845,0,0,0,0,0,41.66,675.098,2295218
0.0294189,-0.0645142,1.00836,-2.2583,-2.74658,29.3579,0.027,0.045,-113.35,0.0205536,-0.197449,0,0,0,0,0,41.66,675.117,2295233
0.126282,0.0219727,1.03918,3.17383,0.366211,32.2266,-0.093,0.096,-114.31,0.0197754,-0.196472,0,0,0,0,0,41.66,675.137,2295263
-0.0438843,-0.0794678,1.04926,2.50244,0.183105,31.9214,0.069,-0.015,-114.79,0.0193634,-0.195877,0,0,0,0,0,41.66,675.158,2295278
0.0300293,-0.0130005,0.964355,0.12207,-1.46484,38.208,-0.021,0.023,-115.89,0.0188751,-0.194595,0,0,0,0,0,41.66,675.179,2295308
-0.0444946,-0.109802,1.06818,1.0376,-0.671387,37.1094,0.096,-0.001,-116.45,0.0187073,-0.193924,0,0,0,0,0,41.66,675.201,2295323
-0.026123,0.108032,0.933472,0.183105,-2.92969,39.978,-0.103,-0.082,-117.04,0.0185242,-0.193283,0,0,0,0,0,41.67,675.222,2295338
0.0217896,0.00280762,0.92749,1.28174,-3.78418,39.2456,-0.031,0.008,-117.64,0.0182648,-0.192719,0,0,0,0,0,41.67,675.239,2295353
-0.0118408,-0.115601,0.997192,0.915527,-3.96728,40.4663,0.089,0.034,-118.83,0.0178986,-0.191345,0,0,0,0,0,41.67,675.257,2295383
0.0869141,-0.0197754,1.04114,1.46484,-3.05176,40.7104,-0.043,0.072,-119.43,0.0177917,-0.190552,0,0,0,0,0,41.67,675.277,2295398
0.00714111,-0.0335693,1.0907,0.244141,-1.52588,40.2222,0.008,0.007,-120.62,0.0175476,-0.188828,0,0,0,0,0,41.67,675.298,2295429
0.00250244,-0.0680542,0.988953,-0.549316,-0.854492,40.7715,0.042,0.022,-121.23,0.0174561,-0.187943,0,0,0,0,0,41.67,675.32,2295443
0.103271,0.12146,0.94989,-0.366211,-1.34277,40.2222,-0.171,0.009,-121.84,0.0172729,-0.187027,0,0,0,0,0,41.67,675.338,2295458
0.0563354,0.0978394,0.96936,-0.366211,-2.19727,40.2832,-0.126,-0.02,-122.44,0.0168915,-0.186127,0,0,0,0,0,41.67,675.358,2295473
-0.0791626,-0.0894775,0.953369,-0.366211,-0.488281,40.5884,0.106,-0.031,-123.67,0.0158234,-0.184296,0,0,0,0,0,41.67,675.378,2295503
0.0219116,-0.0653076,1.0426,-0.488281,-0.183105,41.687,0.028,0.037,-124.28,0.0153809,-0.183365,0,0,0,0,0,41.67,675.4,2295518
-0.0626221,-0.175049,1.1087,0.12207,-0.915527,39.5508,0.165,0.032,-125.49,0.0144958,-0.181427,0,0,0,0,0,41.67,675.419,2295549
-0.0141602,-0.0307617,0.990601,-0.793457,-0.183105,41.8701,0.021,-0.01,-126.11,0.0142212,-0.18042,0,0,0,0,0,41.67,675.438,2295563
0.0133667,0.0166626,0.960022,-0.488281,-2.86865,38.9404,-0.032,-0.016,-126.71,0.0139313,-0.179443,0,0,0,0,0,41.67,675.458,2295578
-0.00939941,0.0980225,0.936523,0.793457,-2.01416,40.4663,-0.082,-0.084,-127.9,0.0131378,-0.179504,0,0,0,0,0,41.67,675.486,2295609
0.0976562,0.164001,1.02161,2.19727,-1.95312,39.6118,-0.2,-0.044,-128.51,0.0124969,-0.179642,0,0,0,0,0,41.67,675.497,2295623
-0.0258789,-0.0267334,1.0304,1.70898,-1.15967,38.6353,0.026,-0.022,-129.1,0.0117493,-0.17984,0,0,0,0,0,41.67,675.518,2295638
0.0478516,0.0115356,0.948914,-0.976562,0.366211,39.3677,-0.048,0.009,-130.3,0.0104065,-0.180099,0,0,0,0,0,41.67,675.539,2295669
0.0591431,0.0534058,1.11615,0.183105,0.183105,39.1846,-0.089,-0.013,-130.88,0.00967407,-0.180099,0,0,0,0,0,41.67,675.561,2295683
0.0112915,-0.0610352,0.9729,-1.58691,-0.549316,41.4429,0.029,0.028,-131.5,0.00888062,-0.180084,0,0,0,0,0,41.67,675.58,2295698
0.0616455,-0.0969238,1.01941,0.305176,-0.427246,41.4429,0.021,0.089,-132.12,0.00813293,-0.179993,0,0,0,0,0,41.67,675.599,2295713
0.00878906,0.000732422,1.00708,0.549316,-1.40381,40.2222,-0.015,-0.015,-133.35,0.00679016,-0.179565,0,0,0,0,0,41.67,675.619,2295743
0.0388184,0.072998,0.955688,-0.305176,-1.28174,41.0156,-0.087,-0.043,-133.96,0.006073,-0.179367,0,0,0,0,0,41.67,675.64,2295758
0.0266724,0.00964355,0.994141,-0.12207,-1.09863,39.6118,-0.034,-0.009,-134.58,0.00526428,-0.179214,0,0,0,0,0,41.67,675.658,2295773
0.0188599,-0.0753784,0.96521,-1.28174,-1.09863,44.7388,0.03,0.045,-135.86,0.00369263,-0.178787,0,0,0,0,0,41.67,675.678,2295803
0.032959,0.093689,1.00037,2.13623,-1.15967,49.4995,-0.096,-0.068,-136.57,0.00286865,-0.178558,0,0,0,0,0,41.67,675.698,2295818
0.0446777,0.0599976,0.998474,2.01416,-2.13623,50.6592,-0.081,-0.036,-137.33,0.00193787,-0.178391,0,0,0,0,0,41.67,675.718,2295833
0.0180664,-0.0443726,0.960388,-0.610352,-1.52588,56.9458,0.009,0.022,-138.95,3.05176e-05,-0.178009,0,0,0,0,0,41.68,675.74,2295863
0.0680542,-0.00415039,1.06427,0.305176,-1.52588,59.6924,-0.056,0.021,-139.84,-0.000915527,-0.17775,0,0,0,0,0,41.68,675.761,2295879
-0.000854492,-0.0686035,1.05487,-0.305176,-1.0376,61.6455,0.038,0.026,-140.75,-0.00190735,-0.17746,0,0,0,0,0,41.68,675.778,2295894
0.0626831,0.11969,0.99115,-0.610352,-2.38037,68.4204,-0.127,-0.082,-142.74,-0.00389099,-0.17691,0,0,0,0,0,41.68,675.798,2295924
0.0499878,-0.0464478,1.0238,-0.183105,-2.13623,69.2749,-0.017,0.04,-143.77,-0.0050354,-0.176697,0,0,0,0,0,41.68,675.818,2295939
0.0823364,0.0769653,0.92804,0.244141,-3.66211,79.4067,-0.114,-0.042,-146,-0.00746155,-0.176208,0,0,0,0,0,41.68,675.839,2295969
0.0799561,-0.0371704,1.04559,2.62451,-2.38037,84.8999,-0.048,0.046,-147.26,-0.00883484,-0.17598,0,0,0,0,0,41.68,675.859,2295984
0.0204468,0.00598145,1.02997,3.17383,-2.2583,87.7075,-0.02,-0.021,-148.56,-0.0102692,-0.175735,0,0,0,0,0,41.68,675.878,2295999
0.0528564,-0.0571289,0.987549,1.0376,-2.86865,90.5151,-0.016,0.049,-149.91,-0.0117188,-0.175461,0,0,0,0,0,41.68,675.897,2296014
0.046814,-0.0145874,0.989807,-2.99072,-3.05176,90.5151,-0.032,0.007,-152.65,-0.0146942,-0.175156,0,0,0,0,0,41.68,675.917,2296044
0.0412598,-0.0216064,1.05334,-4.63867,-2.01416,90.1489,-0.024,0.006,-154.01,-0.0162506,-0.175156,0,0,0,0,0,41.68,675.937,2296059
0.12854,0.14801,1.00586,-3.78418,-4.08936,88.3179,-0.175,-0.111,-155.34,-0.0179291,-0.175232,0,0,0,0,0,41.68,675.957,2296074
0.0134277,-0.046875,0.993103,0.366211,-2.31934,86.3647,0.01,0.017,-157.96,-0.0216064,-0.17572,0,0,0,0,0,41.68,675.978,2296104
0.0293579,0.00878906,1.0238,0.671387,-2.2583,85.2661,-0.024,-0.029,-159.24,-0.0234528,-0.175995,0,0,0,0,0,41.68,675.997,2296119
0.0456543,-0.00994873,1.02209,1.15967,-2.44141,83.5571,-0.032,-0.007,-160.51,-0.0253296,-0.176285,0,0,0,0,0,41.68,676.018,2296134
0.0349121,-0.0469971,1.034,-0.976562,-2.0752,81.9092,-0.01,0.021,-162.98,-0.0292511,-0.176895,0,0,0,0,0,41.68,676.037,2296164
0.0657959,0.0317993,1.00519,-1.89209,-2.56348,81.7261,-0.062,-0.045,-164.21,-0.0312805,-0.1772,0,0,0,0,0,41.68,676.057,2296179
-0.0285645,-0.0553589,1.03607,-0.671387,-1.0376,82.0312,0.052,0.011,-165.44,-0.0333252,-0.177536,0,0,0,0,0,41.68,676.078,2296194
0.0302734,0.0275269,0.9599,0.549316,-2.92969,81.665,-0.023,-0.053,-169.11,-0.0395813,-0.178757,0,0,0,0,0,41.68,676.11,2296239
0.0302734,0.0275269,0.9599,0.549316,-2.92969,81.665,-0.023,-0.053,-169.11,-0.0395813,-0.178757,0,0,0,0,0,41.68,676.122,2296239
-0.0170898,-0.131165,1.06281,-0.610352,-2.2583,82.7026,0.05,0.091,-171.59,-0.0439606,-0.17981,0,0,0,0,0,41.68,676.139,2296269
0.0692139,-0.0727539,0.992065,-1.46484,-3.35693,83.374,-0.045,0.047,-172.83,-0.0461426,-0.180206,0,0,0,0,0,41.68,676.162,2296284
0.067749,-0.0705566,1.02966,-0.366211,-2.50244,83.313,-0.045,0.04,-175.33,-0.0506439,-0.180923,0,0,0,0,0,41.68,676.188,2296314
0.067749,-0.0705566,1.02966,-0.366211,-2.50244,83.313,-0.045,0.04,-175.33,-0.0506439,-0.180923,0,0,0,0,0,41.68,676.198,2296314
0.0528564,-0.0467529,0.990417,-0.427246,-2.62451,83.5571,-0.033,0.015,-177.85,-0.0552673,-0.181564,0,0,0,0,0,41.68,676.218,2296344
0.064209,-0.010376,1.05316,-0.427246,-2.01416,84.2895,-0.043,-0.026,179.62,-0.0599518,-0.181595,0,0,0,0,0,41.68,676.247,2296374
0.064209,-0.010376,1.05316,-0.427246,-2.01416,84.2895,-0.043,-0.026,179.62,-0.0599518,-0.181595,0,0,0,0,0,41.68,676.258,2296374
-0.00866699,-0.0819702,1.04089,-1.0376,-0.793457,84.8389,0.026,0.046,177.09,-0.0648651,-0.181717,0,0,0,0,0,41.68,676.278,2296404
0.0303345,-0.0717163,0.977295,-0.793457,-2.19727,85.8765,-0.014,0.035,175.8,-0.0673218,-0.181717,0,0,0,0,0,41.68,676.298,2296419
0.0183105,-0.0543823,1.03223,0.244141,-1.83105,85.3271,0,0.016,174.53,-0.0697937,-0.181671,0,0,0,0,0,41.68,676.318,2296434
0.0487671,0.0653687,0.982361,-0.0610352,-3.2959,85.2051,-0.016,-0.105,171.97,-0.0697937,-0.181747,0,0,0,0,0,41.68,676.338,2296464
-0.00378418,0.00732422,0.982605,-0.305176,-2.62451,84.7778,0.028,-0.04,170.69,-0.0697784,-0.181931,0,0,0,0,0,41.68,676.358,2296479
0.0508423,-0.0606689,1.00769,-0.12207,-3.2959,84.8389,-0.036,0.015,169.42,-0.0697784,-0.182129,0,0,0,0,0,41.68,676.378,2296494
0.0631714,0.00610352,0.976257,0.305176,-4.08936,84.7168,-0.033,-0.052,166.88,-0.0698547,-0.182419,0,0,0,0,0,41.68,676.397,2296524
0.00128174,-0.0167847,1.01947,0.610352,-2.56348,84.8389,0.022,-0.017,165.6,-0.0699158,-0.182602,0,0,0,0,0,41.68,676.417,2296539
0.0430298,-0.0270996,1.01843,0.549316,-2.50244,85.2661,-0.019,-0.018,164.33,-0.0699615,-0.182602,0,0,0,0,0,41.68,676.439,2296554
-0.00897217,-0.00836182,1.02765,1.70898,-2.2583,84.0454,0.037,-0.021,161.8,-0.0699463,-0.182632,0,0,0,0,0,41.68,676.458,2296584
0.0858765,0.0010376,0.976746,-1.0376,-3.11279,84.2895,-0.05,-0.059,160.54,-0.069931,-0.182709,0,0,0,0,0,41.68,676.481,2296599
0.0757446,-0.003479,1.02118,-0.183105,-2.38037,83.7402,-0.039,-0.054,159.28,-0.0699768,-0.182861,0,0,0,0,0,41.68,676.498,2296614
0.00640869,-0.0350952,1.0163,0.488281,-2.68555,85.8154,0.013,0,156.72,-0.0700989,-0.183319,0,0,0,0,0,41.68,676.518,2296644
0.0426025,-0.155396,1.03156,-0.183105,-2.68555,85.8765,-0.068,0.094,155.44,-0.0701904,-0.183487,0,0,0,0,0,41.68,676.538,2296659
-0.00610352,0.0291748,0.955811,0.793457,-3.90625,85.6323,0.052,-0.048,152.85,-0.0704346,-0.183624,0,0,0,0,0,41.68,676.563,2296689
0.0768433,0.0549316,1.00201,0.793457,-4.63867,86.1816,-0.005,-0.111,151.55,-0.0705109,-0.183807,0,0,0,0,0,41.68,676.578,2296704
0.00726318,0.0165405,1.07068,2.19727,-1.83105,85.6934,0.04,-0.044,150.27,-0.0705566,-0.184097,0,0,0,0,0,41.68,676.598,2296719
0.0361328,0.0286865,1.02472,0.610352,-2.62451,84.7778,0.023,-0.066,147.7,-0.0705872,-0.184738,0,0,0,0,0,41.68,676.618,2296750
0.0444336,0.0126343,0.989258,0.366211,-2.62451,83.313,0.007,-0.056,146.45,-0.0705719,-0.185165,0,0,0,0,0,41.68,676.637,2296764
0.0421143,0.0761108,1.00928,0.183105,-2.86865,81.9092,0.047,-0.107,145.2,-0.0705109,-0.185699,0,0,0,0,0,41.68,676.658,2296779
-0.00891113,-0.12561,1.04053,-0.183105,-2.0752,79.1626,-0.025,0.086,144,-0.0704346,-0.186249,0,0,0,0,0,41.68,676.678,2296794
0.0214844,0.00427246,1.03131,0.610352,-1.58691,74.2188,0.026,-0.036,141.71,-0.0702209,-0.187439,0,0,0,0,0,41.68,676.698,2296824
0.0454102,0.0428467,1.01709,0.366211,-1.70898,73.3032,0.032,-0.08,140.6,-0.0700378,-0.188171,0,0,0,0,0,41.68,676.719,2296839
0.0234985,-0.0595093,1.07263,0.12207,-0.976562,72.1436,-0.013,0.011,139.52,-0.0698547,-0.18895,0,0,0,0,0,41.68,676.737,2296854
0.0462646,-0.0568848,1.02948,-0.183105,-2.13623,71.8994,-0.03,-0.006,137.35,-0.0695343,-0.190338,0,0,0,0,0,41.66,676.758,2296884
0.0177002,0.0283203,0.994324,-1.0376,-2.62451,69.9463,0.047,-0.048,136.28,-0.0693665,-0.191055,0,0,0,0,0,41.66,676.778,2296899
-0.0168457,0.0234985,1.00769,-0.732422,-2.50244,65.3076,0.069,-0.02,135.28,-0.0691223,-0.191818,0,0,0,0,0,41.66,676.798,2296914
0.0109253,0.0128784,1.01306,1.52588,-2.74658,60.791,0.043,-0.031,133.39,-0.0684052,-0.193542,0,0,0,0,0,41.66,676.818,2296944
0.0299683,-0.0620728,1.00812,0.305176,-2.56348,59.5093,-0.024,0.006,132.49,-0.0679779,-0.194473,0,0,0,0,0,41.66,676.838,2296959
0.0529785,0.0147705,0.982117,-0.976562,-1.40381,56.8237,0.016,-0.062,130.76,-0.0675964,-0.196304,0,0,0,0,0,41.66,676.858,2296990
0.0192261,-0.00762939,0.968628,-0.610352,-2.44141,55.481,0.021,-0.021,129.93,-0.0675659,-0.197281,0,0,0,0,0,41.66,676.878,2297004
