raw_accel_x,raw_accel_y,raw_accel_z,raw_gyro_x,raw_gyro_y,raw_gyro_z,world_accel_x,world_accel_y,yaw,x,y,z,left_encoder_rate,right_encoder_rate,left_motor,right_motor,temp,fpga time,navx time
-0.0136108,-0.0181885,1.01221,-0.12207,-0.183105,-0.0610352,-0.002,0,-1.42,0.0470428,-0.0399475,0,0,0,0,0,40.01,702.006,728680
-0.0102539,-0.0157471,1.01288,-0.0610352,-0.0610352,0,0,0.002,-1.42,0.0470428,-0.0399475,0,0,0,0,0,40.01,702.017,728695
-0.010437,-0.0192871,1.01404,-0.12207,-0.0610352,0,0,0,0,0,0,0,0,0,0,0,40.01,702.036,728710
-0.0100708,-0.0216675,1.01233,-0.0610352,-0.0610352,0,0.001,-0.003,0,0,0,0,0,0,0,0,40.01,702.056,728740
-0.00805664,-0.0177002,1.01556,0,-0.0610352,-0.0610352,0.003,0,0,0,0,0,0,0,0,0,40.01,702.078,728755
-0.0132446,-0.015686,1.01746,0.0610352,0,-0.12207,-0.002,0.002,0,0,0,0,0,0,0,0,40.01,702.096,728770
-0.0129395,-0.019043,1.01721,-0.0610352,-0.0610352,0,-0.001,0,0,0,0,0,0,0,0,0,40.01,702.117,728800
-0.0145874,-0.0175781,1.0152,-0.0610352,-0.12207,-0.0610352,-0.003,0,0,0,0,0,0,0,0,0,40.01,702.136,728815
-0.0127563,-0.0206299,1.01392,0,0.0610352,-0.0610352,-0.001,-0.002,-0.01,0,0,0,0,0,0,0,40.01,702.156,728830
-0.0107422,-0.0202026,1.01709,-0.0610352,-0.12207,-0.12207,0,-0.001,0,0,0,0,0,0,0,0,40.01,702.176,728860
-0.010376,-0.0184937,1.01654,0,0,-0.0610352,0,0,0,0,0,0,0,0,0,0,40.01,702.198,728875
-0.0115967,-0.0176392,1.0127,0.0610352,0,-0.0610352,0,0,0,0,0,0,0,0,0,0,40.01,702.215,728891
-0.00946045,-0.0197754,1.01624,-0.0610352,-0.0610352,-0.12207,0.001,-0.001,-0.01,0,0,0,0,0,0,0,40.01,702.236,728920
-0.0101929,-0.0176392,1.0163,-0.0610352,-0.0610352,0,0,0,-0.01,0,0,0,0,0,0,0,40.01,702.256,728935
-0.010376,-0.0181274,1.00964,0.0610352,0.0610352,-0.0610352,0,0,0,0,0,0,0,0,0,0,40.01,702.276,728951
-0.0130615,-0.0195312,1.0174,-0.0610352,-0.0610352,-0.0610352,-0.001,-0.001,0,0,0,0,0,0,0,0,40.01,702.296,728980
-0.00921631,-0.0189209,1.01587,0,-0.0610352,0,0.001,0,0,0,0,0,0,0,0,0,40.01,702.318,728995
-0.0100098,-0.0174561,1.00897,-0.0610352,-0.12207,0,0.001,0,-0.01,0,0,0,0,0,0,0,40.05,702.336,729011
-0.0100098,-0.0172729,1.01648,0,-0.0610352,-0.0610352,0.001,0,0,0,0,0,0,0,0,0,40.05,702.356,729040
-0.0118408,-0.0206909,1.00781,-0.0610352,-0.183105,-0.0610352,0,-0.002,0,0,0,0,0,0,0,0,40.05,702.381,729055
-0.0119629,-0.0182495,1.01379,0.0610352,0.0610352,-0.0610352,0,0,0,0,0,0,0,0,0,0,40.05,702.396,729071
-0.0120239,-0.0172729,1.01965,-0.0610352,-0.244141,-0.0610352,0,0.001,0,0,0,0,0,0,0,0,40.05,702.425,729100
-0.0128174,-0.017334,1.00562,-0.0610352,-0.12207,-0.12207,-0.001,0,0,0,0,0,0,0,0,0,40.05,702.436,729115
-0.0109863,-0.0158691,1.01276,0,-0.12207,0,0,0.002,0,0,0,0,0,0,0,0,40.05,702.457,729131
-0.0108643,-0.0184326,1.0127,-0.0610352,-0.0610352,-0.0610352,0,0,0,0,0,0,0,0,0,0,40.05,702.476,729160
-0.0119019,-0.0187378,1.01434,-0.0610352,-0.0610352,0,0,0,0,0,0,0,0,0,0,0,40.05,702.496,729175
-0.0107422,-0.0182495,1.01556,-0.12207,-0.0610352,-0.12207,0,0,-0.01,0,0,0,0,0,0,0,40.05,702.518,729205
-0.0113525,-0.0170288,1.01392,-0.12207,-0.183105,-0.0610352,0,0.001,-0.01,0,0,0,0,0,0,0,40.05,702.536,729220
-0.0110474,-0.0255127,1.00958,-0.0610352,0,0,0,-0.007,-0.01,0,0,0,0,0,0,0,40.05,702.556,729235
-0.0130005,-0.0167236,1.0166,0,-0.0610352,-0.0610352,-0.001,0.001,-0.01,0,0,0,0,0,0,0,40.05,702.576,729251
-0.0108032,-0.015625,1.01447,-0.12207,-0.0610352,-0.0610352,0,0.002,-0.01,0,0,0,0,0,0,0,40.05,702.596,729280
-0.010498,-0.0176392,1.01392,0,0,-0.0610352,0,0,-0.01,0,0,0,0,0,0,0,40.05,702.617,729295
-0.0119629,-0.0170288,1.01447,0,-0.0610352,0.0610352,0,0.001,-0.01,0,0,0,0,0,0,0,40.05,702.636,729311
-0.0102539,-0.0152588,1.01581,0,0.0610352,-0.0610352,0,0.003,-0.01,0,0,0,0,0,0,0,40.05,702.656,729340
-0.0123291,-0.0183105,1.01385,-0.183105,-0.12207,0,-0.001,0,-0.01,0,0,0,0,0,0,0,40.05,702.677,729355
-0.00958252,-0.0177002,1.00604,0.0610352,0,-0.0610352,0.001,0,0,0,0,0,0,0,0,0,40.05,702.696,729371
-0.0103149,-0.0197144,1.01581,0,-0.0610352,-0.12207,0,-0.001,0,0,0,0,0,0,0,0,40.05,702.716,729400
-0.0116577,-0.019165,1.01556,-0.0610352,-0.12207,0,0,0,0,0,0,0,0,0,0,0,40.05,702.736,729415
-0.0118408,-0.0187988,1.01001,-0.183105,-0.0610352,-0.12207,0,0,0,0,0,0,0,0,0,0,40.05,702.756,729431
-0.0108032,-0.017334,1.01392,-0.0610352,-0.0610352,0,0,0,-0.01,0,0,0,0,0,0,0,40.05,702.776,729461
-0.0124512,-0.0177612,1.01184,-0.0610352,-0.12207,-0.0610352,-0.001,0,-0.01,0,0,0,0,0,0,0,40.05,702.796,729476
-0.0114136,-0.0167847,1.01648,0,0.0610352,-0.0610352,0,0.001,-0.01,0,0,0,0,0,0,0,40.05,702.819,729506
-0.0119019,-0.0161743,1.01465,-0.0610352,-0.12207,-0.0610352,0,0.002,-0.01,0,0,0,0,0,0,0,40.01,702.838,729521
-0.012146,-0.0186157,1.01184,-0.0610352,-0.0610352,-0.0610352,-0.001,0,-0.01,0,0,0,0,0,0,0,40.01,702.857,729536
-0.0117188,-0.0178223,1.00946,-0.12207,-0.0610352,-0.0610352,0,0,-0.01,0,0,0,0,0,0,0,40.01,702.876,729551
-0.00964355,-0.015625,1.01093,0,0,-0.183105,0.001,0.002,-0.01,0,0,0,0,0,0,0,40.01,702.896,729581
-0.0114136,-0.0193481,1.01013,-0.0610352,-0.12207,-0.12207,0,-0.001,-0.01,0,0,0,0,0,0,0,40.01,702.916,729596
-0.0115967,-0.017334,1.0152,0.12207,0,0.0610352,0,0.001,-0.01,0,0,0,0,0,0,0,40.01,702.935,729611
-0.0100098,-0.0195923,1.01611,0,-0.183105,-0.0610352,0.001,-0.001,-0.01,0,0,0,0,0,0,0,40.01,702.956,729641
-0.0112915,-0.0188599,1.01135,-0.0610352,-0.0610352,-0.12207,0,0,-0.01,0,0,0,0,0,0,0,40.01,702.976,729656
-0.00823975,-0.0210571,1.01428,-0.12207,-0.183105,0,0.002,-0.002,-0.01,0,0,0,0,0,0,0,40.01,702.996,729671
-0.0114136,-0.0197754,1.01532,-0.0610352,-0.0610352,-0.0610352,0,-0.001,0,0,0,0,0,0,0,0,40.01,703.017,729701
-0.0115356,-0.0178833,1.01398,0,0,-0.12207,0,0,-0.01,0,0,0,0,0,0,0,40.01,703.055,729731
-0.00964355,-0.0187988,1.01624,0,0,-0.0610352,0.001,0,-0.01,0,0,0,0,0,0,0,40.01,703.089,729776
-0.00964355,-0.0187988,1.01624,0,0,-0.0610352,0.001,0,-0.01,0,0,0,0,0,0,0,40.01,703.096,729776
-0.0139771,-0.0203247,1.00903,0.0610352,0.0610352,-0.0610352,-0.002,-0.002,-0.01,0,0,0,0,0,0,0,40.01,703.116,729791
-0.00970459,-0.0177002,1.01453,0.12207,0,-0.0610352,0.001,0,-0.01,0,0,0,0,0,0,0,40.01,703.146,729821
-0.00939941,-0.0181274,1.01709,-0.0610352,-0.12207,0,0.001,0,-0.01,0,0,0,0,0,0,0,40.01,703.156,729836
-0.0112305,-0.0201416,1.02185,0.0610352,0,0,0,-0.001,-0.01,0,0,0,0,0,0,0,40.01,703.176,729851
-0.0106812,-0.0174561,1.01917,-0.0610352,-0.0610352,-0.12207,0,0,-0.01,0,0,0,0,0,0,0,40.01,703.196,729881
-0.00964355,-0.0200195,1.01288,-0.0610352,-0.0610352,0.0610352,0.001,-0.001,-0.01,0,0,0,0,0,0,0,40.01,703.216,729896
-0.0111694,-0.0187988,1.01483,-0.0610352,-0.0610352,-0.0610352,0,0,-0.01,0,0,0,0,0,0,0,40.01,703.239,729911
-0.00872803,-0.0165405,1.01489,-0.12207,-0.12207,-0.12207,0.002,0.001,-0.01,0,0,0,0,0,0,0,40.01,703.256,729941
-0.0116577,-0.0189209,1.01154,-0.12207,-0.12207,-0.0610352,0,0,0,0,0,0,0,0,0,0,40.01,703.276,729956
-0.0131836,-0.0184326,1.01648,-0.0610352,-0.0610352,0,-0.002,0,0,0,0,0,0,0,0,0,40.01,703.296,729971
-0.00836182,-0.0195312,1.01178,-0.0610352,-0.0610352,-0.12207,0.002,-0.001,-0.01,0,0,0,0,0,0,0,40.01,703.319,730001
-0.0115967,-0.0220337,1.01672,-0.0610352,-0.12207,-0.0610352,0,-0.003,-0.01,0,0,0,0,0,0,0,40.01,703.336,730016
-0.0088501,-0.020874,1.0105,0,-0.12207,-0.0610352,0.002,-0.002,-0.01,0,0,0,0,0,0,0,40.03,703.356,730031
-0.00939941,-0.0200806,1.01086,-0.0610352,-0.0610352,-0.12207,0.001,-0.001,0,0,0,0,0,0,0,0,40.03,703.376,730061
-0.0106201,-0.015564,1.01178,0,-0.12207,-0.0610352,0,0.002,-0.01,0,0,0,0,0,0,0,40.03,703.396,730076
-0.0103149,-0.0178833,1.01428,-0.0610352,-0.12207,-0.12207,0,0,0,0,0,0,0,0,0,0,40.03,703.416,730091
-0.0117188,-0.0168457,1.01306,0.0610352,0.12207,-0.0610352,0,0.001,0,0,0,0,0,0,0,0,40.03,703.436,730121
-0.00897217,-0.0176392,1.00952,-0.0610352,-0.0610352,0,0.002,0,0,0,0,0,0,0,0,0,40.03,703.456,730136
-0.0123291,-0.0187988,1.01001,-0.0610352,-0.0610352,0,-0.001,0,0,0,0,0,0,0,0,0,40.03,703.477,730151
-0.0124512,-0.0199585,1.01471,-0.12207,-0.0610352,-0.12207,-0.001,-0.001,0,0,0,0,0,0,0,0,40.03,703.496,730181
-0.013855,-0.019043,1.01428,-0.0610352,0,-0.183105,-0.002,0,0,0,0,0,0,0,0,0,40.03,703.516,730196
-0.0102539,-0.0198364,1.01141,-0.0610352,-0.12207,-0.0610352,0,-0.001,0,0,0,0,0,0,0,0,40.03,703.536,730211
-0.00836182,-0.0188599,1.01532,-0.0610352,-0.0610352,-0.12207,0.002,0,0,0,0,0,0,0,0,0,40.03,703.556,730241
-0.0101929,-0.0148926,1.01257,-0.12207,-0.0610352,-0.0610352,0,0.003,0,0,0,0,0,0,0,0,40.03,703.576,730256
-0.0102539,-0.0174561,1.01733,-0.0610352,-0.12207,-0.12207,0,0,0,0,0,0,0,0,0,0,40.03,703.598,730286
-0.0108643,-0.0176392,1.01196,-0.12207,-0.12207,-0.12207,0,0,0,0,0,0,0,0,0,0,40.03,703.616,730301
-0.0101929,-0.0176392,1.01379,0,0,-0.12207,0,0,0,0,0,0,0,0,0,0,40.03,703.638,730316
-0.0136108,-0.0201416,1.01477,-0.0610352,-0.183105,-0.12207,-0.002,-0.001,0,0,0,0,0,0,0,0,40.03,703.657,730332
-0.00982666,-0.0209961,1.01117,0,0,0.12207,0.001,-0.002,0,0,0,0,0,0,0,0,40.03,703.676,730361
-0.0101318,-0.0193481,1.00879,-0.0610352,-0.183105,-0.0610352,0,-0.001,0,0,0,0,0,0,0,0,40.03,703.697,730376
-0.0145874,-0.0152588,1.01447,0.0610352,0,-0.12207,-0.003,0.003,0,0,0,0,0,0,0,0,40.03,703.717,730392
-0.0101318,-0.0143433,1.01221,0.183105,0,-0.12207,0,0.003,0,0,0,0,0,0,0,0,40.03,703.739,730421
-0.0107422,-0.0193481,1.01056,-0.0610352,-0.0610352,-0.0610352,0,-0.001,0,0,0,0,0,0,0,0,40.03,703.756,730436
-0.0107422,-0.0154419,1.01123,0,0,0,0,0.002,0,0,0,0,0,0,0,0,40.03,703.777,730452
-0.00817871,-0.0159302,1.01904,0,0.0610352,-0.12207,0.002,0.002,0,0,0,0,0,0,0,0,40.03,703.797,730481
-0.0100708,-0.0196533,1.01642,-0.12207,-0.183105,-0.0610352,0,-0.001,0,0,0,0,0,0,0,0,40.03,703.816,730496
-0.00866699,-0.0171509,1.01233,-0.0610352,-0.0610352,0,0.002,0.001,0,0,0,0,0,0,0,0,40.03,703.837,730512
-0.0107422,-0.019104,1.01593,-0.0610352,0,-0.12207,0,0,0,0,0,0,0,0,0,0,40.02,703.856,730541
-0.0117798,-0.0183716,1.00922,0,0.0610352,-0.0610352,0,0,0,0,0,0,0,0,0,0,40.02,703.877,730556
-0.00848389,-0.0236816,1.01215,-0.0610352,-0.0610352,-0.12207,0.002,-0.005,0,0,0,0,0,0,0,0,40.02,703.897,730572
-0.0131226,-0.0189209,1.00989,0,-0.0610352,-0.0610352,-0.002,0,0,0,0,0,0,0,0,0,40.02,703.917,730601
-0.00817871,-0.0196533,1.01056,0.12207,0.12207,-0.0610352,0.002,-0.001,0,0,0,0,0,0,0,0,40.02,703.938,730616
-0.0133057,-0.0189819,1.01294,-0.0610352,-0.12207,0,-0.002,0,0,0,0,0,0,0,0,0,40.02,703.957,730632
-0.0100098,-0.0192261,1.01233,-0.12207,-0.0610352,-0.0610352,0.001,0,0,0,0,0,0,0,0,0,40.02,703.977,730661
-0.0106812,-0.0214844,1.0116,-0.12207,-0.183105,0,0,-0.003,0,0,0,0,0,0,0,0,40.02,703.996,730676
-0.0137329,-0.0151978,1.01392,0.0610352,0.0610352,-0.0610352,-0.002,0.003,0,0,0,0,0,0,0,0,40.02,704.016,730692
-0.00921631,-0.0169678,1.00964,-0.0610352,-0.0610352,-0.183105,0.001,0.001,0,0,0,0,0,0,0,0,40.02,704.037,730721
-0.012207,-0.0177002,1.00714,0,-0.0610352,-0.12207,-0.001,0,0,0,0,0,0,0,0,0,40.02,704.058,730736
-0.0112305,-0.0202637,1.02008,0,0.0610352,-0.12207,0,-0.001,0,0,0,0,0,0,0,0,40.02,704.077,730752
-0.0108643,-0.0163574,1.01337,0,-0.12207,-0.0610352,0,0.001,0,0,0,0,0,0,0,0,40.02,704.096,730781
-0.0113525,-0.0186768,1.00861,0.0610352,-0.0610352,0,0,0,0,0,0,0,0,0,0,0,40.02,704.119,730796
-0.00933838,-0.0186157,1.01526,-0.12207,-0.244141,-0.183105,0.001,0,0,0,0,0,0,0,0,0,40.02,704.148,730826
-0.00744629,-0.0193481,1.01569,0,-0.0610352,0,0.003,-0.001,0,0,0,0,0,0,0,0,40.02,704.158,730841
-0.00921631,-0.0178833,1.01593,-0.0610352,0.0610352,-0.0610352,0.001,0,0,0,0,0,0,0,0,0,40.02,704.176,730856
-0.0110474,-0.0185547,1.00885,0.0610352,0,0,0,0,0,0,0,0,0,0,0,0,40.02,704.198,730872
-0.00848389,-0.0163574,1.01691,-0.0610352,-0.12207,0,0.002,0.001,0,0,0,0,0,0,0,0,40.02,704.218,730902
-0.0116577,-0.0209351,1.01318,-0.12207,-0.0610352,0,0,-0.002,0,0,0,0,0,0,0,0,40.02,704.238,730917
-0.0120239,-0.0183716,1.01355,0,0.0610352,-0.12207,0,0,0,0,0,0,0,0,0,0,40.02,704.256,730932
-0.00872803,-0.0188599,1.01154,-0.0610352,-0.244141,-0.12207,0.002,0,0,0,0,0,0,0,0,0,40.02,704.276,730947
-0.00592041,-0.0184937,1.01392,0.0610352,-0.183105,0,0.005,0,0,0,0,0,0,0,0,0,40.02,704.296,730977
-0.0132446,-0.0186157,1.01782,0,0,-0.0610352,-0.002,0,0,0,0,0,0,0,0,0,40.02,704.32,730992
-0.0118408,-0.0181274,1.01227,-0.0610352,-0.244141,-0.12207,0,0,0,0,0,0,0,0,0,0,40.02,704.353,731037
-0.0114136,-0.0169678,1.01184,0,0,-0.0610352,0,0.001,0,0,0,0,0,0,0,0,40.04,704.383,731067
-0.010437,-0.0200806,1.01404,-0.0610352,0,-0.0610352,0,-0.001,0,0,0,0,0,0,0,0,40.04,704.398,731082
-0.0125732,-0.0202026,1.01428,0,0,-0.0610352,-0.001,-0.001,0,0,0,0,0,0,0,0,40.04,704.428,731112
-0.0125732,-0.0202026,1.01428,0,0,-0.0610352,-0.001,-0.001,0,0,0,0,0,0,0,0,40.04,704.436,731112
-0.0109253,-0.0204468,1.01294,0,0,0,0,-0.002,0,0,0,0,0,0,0,0,40.04,704.456,731142
-0.0088501,-0.020752,1.01227,0,0,-0.12207,0.002,-0.002,0,0,0,0,0,0,0,0,40.04,704.476,731157
-0.0100708,-0.0219116,1.01587,-0.0610352,-0.0610352,-0.0610352,0,-0.003,0,0,0,0,0,0,0,0,40.04,704.503,731187
-0.00970459,-0.0171509,1.01184,0,-0.12207,-0.183105,0.001,0.001,0,0,0,0,0,0,0,0,40.04,704.542,731217
-0.0102539,-0.0174561,1.01782,-0.0610352,-0.12207,-0.12207,0,0,0,0,0,0,0,0,0,0,40.04,704.558,731232
-0.00915527,-0.0179443,1.0152,0.12207,0,-0.12207,0.001,0,0,0,0,0,0,0,0,0,40.04,704.576,731262
-0.0120239,-0.0195923,1.01385,-0.0610352,-0.0610352,-0.12207,-0.001,-0.001,0,0,0,0,0,0,0,0,40.04,704.6,731277
-0.00854492,-0.0194092,1.01398,-0.0610352,0,-0.0610352,0.002,-0.001,0,0,0,0,0,0,0,0,40.04,704.616,731292
-0.0136108,-0.0213623,1.01624,0.0610352,-0.0610352,0,-0.002,-0.003,0,0,0,0,0,0,0,0,40.04,704.636,731322
-0.0120239,-0.0194702,1.01782,0,-0.12207,-0.12207,-0.001,-0.001,0,0,0,0,0,0,0,0,40.04,704.656,731337
-0.0103149,-0.0213623,1.00757,-0.0610352,-0.12207,0,0,-0.003,0,0,0,0,0,0,0,0,40.04,704.676,731352
-0.0115967,-0.0158691,1.01251,-0.0610352,-0.0610352,-0.12207,0,0.002,0,0,0,0,0,0,0,0,40.04,704.696,731382
-0.0105591,-0.0200195,1.01581,0,0.0610352,-0.0610352,0,-0.001,0,0,0,0,0,0,0,0,40.04,704.716,731397
-0.0101929,-0.0172729,1.01324,0.0610352,0,-0.183105,0,0.001,0,0,0,0,0,0,0,0,40.04,704.736,731412
-0.0100708,-0.0150146,1.01331,-0.0610352,-0.0610352,-0.12207,0,0.003,0,0,0,0,0,0,0,0,40.04,704.76,731442
-0.0110474,-0.0169678,1.01221,0,-0.0610352,0,0,0.001,0,0,0,0,0,0,0,0,40.04,704.782,731457
-0.00946045,-0.0183105,1.01752,-0.12207,-0.12207,-0.0610352,0.001,0,0,0,0,0,0,0,0,0,40.04,704.797,731472
-0.0102539,-0.019043,1.01855,0,0,-0.0610352,0,0,0,0,0,0,0,0,0,0,40.04,704.818,731502
-0.0145264,-0.149963,1.03662,-1.64795,0,-0.0610352,-0.003,-0.13,0,0,-7.62939e-05,0,0,0,0,0,40.04,704.836,731517
-0.0128784,0.0348511,0.976196,-1.0376,-0.366211,0.366211,-0.002,0.055,0,0,-0.000457764,0,0,0,0,0,40.04,704.861,731547
-0.0159912,-0.0160522,1.00311,1.95312,-0.183105,0.183105,-0.005,0.004,0,0,-0.000579834,0,0,0,0,0,40.03,704.878,731562
-0.00170898,-0.0248413,1.00824,2.80762,-0.305176,-0.183105,0.009,-0.004,0,0,-0.000717163,0,0,0,0,0,40.03,704.896,731577
-0.0289307,-0.0286865,1.0188,2.13623,-0.244141,0,-0.018,-0.008,0,0,-0.000717163,0,0,0,0,0,40.03,704.916,731592
-0.003479,-0.0541382,1.01343,-0.732422,0,-0.610352,0.007,-0.034,0,0,-0.000747681,0,0,0,0,0,40.03,704.936,731622
0.00128174,0.0168457,1.01056,-1.0376,0.183105,0.0610352,0.012,0.037,0,0,-0.000823975,0,0,0,0,0,40.03,704.971,731652
-0.00653076,-0.0664673,1.02173,0,0.12207,0.549316,0.004,-0.046,0,0,-0.000869751,0,0,0,0,0,40.03,704.98,731667
-0.0153809,-0.0990601,1.00854,-1.77002,0,0.488281,-0.004,-0.077,0,0,-0.000976562,0,0,0,0,0,40.03,704.996,731682
-0.0144653,-0.0309448,0.994934,-2.80762,-0.12207,0.12207,-0.003,-0.008,-0.01,0,-0.00115967,0,0,0,0,0,40.03,705.018,731697
-0.0189819,-0.0452881,1.00543,-1.52588,0.0610352,-0.305176,-0.008,-0.021,0,0,-0.00134277,0,0,0,0,0,40.03,705.037,731712
-0.0134277,-0.0600586,0.997375,1.46484,0,-1.0376,-0.002,-0.036,0,0,-0.00183105,0,0,0,0,0,40.03,705.057,731742
-0.00976562,-0.05896,1.01093,1.28174,-0.0610352,-1.34277,0.001,-0.035,0.02,0,-0.00213623,0,0,0,0,0,40.03,705.076,731757
-0.010437,-0.0655518,1.02527,-0.488281,-0.366211,-1.15967,0,-0.04,0.06,0,-0.00286865,0,0,0,0,0,40.03,705.1,731787
-0.0148315,-0.0268555,1.01208,-0.366211,-0.305176,0.0610352,-0.003,-0.002,0.06,0,-0.00328064,0,0,0,0,0,40.03,705.116,731802
-0.000549316,0.00152588,1.00311,0.549316,-0.671387,0.915527,0.01,0.025,0.05,0,-0.00367737,0,0,0,0,0,40.03,705.136,731817
-0.0112915,0.00482178,1.01331,1.28174,-0.366211,1.40381,0,0.028,0.04,0,-0.00404358,0,0,0,0,0,40.03,705.157,731833
0.0157471,-0.0166626,1.01471,0.12207,0.427246,1.09863,0.026,0.006,0,1.52588e-05,-0.00439453,0,0,0,0,0,40.03,705.177,731862
0.00408936,-0.00909424,1.01294,-0.366211,0.244141,0.305176,0.014,0.013,-0.01,4.57764e-05,-0.00439453,0,0,0,0,0,40.03,705.196,731877
-0.0201416,-0.0205078,1.01886,-1.09863,0.549316,-0.427246,-0.009,0.002,-0.01,9.15527e-05,-0.00439453,0,0,0,0,0,40.03,705.216,731893
-0.0223389,0.0101318,1.01025,-0.12207,0.183105,-1.95312,-0.011,0.033,0.02,9.15527e-05,-0.00428772,0,0,0,0,0,40.03,705.237,731922
-0.0380859,-0.0217285,0.993347,0.488281,0.366211,-1.15967,-0.027,0,0.04,7.62939e-05,-0.00419617,0,0,0,0,0,40.03,705.256,731937
-0.0152588,-0.0302124,1.01074,0.549316,-0.183105,-0.305176,-0.003,-0.007,0.05,3.05176e-05,-0.00419617,0,0,0,0,0,40.03,705.276,731953
-0.0256348,-0.0377197,1.02472,0,-0.610352,0.732422,-0.014,-0.014,0.04,-1.52588e-05,-0.00419617,0,0,0,0,0,40.03,705.296,731982
-0.00244141,-0.052002,1.0285,-1.0376,-0.0610352,0.366211,0.009,-0.028,0.03,-1.52588e-05,-0.00422668,0,0,0,0,0,40.03,705.316,731997
-0.00262451,-0.0261841,1.01007,-0.549316,-0.244141,-0.793457,0.008,-0.002,0.03,-1.52588e-05,-0.00428772,0,0,0,0,0,40.03,705.339,732027
-0.00585938,-0.00189209,1.00616,0.366211,0.854492,-1.2207,0.005,0.021,0.05,-1.52588e-05,-0.00428772,0,0,0,0,0,40.03,705.356,732042
-0.0393066,-0.0389404,1.00281,1.40381,0.549316,1.15967,-0.027,-0.012,0.15,-7.62939e-05,-0.00489807,0,0,0,0,0,40.03,705.464,732147
-0.00897217,-0.0996094,1.02478,1.64795,-0.12207,-0.305176,0.003,-0.072,0.14,-0.000106812,-0.00511169,0,0,0,0,0,40.03,705.483,732162
-0.00457764,0.010498,0.948364,-1.28174,-0.305176,0.12207,0.007,0.034,0.19,-0.00012207,-0.00808716,0,0,0,0,0,40.03,705.596,732267
-0.00177002,0.02771,1.00867,-0.183105,-0.12207,0.183105,0.01,0.053,0.18,-0.00012207,-0.00857544,0,0,0,0,0,40.03,705.605,732282
-0.0328369,0.0774536,1.06354,0.0610352,0.671387,0.549316,-0.019,0.104,0.18,-0.00012207,-0.00895691,0,0,0,0,0,40.03,705.622,732298
-0.00872803,-0.0140381,0.987671,0,-0.0610352,-1.52588,0.003,0.01,0.18,-0.00012207,-0.0107269,0,0,0,0,0,40.03,705.673,732358
-0.00872803,-0.0140381,0.987671,0,-0.0610352,-1.52588,0.003,0.01,0.18,-0.00012207,-0.0107269,0,0,0,0,0,40.03,705.683,732358
-0.0161743,-0.0444946,1.02631,-0.183105,0.732422,-1.58691,-0.003,-0.019,0.21,-0.00012207,-0.0107269,0,0,0,0,0,40.03,705.697,732373
-0.0057373,-0.0285034,0.977234,-0.12207,0.12207,0.12207,0.006,-0.004,0.21,-4.57764e-05,-0.0108337,0,0,0,0,0,40.03,705.716,732403
-0.0222778,0.0043335,0.98468,-0.183105,-0.366211,-0.12207,-0.009,0.028,0.22,0,-0.0108948,0,0,0,0,0,40.03,705.736,732418
-0.00512695,-0.0266113,1.03583,-0.549316,0.366211,0.0610352,0.008,-0.001,0.21,0,-0.0109253,0,0,0,0,0,40.03,705.756,732433
-0.0302124,-0.053772,0.997864,-0.366211,-0.244141,0.976562,-0.016,-0.029,0.2,0,-0.0110931,0,0,0,0,0,40.03,705.781,732463
-0.00769043,-0.020813,0.980835,-0.854492,-0.366211,1.70898,0.005,0.003,0.17,0,-0.0112,0,0,0,0,0,40.03,705.799,732478
-0.0477295,0.0353394,1.0304,-0.427246,0.183105,1.09863,-0.033,0.06,0.15,-1.52588e-05,-0.0112762,0,0,0,0,0,40.03,705.816,732493
0.00378418,-0.0408325,0.978333,-0.305176,-0.244141,0.305176,0.016,-0.017,0.14,-0.000106812,-0.0113373,0,0,0,0,0,40.03,705.836,732523
-0.00622559,-0.0215454,1.03302,-0.244141,-0.488281,-0.305176,0.007,0.003,0.15,-0.000106812,-0.0113373,0,0,0,0,0,40.03,705.856,732538
-0.000427246,-0.039856,0.970886,-0.12207,-0.732422,0.305176,0.012,-0.016,0.15,-0.000106812,-0.0113373,0,0,0,0,0,40.03,705.876,732553
-0.00720215,-0.0527954,1.07507,0.488281,0,0.244141,0.006,-0.026,0.14,-0.000106812,-0.0113678,0,0,0,0,0,40.03,705.896,732568
0.00177002,0.0332642,0.950256,-0.366211,-0.427246,-0.732422,0.014,0.056,0.16,-0.000106812,-0.0114746,0,0,0,0,0,40.02,705.916,732598
-0.0280151,-0.0338745,1.04443,0.427246,0.793457,-0.915527,-0.014,-0.008,0.17,-0.000106812,-0.0114899,0,0,0,0,0,40.02,705.936,732613
0.0159912,-0.0237427,1.02002,0.671387,0.0610352,0.732422,0.029,0,0.16,-9.15527e-05,-0.0115967,0,0,0,0,0,40.02,705.961,732643
-0.0283813,-0.0373535,1.00348,-0.488281,0.12207,0.0610352,-0.015,-0.013,0.15,-7.62939e-05,-0.0116577,0,0,0,0,0,40.02,705.978,732658
-0.0134277,0.020874,0.960083,-0.793457,-0.732422,-0.183105,0,0.043,0.15,-6.10352e-05,-0.0117188,0,0,0,0,0,40.02,705.997,732673
-0.0134888,-0.00488281,1.05023,-0.366211,-0.183105,-0.12207,0,0.02,0.16,-6.10352e-05,-0.0115814,0,0,0,0,0,40.02,706.023,732703
-0.0196533,0.0148315,1.00061,-0.427246,-0.12207,0.305176,-0.006,0.038,0.16,-6.10352e-05,-0.0114441,0,0,0,0,0,40.02,706.042,732718
-0.0211792,-0.0810547,1.04993,-0.854492,-0.12207,-0.671387,-0.007,-0.056,0.15,-6.10352e-05,-0.0112305,0,0,0,0,0,40.02,706.062,732748
0.0098877,0.0148315,0.9823,-0.305176,-1.2207,-0.854492,0.023,0.038,0.16,-4.57764e-05,-0.0111694,0,0,0,0,0,40.02,706.076,732763
-0.0155029,-0.0140991,0.986084,0.0610352,-0.854492,-1.2207,-0.002,0.009,0.18,-3.05176e-05,-0.0110779,0,0,0,0,0,40.02,706.098,732778
-0.0123901,-0.0421753,1.05005,0.488281,0.427246,-0.732422,0.001,-0.016,0.19,0,-0.0110016,0,0,0,0,0,40.02,706.117,732793
0.03125,0.0213623,0.99115,0.0610352,-0.427246,-0.488281,0.044,0.044,0.2,1.52588e-05,-0.0108795,0,0,0,0,0,40.02,706.137,732823
-0.0209961,0.0390625,0.990479,-0.305176,0.244141,-0.549316,-0.008,0.062,0.22,0.00012207,-0.0105591,0,0,0,0,0,40.02,706.171,732853
-0.0209961,0.0390625,0.990479,-0.305176,0.244141,-0.549316,-0.008,0.062,0.22,0.00012207,-0.0105591,0,0,0,0,0,40.02,706.18,732853
-0.0252686,-0.0198364,1.05963,-0.0610352,0.488281,0.793457,-0.011,0.005,0.22,0.00012207,-0.00997925,0,0,0,0,0,40.02,706.197,732883
-0.00152588,-0.0450439,1.01727,-0.488281,0.0610352,0.305176,0.011,-0.02,0.21,0.00012207,-0.00967407,0,0,0,0,0,40.02,706.216,732898
-0.0440063,-0.00628662,0.976807,-0.427246,-0.549316,0,-0.031,0.017,0.2,0.000106812,-0.00938416,0,0,0,0,0,40.02,706.236,732913
-0.0010376,-0.0606689,1.04901,-0.0610352,-0.366211,-0.12207,0.012,-0.035,0.21,1.52588e-05,-0.00868225,0,0,0,0,0,40.02,706.257,732943
-0.0358887,0.0132446,1.00226,0.366211,-0.671387,-0.366211,-0.022,0.037,0.21,-1.52588e-05,-0.00831604,0,0,0,0,0,40.02,706.278,732958
0.00280762,-0.0411377,0.999146,-0.0610352,-1.09863,-0.305176,0.015,-0.017,0.21,-6.10352e-05,-0.00794983,0,0,0,0,0,40.02,706.299,732973
-0.032959,-0.104248,1.01862,-4.5166,-0.732422,-0.793457,-0.02,-0.077,0.23,-0.000152588,-0.00743103,0,0,0,0,0,40.02,706.317,733003
0.0131836,-0.0592651,0.971252,-3.41797,-0.793457,-0.793457,0.025,-0.031,0.24,-0.000198364,-0.00730896,0,0,0,0,0,40.02,706.339,733018
-0.0271606,-0.0196533,1.01208,-0.183105,0.427246,-0.427246,-0.014,0.009,0.25,-0.000244141,-0.00718689,0,0,0,0,0,40.02,706.356,733033
-0.0150146,-0.0128174,0.97345,3.78418,0.244141,0.183105,-0.003,0.014,0.24,-0.000244141,-0.00701904,0,0,0,0,0,40.02,706.377,733063
-0.024292,-0.0065918,1.00458,4.27246,-0.183105,-0.854492,-0.011,0.021,0.25,-0.000244141,-0.00691223,0,0,0,0,0,40.02,706.396,733078
-0.00427246,0.0145874,1.01367,1.34277,-0.12207,-0.366211,0.008,0.042,0.26,-0.000244141,-0.0067749,0,0,0,0,0,40.02,706.417,733093
-0.0258789,-0.03125,1.00897,-0.915527,-0.0610352,-1.34277,-0.013,-0.003,0.28,-0.000198364,-0.00610352,0,0,0,0,0,40.02,706.436,733123
-0.0402222,-0.106018,0.981873,-0.671387,0.427246,-0.854492,-0.028,-0.078,0.29,-0.000198364,-0.00576782,0,0,0,0,0,40.02,706.455,733138
-0.00701904,0.0737915,1.01447,1.46484,-0.12207,-0.12207,0.005,0.101,0.29,-0.000213623,-0.00541687,0,0,0,0,0,40.02,706.478,733153
-0.0010376,0.148315,0.936829,0.854492,-1.28174,-0.915527,0.011,0.172,0.33,-0.000213623,-0.00488281,0,0,0,0,0,40.02,706.514,733198
-0.0657959,-0.125977,1.0896,0.427246,0.915527,-0.976562,-0.052,-0.097,0.34,-0.000244141,-0.00471497,0,0,0,0,0,40.02,706.536,733214
0.0181885,-0.0115967,1.01166,0.732422,-0.610352,-0.0610352,0.03,0.014,0.38,-0.00050354,-0.00482178,0,0,0,0,0,40.02,706.603,733288
-0.0297241,0.0168457,0.949524,0,0,-2.44141,-0.019,0.04,0.46,-0.000701904,-0.00488281,0,0,0,0,0,40.02,706.68,733363
0.0183105,0.000915527,0.992737,0.793457,0,-2.44141,0.029,0.025,0.5,-0.000732422,-0.00491333,0,0,0,0,0,40.02,706.697,733378
-0.0385132,0.0267944,1.0166,1.09863,0.732422,-1.40381,-0.026,0.052,0.52,-0.000762939,-0.00488281,0,0,0,0,0,40.02,706.718,733394
-0.085083,-0.0233765,1.02264,0.854492,0.976562,0.427246,-0.073,0.002,0.53,-0.000930786,-0.00482178,0,0,0,0,0,40.02,706.738,733423
0.03125,-0.0111694,1.03119,0.244141,-0.549316,0.915527,0.043,0.013,0.52,-0.00105286,-0.00482178,0,0,0,0,0,40.02,706.756,733438
-0.015625,-0.0155029,0.988464,-1.58691,-1.15967,0.12207,-0.004,0.009,0.51,-0.00132751,-0.00492859,0,0,0,0,0,40.02,706.779,733468
0.00280762,0.00201416,0.978638,-0.244141,-1.34277,-0.610352,0.014,0.026,0.52,-0.0014801,-0.00497437,0,0,0,0,0,40.02,706.807,733483
0.00189209,-0.0366211,1.06238,0.854492,-0.427246,-0.854492,0.013,-0.01,0.53,-0.0014801,-0.00500488,0,0,0,0,0,40.02,706.817,733498
-0.00933838,-0.104004,1.05957,-0.0610352,-0.366211,-1.52588,0.001,-0.078,0.55,-0.0014801,-0.00509644,0,0,0,0,0,40.02,706.837,733514
0.00469971,0.0318604,0.96875,-0.671387,0.0610352,-1.77002,0.015,0.055,0.59,-0.00141907,-0.00543213,0,0,0,0,0,40.02,706.856,733543
0.0227051,0.022522,1.05096,0,0.488281,-0.854492,0.034,0.047,0.6,-0.00134277,-0.00553894,0,0,0,0,0,40.02,706.876,733558
-0.0397949,-0.0585327,1.05389,-0.488281,1.70898,-0.610352,-0.028,-0.032,0.61,-0.00126648,-0.00561523,0,0,0,0,0,40.02,706.896,733574
-0.00476074,-0.019043,1.04364,-0.12207,1.15967,-0.12207,0.006,0.006,0.62,-0.00119019,-0.00572205,0,0,0,0,0,40.02,706.916,733588
-0.0189819,0.0849609,0.966125,1.15967,-0.854492,0.183105,-0.006,0.108,0.59,-0.00119019,-0.00588989,0,0,0,0,0,40.02,706.936,733618
-0.0333862,-0.0340576,0.989868,-0.366211,-1.77002,0.366211,-0.021,-0.01,0.58,-0.0012207,-0.00588989,0,0,0,0,0,40.02,706.955,733634
-0.0150757,-0.0625,1.02942,-0.427246,-0.671387,-1.15967,-0.003,-0.037,0.6,-0.00137329,-0.0058136,0,0,0,0,0,40.02,706.978,733663
-0.000488281,-0.0532227,1.0517,-0.0610352,-1.09863,-0.732422,0.011,-0.028,0.61,-0.00137329,-0.0058136,0,0,0,0,0,40.02,706.995,733678
0.0114136,-0.0496826,1.04456,0.244141,-0.793457,-1.34277,0.022,-0.025,0.63,-0.00134277,-0.00584412,0,0,0,0,0,40.02,707.016,733694
0.0136108,-0.110962,1.02496,-0.366211,-0.183105,-2.38037,0.023,-0.087,0.66,-0.001297,-0.00595093,0,0,0,0,0,40.02,707.036,733708
-0.0067749,-0.0245972,1.06573,2.56348,1.46484,-0.854492,0.004,0,0.68,-0.0010376,-0.00636292,0,0,0,0,0,40.02,707.056,733739
0.00299072,0.0507812,0.969849,-0.305176,0.610352,-0.305176,0.014,0.073,0.7,-0.000900269,-0.0068512,0,0,0,0,0,40.02,707.081,733769
0.00299072,0.0507812,0.969849,-0.305176,0.610352,-0.305176,0.014,0.073,0.7,-0.000900269,-0.0068512,0,0,0,0,0,40.02,707.096,733769
-0.015564,0.0314941,1.04895,0.0610352,1.2207,-0.183105,-0.002,0.055,0.72,-0.000961304,-0.00714111,0,0,0,0,0,40.02,707.12,733799
-0.0510864,-0.0255127,1.01422,0,0.671387,0.244141,-0.039,-0.001,0.71,-0.0010376,-0.00721741,0,0,0,0,0,40.02,707.139,733814
-0.0571289,-0.0855103,0.97998,-0.12207,0.671387,-0.366211,-0.045,-0.062,0.71,-0.00115967,-0.00733948,0,0,0,0,0,40.02,707.157,733829
-0.0560913,-0.0137329,1.03772,1.0376,-0.305176,-0.732422,-0.043,0.009,0.72,-0.00143433,-0.00765991,0,0,0,0,0,40.02,707.177,733859
-0.0349121,-0.105591,1.06976,-1.52588,-0.244141,-0.671387,-0.022,-0.08,0.73,-0.00160217,-0.00787354,0,0,0,0,0,40.02,707.196,733874
0.0317993,-0.00427246,1.00861,-1.52588,-0.305176,-0.854492,0.044,0.018,0.75,-0.00195312,-0.00848389,0,0,0,0,0,40.02,707.216,733904
0.00494385,0.0401611,1.00775,-0.793457,-0.305176,-0.488281,0.018,0.063,0.76,-0.00205994,-0.00874329,0,0,0,0,0,40.02,707.237,733919
0.00567627,0.010376,0.999939,-0.549316,0.549316,-0.610352,0.018,0.034,0.76,-0.00215149,-0.00894165,0,0,0,0,0,40.02,707.256,733934
0.00402832,-0.0570068,0.976501,-0.305176,0.976562,-0.793457,0.015,-0.034,0.78,-0.00215149,-0.00914001,0,0,0,0,0,40.02,707.276,733949
-0.00323486,-0.00537109,1.02362,1.58691,0.549316,-0.305176,0.01,0.018,0.79,-0.0020752,-0.00952148,0,0,0,0,0,40.02,707.296,733979
-0.0376587,0.017334,1.01105,0.793457,0.488281,-0.12207,-0.023,0.041,0.79,-0.00204468,-0.00964355,0,0,0,0,0,40.02,707.319,733994
-0.0222168,-0.0561523,1.06635,0.671387,0.732422,0.793457,-0.008,-0.031,0.77,-0.00204468,-0.00984192,0,0,0,0,0,40.02,707.338,734024
-0.0209961,-0.0596924,1.03741,-1.09863,-0.427246,0.549316,-0.007,-0.035,0.77,-0.00204468,-0.00999451,0,0,0,0,0,40.02,707.357,734039
-0.00378418,-0.0636597,0.965576,-1.0376,-1.15967,1.0376,0.009,-0.041,0.75,-0.00204468,-0.0102081,0,0,0,0,0,40.02,707.376,734054
-0.00604248,0.0302124,0.981445,0.732422,-0.671387,-0.183105,0.008,0.052,0.75,-0.00204468,-0.0103912,0,0,0,0,0,40.02,707.396,734069
-0.0129395,0.00335693,1.04083,0.12207,-0.976562,0.12207,0.001,0.026,0.74,-0.00204468,-0.0106812,0,0,0,0,0,40.02,707.416,734099
0.0317993,-0.0592041,0.974121,-1.09863,-0.793457,-0.366211,0.043,-0.037,0.74,-0.00201416,-0.0108185,0,0,0,0,0,40.01,707.437,734114
0.000549316,-0.0142212,1.01752,-0.12207,-0.0610352,0.549316,0.013,0.008,0.74,-0.00193787,-0.0109863,0,0,0,0,0,40.01,707.456,734129
-0.0111694,-0.0723877,1.02448,-0.0610352,0.549316,0.12207,0.001,-0.049,0.73,-0.00183105,-0.0114288,0,0,0,0,0,40.01,707.479,734159
-0.0043335,0.0253296,0.962952,-0.610352,0.549316,0.976562,0.008,0.046,0.72,-0.00178528,-0.011673,0,0,0,0,0,40.01,707.496,734174
-0.0319824,-0.0679932,1.09985,0.671387,0.793457,0.549316,-0.018,-0.043,0.71,-0.00178528,-0.0121765,0,0,0,0,0,40.01,707.517,734204
-0.0144653,-0.159607,1.04529,-1.40381,-0.0610352,0.305176,-0.002,-0.136,0.71,-0.00178528,-0.0125732,0,0,0,0,0,40.01,707.536,734219
-0.0657349,-0.0215454,0.994934,-0.305176,0.671387,-0.671387,-0.052,0.001,0.71,-0.0018158,-0.0130463,0,0,0,0,0,40.01,707.556,734234
-0.0543213,-0.0250244,1.04089,1.34277,-0.488281,-0.488281,-0.04,-0.001,0.72,-0.00196838,-0.014267,0,0,0,0,0,40.01,707.576,734264
0.0234375,0.0175781,0.941895,0.976562,-1.46484,-0.427246,0.036,0.037,0.73,-0.00205994,-0.0148926,0,0,0,0,0,40.01,707.596,734279
-0.0341797,-0.0325928,1.04779,1.64795,0.183105,-0.366211,-0.02,-0.009,0.74,-0.00213623,-0.0155029,0,0,0,0,0,40.01,707.62,734294
-0.0178833,-0.0258179,1.07892,-0.12207,0.12207,-0.610352,-0.004,-0.002,0.74,-0.00224304,-0.0161285,0,0,0,0,0,40.01,707.636,734309
-0.00866699,0.0234375,0.963745,-0.0610352,-0.12207,-0.793457,0.003,0.044,0.77,-0.00233459,-0.016098,0,0,0,0,0,40.01,707.656,734339
-0.0272217,-0.0672607,1.02533,-0.610352,1.34277,-0.854492,-0.015,-0.044,0.79,-0.00233459,-0.0160675,0,0,0,0,0,40.01,707.676,734354
-0.0724487,-0.0719604,1.03296,0.305176,-0.0610352,-0.549316,-0.06,-0.048,0.79,-0.00227356,-0.0159607,0,0,0,0,0,40.01,707.696,734384
-0.0205078,-0.139832,0.991333,-0.244141,0.488281,0.183105,-0.01,-0.118,0.79,-0.00228882,-0.0160217,0,0,0,0,0,40.01,707.716,734399
-0.00189209,-0.0534668,1.01428,0.976562,-0.305176,-0.427246,0.01,-0.032,0.79,-0.00228882,-0.0161743,0,0,0,0,0,40.01,707.736,734414
0.00140381,-0.0321045,1.04633,-0.671387,-0.305176,0.244141,0.014,-0.01,0.8,-0.00228882,-0.0163422,0,0,0,0,0,40.01,707.756,734444
-0.0415649,0.0863647,0.923645,0.244141,-0.671387,-0.488281,-0.028,0.106,0.8,-0.00228882,-0.0162811,0,0,0,0,0,40.01,707.777,734459
-0.000305176,0.0270996,0.996094,0.976562,-0.854492,-0.732422,0.012,0.048,0.81,-0.00231934,-0.0161133,0,0,0,0,0,40.01,707.797,734474
-0.0258179,0.00146484,1.07373,-0.671387,-0.12207,-0.610352,-0.012,0.024,0.82,-0.00233459,-0.0158844,0,0,0,0,0,40.01,707.816,734489
-0.0220337,-0.169312,1.06555,0,1.09863,-0.976562,-0.011,-0.146,0.84,-0.00233459,-0.0155334,0,0,0,0,0,40.01,707.836,734519
-0.0119019,-0.0822144,1.0531,0.0610352,0.854492,-0.488281,0,-0.06,0.85,-0.00231934,-0.0155487,0,0,0,0,0,40.01,707.856,734534
-0.0302734,-0.0599365,1.00043,-0.244141,0.0610352,-0.793457,-0.019,-0.038,0.85,-0.00231934,-0.015625,0,0,0,0,0,40.01,707.876,734549
-0.0233154,0.0924683,0.982422,0.610352,0.12207,-0.488281,-0.009,0.113,0.86,-0.00231934,-0.0157928,0,0,0,0,0,40.01,707.899,734579
-0.0161133,0.0090332,1.00873,0.549316,-0.183105,-0.488281,-0.003,0.03,0.87,-0.00231934,-0.0157318,0,0,0,0,0,40.01,707.917,734594
-0.043335,-0.101746,1.00702,0,-0.0610352,-0.854492,-0.032,-0.079,0.87,-0.00239563,-0.0154724,0,0,0,0,0,40.05,707.937,734624
-0.00616455,-0.0649414,1.0556,1.40381,0.12207,-0.549316,0.006,-0.042,0.88,-0.00247192,-0.0154266,0,0,0,0,0,40.05,707.96,734639
-0.00720215,-0.0959473,1.07086,0.0610352,-1.2207,-0.549316,0.004,-0.073,0.89,-0.00247192,-0.0154572,0,0,0,0,0,40.05,707.976,734655
-0.0240479,0.00231934,0.975525,0.671387,-0.732422,-1.2207,-0.011,0.022,0.9,-0.00247192,-0.0155182,0,0,0,0,0,40.05,707.996,734669
-0.0149536,-0.0586548,1.06409,0.366211,-0.427246,-0.854492,-0.003,-0.036,0.93,-0.00238037,-0.0155334,0,0,0,0,0,40.05,708.016,734699
0.00415039,-0.0362549,1.0141,0.12207,0.549316,-1.95312,0.015,-0.016,0.96,-0.00231934,-0.0155792,0,0,0,0,0,40.05,708.036,734715
-0.0319824,-0.0287476,1.02252,0.671387,0.732422,-2.0752,-0.021,-0.008,1.02,-0.00212097,-0.0155945,0,0,0,0,0,40.05,708.057,734744
0.00769043,-0.0304565,1.07153,0.183105,1.34277,-2.13623,0.019,-0.01,1.05,-0.00201416,-0.0155945,0,0,0,0,0,40.05,708.076,734759
-0.00482178,0.0178223,1.01086,-1.34277,0.12207,-0.915527,0.007,0.037,1.07,-0.00201416,-0.0155792,0,0,0,0,0,40.05,708.096,734775
-0.0552368,0.0292969,1.00861,0.488281,0.12207,0.183105,-0.042,0.05,1.08,-0.00204468,-0.0155182,0,0,0,0,0,40.05,708.117,734804
-0.0010376,-0.0133667,1.03772,0.0610352,-1.09863,0.549316,0.011,0.007,1.07,-0.00210571,-0.0154266,0,0,0,0,0,40.05,708.137,734819
-0.0805054,-0.0614014,1.06067,0.244141,0.0610352,-0.244141,-0.068,-0.038,1.07,-0.00221252,-0.0153656,0,0,0,0,0,40.05,708.156,734835
0.00665283,-0.0482788,1.01056,0.12207,-0.732422,0.0610352,0.018,-0.027,1.07,-0.00233459,-0.0153503,0,0,0,0,0,40.05,708.176,734849
-0.00421143,-0.0333252,1.03455,0.732422,-0.183105,-0.793457,0.007,-0.012,1.09,-0.00247192,-0.0152893,0,0,0,0,0,40.05,708.195,734879
-0.0132446,-0.00836182,0.994141,0.0610352,0.366211,-1.83105,-0.001,0.011,1.12,-0.00247192,-0.0152588,0,0,0,0,0,40.05,708.215,734895
0.0175781,-0.0316162,1.03088,0.366211,1.34277,-1.28174,0.028,-0.011,1.14,-0.00244141,-0.0152588,0,0,0,0,0,40.05,708.237,734909
0.0124512,-0.0358276,1.00836,-0.0610352,0.610352,-0.366211,0.023,-0.016,1.16,-0.00231934,-0.0152588,0,0,0,0,0,40.05,708.257,734939
-0.0119019,0.15686,0.889343,-0.549316,-0.244141,0.244141,0.001,0.174,1.16,-0.00222778,-0.015152,0,0,0,0,0,40.05,708.275,734955
-0.0303955,-0.0758057,1.05908,0.183105,0.610352,0.915527,-0.018,-0.055,1.14,-0.00215149,-0.01474,0,0,0,0,0,40.05,708.297,734984
-0.0216064,0.0349731,1.00043,-0.305176,-1.15967,0.244141,-0.008,0.054,1.13,-0.00215149,-0.0145569,0,0,0,0,0,40.05,708.317,734999
-0.0130005,0.0148926,0.985291,-0.427246,-0.854492,-0.366211,0,0.034,1.13,-0.00215149,-0.0142975,0,0,0,0,0,40.05,708.336,735015
0.00683594,-0.00854492,1.0177,-0.976562,-1.2207,-0.732422,0.019,0.01,1.14,-0.00215149,-0.0140228,0,0,0,0,0,40.05,708.356,735029
-0.0132446,-6.10352e-05,1.0163,0.854492,-0.488281,-1.64795,0,0.019,1.16,-0.00215149,-0.0137329,0,0,0,0,0,40.05,708.376,735059
0.0130615,-0.203125,1.01318,-0.549316,0.610352,-0.976562,0.02,-0.184,1.18,-0.00213623,-0.0138397,0,0,0,0,0,40.05,708.396,735075
-0.00354004,0.0283203,1.01733,-0.183105,0,-2.01416,0.009,0.047,1.23,-0.0019989,-0.0142517,0,0,0,0,0,40.05,708.416,735104
0.0204468,-0.0404663,0.973877,-1.95312,0.549316,-0.610352,0.031,-0.022,1.24,-0.00189209,-0.0144043,0,0,0,0,0,40.05,708.448,735119
-0.0285645,-0.0355835,1.02557,0.305176,1.89209,-1.40381,-0.017,-0.014,1.25,-0.00177002,-0.0145874,0,0,0,0,0,40.04,708.458,735135
-0.00701904,-0.107422,1.0918,-0.0610352,0.976562,-0.244141,0.004,-0.086,1.27,-0.00166321,-0.0148468,0,0,0,0,0,40.04,708.477,735150
-0.0307617,0.0541992,0.947388,1.15967,0.732422,0.12207,-0.017,0.073,1.26,-0.00166321,-0.0153656,0,0,0,0,0,40.04,708.496,735180
-0.0551147,-0.0588379,1.05719,0.854492,0.549316,-0.549316,-0.042,-0.037,1.27,-0.00170898,-0.0155792,0,0,0,0,0,40.04,708.521,735195
-0.0385132,0.00561523,1.06866,0,-0.0610352,0.183105,-0.023,0.026,1.26,-0.00180054,-0.0157928,0,0,0,0,0,40.04,708.536,735210
0.027771,0.0180054,0.962524,-1.0376,-0.671387,-0.549316,0.041,0.036,1.27,-0.00193787,-0.0162048,0,0,0,0,0,40.04,708.556,735240
0.00402832,-0.0145264,1.06097,-0.610352,-0.976562,-0.427246,0.018,0.005,1.27,-0.00195312,-0.0163727,0,0,0,0,0,40.04,708.576,735255
-0.000732422,-0.0540161,1.03485,-0.610352,-0.305176,-0.793457,0.011,-0.034,1.28,-0.00195312,-0.016571,0,0,0,0,0,40.04,708.596,735270
0.00457764,0.0818481,0.971924,1.09863,0.854492,-1.64795,0.019,0.1,1.32,-0.00187683,-0.0169067,0,0,0,0,0,40.04,708.621,735300
-0.00280762,-0.0231323,1.05408,0.549316,1.0376,-1.40381,0.01,-0.002,1.34,-0.00180054,-0.0169678,0,0,0,0,0,40.04,708.636,735315
-0.0130005,-0.0349121,1.01129,-0.12207,0.549316,-0.671387,0,-0.015,1.36,-0.00180054,-0.0170288,0,0,0,0,0,40.04,708.656,735330
-0.0466919,-0.114929,1.06049,-0.427246,1.83105,0.488281,-0.034,-0.093,1.35,-0.00187683,-0.0174408,0,0,0,0,0,40.04,708.676,735360
-0.0240479,0.0484619,0.998413,-0.610352,-0.305176,1.2207,-0.008,0.068,1.34,-0.00195312,-0.0177155,0,0,0,0,0,40.04,708.696,735375
-0.0563965,0.0167847,0.997864,0.549316,0.0610352,1.0376,-0.041,0.037,1.29,-0.00224304,-0.018219,0,0,0,0,0,40.04,708.717,735405
-0.0195312,-0.050354,1.08496,0.854492,-1.15967,1.34277,-0.004,-0.028,1.27,-0.00244141,-0.0184479,0,0,0,0,0,40.04,708.736,735420
-0.0667725,-0.059082,1.02283,0.183105,-0.671387,0.793457,-0.053,-0.037,1.26,-0.00268555,-0.0187378,0,0,0,0,0,40.04,708.757,735435
0.0368042,-0.0130005,1.00775,-0.305176,-0.488281,1.0376,0.05,0.006,1.24,-0.00291443,-0.019043,0,0,0,0,0,40.04,708.776,735450
-0.0175171,0.03479,1.05951,0.0610352,-0.427246,0.427246,-0.002,0.056,1.22,-0.00328064,-0.0195312,0,0,0,0,0,40.04,708.797,735480
0.00445557,-0.0576782,0.996277,-0.976562,-0.366211,0.0610352,0.016,-0.038,1.21,-0.00343323,-0.0197296,0,0,0,0,0,40.04,708.816,735495
0.031189,0.0611572,0.959229,0.366211,0.610352,-0.244141,0.045,0.079,1.21,-0.0035553,-0.0198975,0,0,0,0,0,40.04,708.838,735510
-0.0255737,-0.149963,1.08362,-0.854492,1.0376,-0.183105,-0.014,-0.128,1.23,-0.00370789,-0.0201416,0,0,0,0,0,40.04,708.856,735540
-0.0206909,-0.112122,0.956238,-1.77002,0.305176,-0.183105,-0.01,-0.092,1.23,-0.00370789,-0.0204468,0,0,0,0,0,40.04,708.88,735555
-0.0442505,0.0670776,0.983459,1.95312,0.0610352,-0.488281,-0.029,0.088,1.24,-0.0037384,-0.0207672,0,0,0,0,0,40.04,708.896,735570
-0.0271606,-0.071106,0.981995,-0.610352,-1.0376,-0.183105,-0.014,-0.051,1.24,-0.0038147,-0.0213318,0,0,0,0,0,40.04,708.916,735600
0.0183105,-0.0728149,1.03735,1.89209,0.366211,0.183105,0.031,-0.053,1.24,-0.00384521,-0.0217133,0,0,0,0,0,40.04,708.936,735615
-0.0362549,-0.115662,1.09631,0.732422,0.488281,-0.366211,-0.023,-0.094,1.24,-0.00386047,-0.0222015,0,0,0,0,0,40.04,708.956,735630
0.0162964,0.208008,0.911499,-0.610352,-1.83105,-1.46484,0.033,0.225,1.27,-0.00392151,-0.023056,0,0,0,0,0,40.04,708.982,735660
-0.0212402,-0.0032959,1.03723,0.12207,0.183105,-1.34277,-0.007,0.018,1.28,-0.00390625,-0.0232239,0,0,0,0,0,40.04,708.996,735675
-0.0409546,-0.124634,1.03839,-0.427246,0.305176,-0.427246,-0.03,-0.102,1.29,-0.00389099,-0.0236511,0,0,0,0,0,40.04,709.016,735705
-0.000671387,-0.0887451,1.00751,0.0610352,1.64795,-0.305176,0.01,-0.068,1.3,-0.00389099,-0.0240326,0,0,0,0,0,40.04,709.036,735720
-0.0227661,0.00793457,1.01251,0.854492,0.549316,-0.549316,-0.009,0.028,1.31,-0.00389099,-0.0244293,0,0,0,0,0,40.04,709.059,735735
-0.0637207,-0.0755005,0.989258,-1.0376,0,-0.427246,-0.052,-0.054,1.32,-0.00387573,-0.0251923,0,0,0,0,0,40.04,709.08,735765
0.0103149,-0.00793457,0.957458,-0.183105,-0.427246,0,0.023,0.011,1.32,-0.00390625,-0.0256195,0,0,0,0,0,40.04,709.096,735780
-0.0203247,0.0154419,0.999756,-0.12207,-0.671387,-0.305176,-0.006,0.036,1.32,-0.00390625,-0.026001,0,0,0,0,0,40.04,709.117,735795
-0.038269,-0.0576172,0.995789,-0.244141,-1.09863,-0.671387,-0.026,-0.036,1.33,-0.00395203,-0.0263977,0,0,0,0,0,40.04,709.136,735810
0.00323486,0.0776978,1.01935,0.549316,-0.671387,0.0610352,0.018,0.098,1.34,-0.0039978,-0.0272064,0,0,0,0,0,40.04,709.156,735840
-0.00213623,0.0161133,1.00189,1.15967,-0.732422,-0.976562,0.011,0.036,1.35,-0.0039978,-0.0274811,0,0,0,0,0,40.04,709.178,735855
-0.00476074,-0.0276489,1.01263,-0.793457,-0.305176,-0.244141,0.007,-0.006,1.35,-0.0039978,-0.0277405,0,0,0,0,0,40.04,709.196,735870
0.0106812,-0.0272217,1.01123,0.549316,0.305176,-1.34277,0.022,-0.007,1.38,-0.00398254,-0.0281982,0,0,0,0,0,40.04,709.216,735900
-0.0405273,-0.0689697,1.08636,0.427246,0.427246,-0.671387,-0.028,-0.046,1.39,-0.00396729,-0.0284424,0,0,0,0,0,40.04,709.237,735915
-0.0166626,-0.0415649,0.981384,-0.305176,-0.12207,-0.915527,-0.005,-0.021,1.4,-0.00392151,-0.0292206,0,0,0,0,0,40.04,709.258,735945
-0.0440674,0.0140991,0.995422,1.2207,-1.15967,-0.732422,-0.031,0.034,1.42,-0.00392151,-0.0296326,0,0,0,0,0,40.04,709.276,735960
-0.0239868,0.0308228,1.00446,0.244141,-1.15967,-0.488281,-0.01,0.051,1.41,-0.00395203,-0.0299988,0,0,0,0,0,40.04,709.296,735975
-0.0274658,-0.0238647,1.03241,0.12207,0.427246,-0.854492,-0.014,-0.002,1.43,-0.0039978,-0.0303192,0,0,0,0,0,40.04,709.316,735990
-0.00695801,0.000915527,1.03662,0.366211,-0.610352,-1.09863,0.005,0.021,1.46,-0.0039978,-0.0310822,0,0,0,0,0,40.04,709.338,736020
0.0128784,0.0045166,0.946472,0.488281,-0.610352,-1.52588,0.024,0.022,1.48,-0.00396729,-0.0314331,0,0,0,0,0,40.04,709.361,736035
-0.000610352,0.0437622,0.994202,1.40381,-0.0610352,-2.44141,0.012,0.063,1.51,-0.00392151,-0.0317383,0,0,0,0,0,40.04,709.376,736050
-0.0521851,-0.119385,1.06659,-0.793457,0.793457,-2.31934,-0.043,-0.097,1.57,-0.00376892,-0.0321655,0,0,0,0,0,40.04,709.398,736080
0.03125,-0.0602417,1.02087,-1.77002,0.549316,-0.610352,0.041,-0.041,1.59,-0.00367737,-0.0324707,0,0,0,0,0,40.04,709.416,736096
-0.0183105,-0.0220947,0.975464,-1.46484,-0.12207,-1.34277,-0.007,-0.002,1.61,-0.00358582,-0.0328064,0,0,0,0,0,40.04,709.436,736110
-0.0526123,-0.153259,1.03284,-0.244141,0.366211,0.305176,-0.044,-0.131,1.61,-0.00350952,-0.0336914,0,0,0,0,0,40.04,709.456,736140
-0.0152588,0.0737915,0.945679,2.01416,-0.549316,0.854492,-0.001,0.092,1.6,-0.00354004,-0.0342102,0,0,0,0,0,40.06,709.477,736156
-0.0234985,-0.00219727,1.0282,1.34277,-0.976562,-0.12207,-0.01,0.018,1.59,-0.00354004,-0.0346527,0,0,0,0,0,40.06,709.496,736170
0.0153809,-0.0346069,1.04712,0.366211,-0.244141,-1.40381,0.027,-0.014,1.62,-0.00352478,-0.0355988,0,0,0,0,0,40.06,709.516,736200
-0.0333252,-0.09021,1.00677,-0.610352,0.549316,-1.95312,-0.023,-0.07,1.65,-0.00350952,-0.0361481,0,0,0,0,0,40.06,709.538,736216
-0.0067749,-0.0463867,1.03156,0.244141,1.0376,-2.0752,0.004,-0.026,1.68,-0.00350952,-0.0367584,0,0,0,0,0,40.06,709.556,736230
-0.00506592,-0.000488281,1.0127,0.549316,0.915527,-0.610352,0.007,0.019,1.7,-0.00344849,-0.037384,0,0,0,0,0,40.06,709.576,736260
-0.00872803,-0.0610962,1.03381,-0.244141,0.793457,-0.305176,0.002,-0.041,1.7,-0.00338745,-0.0373993,0,0,0,0,0,40.06,709.596,736276
-0.0765991,-0.139465,1.04858,-0.0610352,0.793457,0.366211,-0.067,-0.117,1.7,-0.00338745,-0.0375214,0,0,0,0,0,40.06,709.616,736290
-0.0430908,-0.0604248,1.01782,-0.427246,0.244141,-0.671387,-0.031,-0.039,1.7,-0.00352478,-0.0379639,0,0,0,0,0,40.06,709.635,736320
-0.0441895,-0.0680542,1.03613,0.0610352,0.244141,-0.12207,-0.032,-0.046,1.71,-0.00366211,-0.0382385,0,0,0,0,0,40.06,709.656,736336
0.0322876,-0.031189,0.994324,0.671387,-0.183105,-0.732422,0.044,-0.013,1.72,-0.00395203,-0.0389557,0,0,0,0,0,40.06,709.679,736365
-0.0125732,-0.140137,1.02979,0,-0.366211,-0.549316,-0.003,-0.12,1.73,-0.0040741,-0.0394287,0,0,0,0,0,40.06,709.696,736380
-0.00494385,0.06604,1.00653,-0.244141,-0.671387,-0.976562,0.009,0.085,1.74,-0.00418091,-0.039917,0,0,0,0,0,40.06,709.716,736396
0.00811768,-0.0211792,1.02625,0.0610352,0.549316,-1.09863,0.02,-0.001,1.76,-0.0042572,-0.0403442,0,0,0,0,0,40.06,709.736,736410
0.00787354,0.0646973,1.00085,-0.305176,0.183105,-1.64795,0.022,0.083,1.79,-0.00439453,-0.0410461,0,0,0,0,0,40.06,709.756,736440
-0.0304565,-0.00915527,1.01367,0,0.854492,-0.488281,-0.017,0.011,1.81,-0.00444031,-0.0412903,0,0,0,0,0,40.06,709.776,736456
-0.00604248,0.0919189,0.992432,0.732422,0.976562,-0.0610352,0.009,0.111,1.81,-0.00450134,-0.0414581,0,0,0,0,0,40.06,709.797,736470
-0.00946045,-0.109924,0.994019,-2.13623,-0.0610352,0,0.001,-0.09,1.82,-0.00465393,-0.0417175,0,0,0,0,0,40.06,709.816,736500
-0.0298462,-0.0114746,1.00708,-0.793457,0.427246,0.0610352,-0.015,0.008,1.82,-0.00474548,-0.0419464,0,0,0,0,0,40.06,709.836,736516
0.00994873,-0.0681152,1.02972,-2.01416,-0.244141,-0.427246,0.022,-0.048,1.83,-0.00473022,-0.0424042,0,0,0,0,0,40.06,709.86,736545
-0.0560913,-0.281189,1.09064,1.28174,1.64795,-1.83105,-0.049,-0.258,1.87,-0.00463867,-0.0432892,0,0,0,0,0,40.06,709.911,736590
0.000366211,-0.0942383,1.05872,-0.244141,1.15967,-0.793457,0.012,-0.073,1.9,-0.00462341,-0.0438232,0,0,0,0,0,40.06,709.932,736606
-0.0449219,0.036377,1.05554,-0.976562,1.15967,-0.366211,-0.027,0.059,1.89,-0.00448608,-0.0448151,0,0,0,0,0,40.06,709.953,736636
-0.100769,0.00494385,0.983521,-1.34277,0.549316,0.0610352,-0.085,0.028,1.89,-0.00448608,-0.0451965,0,0,0,0,0,40.06,709.976,736651
-0.0245361,-0.0350342,1.02557,-0.549316,0.549316,0.427246,-0.009,-0.013,1.88,-0.00453186,-0.0459595,0,0,0,0,0,40.04,709.997,736681
-0.0244141,0.0639038,0.963257,1.15967,-0.915527,0.427246,-0.007,0.084,1.86,-0.00453186,-0.0462952,0,0,0,0,0,40.04,710.016,736696
-0.0151367,0.0397339,0.993225,2.0752,-0.549316,-0.305176,0.001,0.06,1.87,-0.00453186,-0.0465393,0,0,0,0,0,40.04,710.036,736711
-0.0264282,0.0244141,1.01495,0,-0.671387,-0.366211,-0.009,0.045,1.85,-0.00448608,-0.047287,0,0,0,0,0,40.04,710.068,736756
-0.0264282,0.0244141,1.01495,0,-0.671387,-0.366211,-0.009,0.045,1.85,-0.00448608,-0.047287,0,0,0,0,0,40.04,710.079,736756
-0.0233765,0.0563354,0.963257,-0.0610352,-0.366211,-0.12207,-0.006,0.076,1.81,-0.00442505,-0.04776,0,0,0,0,0,40.04,710.116,736801
0.0148926,0.00726318,1.00751,-0.183105,-0.976562,0,0.03,0.027,1.81,-0.00437927,-0.0477753,0,0,0,0,0,40.04,710.133,736816
-0.0735474,-0.172729,1.05304,-0.427246,1.77002,-0.183105,-0.062,-0.148,1.81,-0.00434875,-0.0478668,0,0,0,0,0,40.04,710.147,736831
-0.00354004,-0.0196533,1.02435,-0.305176,1.34277,-0.12207,0.011,0.001,1.81,-0.00436401,-0.0480499,0,0,0,0,0,40.04,710.169,736846
-0.0307617,-0.069519,1.03876,-0.305176,-0.183105,-0.915527,-0.016,-0.046,1.83,-0.00436401,-0.0482788,0,0,0,0,0,40.04,710.179,736861
-0.0545044,0.0144653,0.98584,-0.244141,0.0610352,0.732422,-0.038,0.037,1.82,-0.00439453,-0.0485077,0,0,0,0,0,40.04,710.203,736876
-0.0067749,-0.0742188,1.04657,-0.915527,-0.305176,-0.488281,0.007,-0.051,1.82,-0.00456238,-0.0488892,0,0,0,0,0,40.04,710.22,736906
-0.0335083,0.0317383,0.939758,-0.915527,-1.64795,0.12207,-0.017,0.052,1.82,-0.00456238,-0.0490875,0,0,0,0,0,40.04,710.242,736921
-0.00109863,0.0466919,0.962036,-0.732422,-0.610352,-0.610352,0.015,0.068,1.85,-0.00460815,-0.0494843,0,0,0,0,0,40.04,710.305,736981
0.0310059,0.105042,0.974182,-0.366211,-0.366211,-0.610352,0.049,0.125,1.86,-0.0045929,-0.0493774,0,0,0,0,0,40.04,710.316,736996
0.00964355,0.0377808,0.998352,-0.488281,-0.915527,-0.854492,0.026,0.059,1.87,-0.0045166,-0.0491486,0,0,0,0,0,40.04,710.336,737011
-0.0336914,-0.0324707,0.938782,-0.305176,0.183105,-0.183105,-0.02,-0.01,1.88,-0.00437927,-0.0487061,0,0,0,0,0,40.04,710.359,737041
0.00109863,0.0512695,0.969421,-0.854492,-0.610352,0.183105,0.017,0.072,1.88,-0.00431824,-0.0484772,0,0,0,0,0,40.04,710.376,737057
-0.0496826,0.0394287,1.04901,-0.12207,-0.549316,-0.366211,-0.032,0.064,1.88,-0.00427246,-0.0481567,0,0,0,0,0,40.04,710.396,737071
-0.0118408,-0.0907593,1.04602,0.183105,0.488281,-0.12207,0.001,-0.066,1.89,-0.0042572,-0.0476227,0,0,0,0,0,40.04,710.416,737101
0.000915527,-0.0563965,1.02271,-0.976562,-1.15967,-0.793457,0.015,-0.033,1.9,-0.0042572,-0.0474854,0,0,0,0,0,40.04,710.436,737116
-0.0247192,-0.0928345,0.958374,-0.0610352,-0.183105,-0.427246,-0.013,-0.07,1.91,-0.0042572,-0.0474091,0,0,0,0,0,40.04,710.456,737131
-0.0200195,0.0204468,1.00311,-0.244141,-0.12207,-1.34277,-0.004,0.044,1.93,-0.00421143,-0.0473022,0,0,0,0,0,40.04,710.477,737161
-0.00653076,-0.0221558,1.07581,-0.793457,-0.183105,-0.549316,0.009,0.002,1.95,-0.00418091,-0.0472107,0,0,0,0,0,40.05,710.496,737176
-0.000976562,-0.0327759,0.959778,-0.488281,-0.488281,-0.427246,0.012,-0.01,1.95,-0.00418091,-0.0471039,0,0,0,0,0,40.05,710.517,737191
-0.0565186,0.0318604,1.02271,0.427246,-0.244141,-0.427246,-0.04,0.057,1.97,-0.00421143,-0.0467682,0,0,0,0,0,40.05,710.544,737221
0.00360107,-0.0411377,1.01099,0.183105,-0.732422,-0.366211,0.017,-0.017,1.97,-0.0042572,-0.046524,0,0,0,0,0,40.05,710.556,737236
-0.0106812,-0.00531006,0.988098,-0.0610352,-0.732422,-0.915527,0.003,0.018,1.98,-0.00428772,-0.0461578,0,0,0,0,0,40.05,710.586,737266
0.0160522,0.151001,0.962036,0.366211,-1.77002,-0.732422,0.035,0.172,1.99,-0.0042572,-0.0458527,0,0,0,0,0,40.05,710.597,737281
-0.0141602,-0.0916748,1.0719,0.549316,-0.549316,-0.915527,-0.001,-0.066,2,-0.00421143,-0.0454865,0,0,0,0,0,40.05,710.616,737296
0.0144653,0.0582886,0.961243,-0.305176,-0.915527,-1.64795,0.029,0.079,2.04,-0.00413513,-0.0449219,0,0,0,0,0,40.05,710.647,737326
-0.000183105,0.00372314,1.02545,-0.732422,-0.488281,-2.13623,0.014,0.026,2.08,-0.0040741,-0.0445557,0,0,0,0,0,40.05,710.658,737341
-0.0699463,-0.15155,1.03711,-2.0752,0.976562,-0.976562,-0.061,-0.125,2.09,-0.00402832,-0.0442657,0,0,0,0,0,40.05,710.677,737356
-0.0428467,0.0533447,0.907471,-1.28174,-0.732422,-1.40381,-0.028,0.076,2.14,-0.00395203,-0.0438538,0,0,0,0,0,40.05,710.702,737386
-0.0414429,-0.0614624,1.05872,1.0376,0.793457,-0.12207,-0.029,-0.035,2.14,-0.00387573,-0.0431824,0,0,0,0,0,40.05,710.737,737416
-0.0447998,-0.159851,1.01874,-0.0610352,-0.366211,-0.183105,-0.036,-0.134,2.14,-0.00387573,-0.0429382,0,0,0,0,0,40.05,710.756,737431
-0.0045166,-0.0270996,1.02338,-0.305176,-0.671387,-0.610352,0.008,-0.003,2.16,-0.00389099,-0.0427399,0,0,0,0,0,40.05,710.777,737461
0.0250244,-0.0152588,1.0072,-1.70898,-1.09863,-1.0376,0.038,0.007,2.17,-0.00384521,-0.0427399,0,0,0,0,0,40.05,710.796,737477
-0.0297241,-0.0210571,0.980103,-0.976562,-0.183105,-1.52588,-0.017,0.003,2.2,-0.00379944,-0.0427399,0,0,0,0,0,40.05,710.817,737491
-0.026001,-0.0424194,1.03168,0.366211,0.305176,-0.427246,-0.013,-0.017,2.2,-0.00366211,-0.0426636,0,0,0,0,0,40.05,710.836,737521
-0.0322266,-0.0293579,0.996155,0,-0.305176,-0.549316,-0.019,-0.005,2.21,-0.00361633,-0.0426483,0,0,0,0,0,40.05,710.856,737537
0.0210571,-0.00445557,0.975525,-0.305176,-0.671387,-0.12207,0.033,0.017,2.21,-0.0035553,-0.0426483,0,0,0,0,0,40.05,710.875,737551
-0.00256348,-0.024353,1.02734,-1.0376,-1.28174,-0.488281,0.01,0,2.22,-0.00335693,-0.0424042,0,0,0,0,0,40.05,710.898,737581
-0.0423584,-0.0869751,0.992981,-0.427246,-0.549316,-0.915527,-0.032,-0.062,2.23,-0.00325012,-0.0422974,0,0,0,0,0,40.05,710.916,737597
0.0310669,-0.0592651,1.03198,-0.0610352,-0.671387,0.732422,0.042,-0.036,2.22,-0.00315857,-0.0422516,0,0,0,0,0,40.05,710.936,737611
-0.0192261,-0.0166626,0.972595,-0.0610352,-0.976562,-0.549316,-0.007,0.006,2.24,-0.00302124,-0.0422363,0,0,0,0,0,40.05,710.956,737641
-0.0235596,0.0167236,0.997009,0.244141,-0.0610352,0,-0.01,0.04,2.24,-0.00302124,-0.0422058,0,0,0,0,0,40.05,710.976,737657
-0.00622559,-0.0111694,1.07678,0.671387,0.976562,-0.671387,0.007,0.013,2.24,-0.00302124,-0.0421295,0,0,0,0,0,40.05,710.996,737671
0.00384521,0.0615845,0.915405,-0.183105,-0.305176,-0.610352,0.017,0.082,2.26,-0.00302124,-0.0421295,0,0,0,0,0,40.08,711.016,737701
-0.0323486,0.022644,1.00146,0.0610352,-0.0610352,-0.183105,-0.018,0.047,2.27,-0.00302124,-0.042038,0,0,0,0,0,40.08,711.036,737717
-0.0108032,-0.0769653,1.1048,-1.52588,0.12207,0,0,-0.051,2.26,-0.00302124,-0.0419617,0,0,0,0,0,40.08,711.056,737731
0.00244141,-0.0338745,0.985107,-0.488281,-0.183105,0.488281,0.014,-0.01,2.27,-0.00302124,-0.042099,0,0,0,0,0,40.08,711.076,737761
-0.048584,0.00305176,1.07019,0,0.366211,-0.610352,-0.034,0.03,2.27,-0.0030365,-0.0422058,0,0,0,0,0,40.08,711.096,737777
-0.0507202,-0.0195923,1.00146,-0.976562,-0.183105,-0.610352,-0.037,0.006,2.28,-0.00309753,-0.0422821,0,0,0,0,0,40.08,711.116,737791
-0.0067749,-0.0473633,1.00342,1.28174,1.2207,-0.732422,0.004,-0.023,2.31,-0.00318909,-0.0424347,0,0,0,0,0,40.08,711.136,737821
0.0142212,-0.0780029,1.05127,0.488281,0,-0.732422,0.025,-0.053,2.31,-0.00315857,-0.0425873,0,0,0,0,0,40.08,711.16,737837
0.0343018,-0.0370483,0.924133,0,-1.2207,-0.610352,0.045,-0.017,2.33,-0.00309753,-0.0427704,0,0,0,0,0,40.08,711.176,737851
0.0188599,-0.0441284,1.11304,-1.46484,-0.366211,0.244141,0.032,-0.018,2.32,-0.00294495,-0.0431366,0,0,0,0,0,40.08,711.196,737881
-0.0388794,-0.019165,0.968628,-2.68555,-0.671387,0.0610352,-0.026,0.004,2.32,-0.00286865,-0.0433197,0,0,0,0,0,40.08,711.216,737897
-0.0429688,-0.0584717,1.08813,0.671387,0.305176,0.915527,-0.03,-0.031,2.3,-0.00276184,-0.0436249,0,0,0,0,0,40.08,711.238,737926
-0.0215454,-0.0617676,1.09113,-0.793457,-0.488281,0.732422,-0.008,-0.035,2.28,-0.00274658,-0.0438232,0,0,0,0,0,40.08,711.256,737941
0.0177002,-0.0262451,0.928467,-0.366211,-0.915527,0.0610352,0.029,-0.005,2.27,-0.00273132,-0.0440521,0,0,0,0,0,40.08,711.279,737957
-0.00213623,0.0758667,0.95874,1.34277,-0.915527,0.488281,0.013,0.097,2.27,-0.00267029,-0.04422,0,0,0,0,0,40.08,711.296,737971
0.0105591,-0.0115967,0.995117,-1.40381,-1.40381,0.305176,0.023,0.011,2.25,-0.00247192,-0.0442963,0,0,0,0,0,40.08,711.316,738001
0.0129395,-0.0640869,1.01001,-0.976562,-0.244141,1.34277,0.023,-0.041,2.24,-0.00233459,-0.0443268,0,0,0,0,0,40.08,711.341,738017
0.0186157,-0.026001,1.07404,0,0.366211,0.244141,0.031,-0.001,2.23,-0.00215149,-0.0444031,0,0,0,0,0,40.08,711.356,738032
-0.00616455,0.0341797,0.96637,0.244141,0.12207,-0.732422,0.007,0.057,2.23,-0.00193787,-0.0444794,0,0,0,0,0,40.08,711.376,738062
-0.0198975,0.0180054,0.994141,0.610352,1.40381,-0.732422,-0.006,0.042,2.24,-0.00193787,-0.0444336,0,0,0,0,0,40.08,711.396,738077
0.0172119,-0.03125,1.04236,0.183105,0.244141,-0.976562,0.029,-0.007,2.25,-0.00192261,-0.0443573,0,0,0,0,0,40.08,711.416,738092
-0.0155029,-0.104126,0.983582,0.427246,0.427246,-0.0610352,-0.006,-0.08,2.27,-0.00184631,-0.0444489,0,0,0,0,0,40.08,711.436,738122
-0.0463257,-0.00238037,1.03058,0.671387,0,0.244141,-0.032,0.024,2.26,-0.00183105,-0.0446014,0,0,0,0,0,40.08,711.457,738137
-0.0397949,-0.0149536,1.06989,-0.671387,-0.488281,0.12207,-0.025,0.012,2.26,-0.00186157,-0.0447083,0,0,0,0,0,40.08,711.476,738152
-0.0352783,0.0491333,1.01123,1.40381,-0.732422,-0.305176,-0.019,0.075,2.26,-0.00192261,-0.0447998,0,0,0,0,0,40.08,711.497,738182
-0.0100708,-0.0115967,1.06024,0,-1.28174,-0.366211,0.003,0.014,2.26,-0.00192261,-0.044754,0,0,0,0,0,40.09,711.516,738197
-0.0123291,-0.00445557,0.996643,0.305176,-1.0376,-1.40381,0,0.02,2.27,-0.00192261,-0.0446625,0,0,0,0,0,40.09,711.537,738212
-0.00518799,0.010498,1.00134,0.305176,-0.12207,-1.34277,0.007,0.034,2.29,-0.00192261,-0.044754,0,0,0,0,0,40.09,711.56,738242
0.0512695,0.0252686,0.98645,-0.610352,-1.58691,-0.671387,0.064,0.047,2.31,-0.00186157,-0.0447845,0,0,0,0,0,40.09,711.577,738257
-0.0217285,0.0195312,0.973145,-0.0610352,0,-0.427246,-0.009,0.044,2.31,-0.00178528,-0.0447388,0,0,0,0,0,40.09,711.596,738272
0.0356445,-0.0390625,1.04919,-0.793457,-0.427246,-0.305176,0.046,-0.014,2.33,-0.00167847,-0.0445557,0,0,0,0,0,40.09,711.619,738302
-0.0200195,0.0192871,0.951721,-0.427246,0,-0.427246,-0.007,0.043,2.34,-0.00158691,-0.0444489,0,0,0,0,0,40.09,711.636,738317
-0.0331421,-0.00201416,1.00543,0.793457,0.427246,-0.305176,-0.02,0.023,2.34,-0.00152588,-0.044281,0,0,0,0,0,40.09,711.659,738332
-0.0117188,0.0408936,1.00476,-0.366211,-1.0376,-0.488281,0.002,0.066,2.34,-0.00143433,-0.0438385,0,0,0,0,0,40.09,711.676,738362
-0.0452271,-0.157043,1.01715,-0.671387,-0.366211,-0.488281,-0.039,-0.13,2.35,-0.00140381,-0.0436249,0,0,0,0,0,40.09,711.697,738377
0.0257568,0.0189819,0.984192,-0.0610352,-1.34277,-0.549316,0.038,0.041,2.35,-0.00137329,-0.0434723,0,0,0,0,0,40.09,711.716,738392
-0.041748,-0.0280151,0.981567,1.0376,-0.488281,-1.40381,-0.031,-0.002,2.39,-0.00126648,-0.0427551,0,0,0,0,0,40.09,711.738,738422
-0.015625,-0.0822144,1.02295,0.549316,0.610352,-0.915527,-0.007,-0.057,2.4,-0.00123596,-0.0423889,0,0,0,0,0,40.09,711.757,738437
0.0696411,0.0924072,1.02344,-0.427246,-1.34277,-1.0376,0.085,0.114,2.42,-0.00115967,-0.0419617,0,0,0,0,0,40.09,711.777,738452
-0.0195312,-0.175171,1.04547,0.183105,0.0610352,-0.12207,-0.015,-0.149,2.43,-0.00088501,-0.0410919,0,0,0,0,0,40.09,711.798,738482
-0.0022583,-0.0718384,1.00995,-0.366211,-0.183105,-0.549316,0.006,-0.047,2.44,-0.00088501,-0.0408478,0,0,0,0,0,40.09,711.816,738497
-0.0130005,0.053894,0.940796,-0.366211,-1.2207,-0.915527,0,0.076,2.45,-0.00088501,-0.0405884,0,0,0,0,0,40.09,711.836,738512
0.0304565,0.0819092,0.994568,0.976562,-1.58691,-0.183105,0.045,0.103,2.46,-0.000854492,-0.0402069,0,0,0,0,0,40.09,711.855,738527
-0.0455322,0.046814,1.02087,0.915527,-0.244141,-1.40381,-0.032,0.072,2.49,-0.000839233,-0.0392303,0,0,0,0,0,40.09,711.876,738557
0.010498,-0.000671387,1.03888,-1.0376,-0.305176,-2.0752,0.021,0.022,2.52,-0.000717163,-0.0378571,0,0,0,0,0,40.09,711.9,738587
0.00140381,0.0284424,1.03577,-1.0376,-0.183105,-1.34277,0.013,0.052,2.54,-0.000610352,-0.0370789,0,0,0,0,0,40.09,711.917,738602
-0.00512695,-0.0356445,1.01062,1.52588,0.610352,-0.793457,0.004,-0.012,2.57,-0.000488281,-0.0362549,0,0,0,0,0,40.09,711.947,738632
-0.00512695,-0.0356445,1.01062,1.52588,0.610352,-0.793457,0.004,-0.012,2.57,-0.000488281,-0.0362549,0,0,0,0,0,40.09,711.957,738632
-0.0460815,-0.0299072,1.00232,0.915527,0.427246,-0.549316,-0.036,-0.004,2.58,-0.000427246,-0.0362549,0,0,0,0,0,40.09,711.976,738662
-0.024231,-0.0487671,1.04297,1.77002,0.549316,-0.610352,-0.015,-0.024,2.61,-0.000411987,-0.0362091,0,0,0,0,0,40.09,712.007,738692
-0.024231,-0.0487671,1.04297,1.77002,0.549316,-0.610352,-0.015,-0.024,2.61,-0.000411987,-0.0362091,0,0,0,0,0,40.09,712.016,738692
0.0098877,0.074646,0.962585,-0.12207,-0.305176,-1.2207,0.023,0.095,2.65,-0.000366211,-0.0360413,0,0,0,0,0,40.06,712.036,738722
-0.0136719,0.0888062,0.946167,0.366211,-0.854492,-1.28174,0,0.109,2.67,-0.000289917,-0.0357819,0,0,0,0,0,40.06,712.056,738737
-0.0511475,0.0797119,1.11139,1.89209,0.488281,-1.28174,-0.034,0.107,2.67,-0.000259399,-0.0353851,0,0,0,0,0,40.06,712.076,738752
-0.0140991,-0.257751,1.03186,-0.793457,0.793457,0.0610352,-0.014,-0.234,2.69,-0.000213623,-0.0347137,0,0,0,0,0,40.06,712.105,738782
-0.00384521,0.0569458,1.00659,-0.732422,-0.0610352,-0.488281,0.01,0.078,2.7,-0.000213623,-0.0345917,0,0,0,0,0,40.06,712.116,738797
-0.0614624,-0.0245972,0.998413,-0.854492,-0.915527,-1.0376,-0.051,0,2.71,-0.000244141,-0.0344238,0,0,0,0,0,40.06,712.137,738812
0.0106201,-0.000671387,1.02045,0.488281,0.549316,-0.854492,0.021,0.021,2.73,-0.000274658,-0.0339966,0,0,0,0,0,40.06,712.156,738842
0.0375366,0.0291138,1.03198,-1.09863,-0.976562,-1.58691,0.05,0.05,2.75,-0.000213623,-0.0337219,0,0,0,0,0,40.06,712.177,738857
-0.00415039,-0.00518799,0.950684,-1.2207,-0.915527,-0.244141,0.006,0.016,2.76,-0.00012207,-0.0333862,0,0,0,0,0,40.06,712.196,738872
-0.0131226,-0.0376587,1.05347,1.52588,0.854492,0.488281,-0.003,-0.013,2.77,-4.57764e-05,-0.0328369,0,0,0,0,0,40.06,712.216,738902
0.0220337,-0.00134277,0.987915,0.488281,-0.427246,0,0.033,0.019,2.77,-1.52588e-05,-0.0325623,0,0,0,0,0,40.06,712.238,738918
-0.0109863,-0.0387573,0.968018,1.64795,-0.366211,0.305176,-0.001,-0.017,2.76,3.05176e-05,-0.0325623,0,0,0,0,0,40.06,712.256,738932
0.00842285,0.233215,0.996887,2.86865,-1.28174,0.12207,0.031,0.252,2.76,0.000167847,-0.0321198,0,0,0,0,0,40.06,712.276,738962
0.00274658,0.0830688,1.00708,4.63867,-0.671387,-0.488281,0.018,0.101,2.76,0.000274658,-0.0315247,0,0,0,0,0,40.06,712.297,738978
0.000976562,0.0356445,0.980042,4.45557,0.305176,-0.610352,0.013,0.05,2.77,0.000411987,-0.0308228,0,0,0,0,0,40.06,712.316,738992
0.000488281,-0.0358887,1.08148,0.12207,0.793457,-1.95312,0.01,-0.021,2.81,0.000411987,-0.0293884,0,0,0,0,0,40.06,712.336,739022
0.0134888,0.0234985,0.947205,-3.479,1.09863,-3.60107,0.025,0.036,2.88,0.000473022,-0.0279694,0,0,0,0,0,40.06,712.365,739052
0.0134888,0.0234985,0.947205,-3.479,1.09863,-3.60107,0.025,0.036,2.88,0.000473022,-0.0279694,0,0,0,0,0,40.06,712.376,739052
-0.0397339,-0.166138,1.14893,-4.57764,2.01416,-3.35693,-0.034,-0.145,2.98,0.000579834,-0.0264893,0,0,0,0,0,40.06,712.396,739082
-0.00213623,-0.00244141,0.872192,-5.00488,0.915527,-0.976562,0.008,0.011,3.01,0.000595093,-0.0258942,0,0,0,0,0,40.06,712.416,739098
-0.0201416,0.122559,0.960632,-0.366211,0.488281,-0.488281,-0.001,0.14,3.02,0.000610352,-0.025177,0,0,0,0,0,40.06,712.439,739112
-0.1203,-0.0593872,1.04449,0,0.732422,1.0376,-0.109,-0.034,2.97,0.000534058,-0.0235901,0,0,0,0,0,40.06,712.456,739142
0.0180054,0.00958252,0.967163,-0.305176,-1.09863,1.64795,0.031,0.025,2.95,0.000411987,-0.0228119,0,0,0,0,0,40.06,712.477,739158
-0.0218506,-0.038269,0.968933,-1.0376,-1.28174,1.46484,-0.01,-0.019,2.92,0.000305176,-0.0220337,0,0,0,0,0,40.06,712.496,739172
0.00634766,-0.0557861,1.03003,-1.2207,-1.40381,0.732422,0.017,-0.036,2.89,0.000305176,-0.022049,0,0,0,0,0,40.06,712.516,739202
-0.0286255,-0.081665,1.00842,-1.28174,-0.549316,-0.549316,-0.019,-0.06,2.89,0.000305176,-0.0221252,0,0,0,0,0,40.07,712.537,739218
0.020752,-0.0271606,1.02838,-0.549316,0.183105,-0.793457,0.032,-0.007,2.9,0.000320435,-0.0222626,0,0,0,0,0,40.07,712.558,739232
0.0271606,-0.0474854,0.997375,2.86865,0.549316,-0.183105,0.037,-0.03,2.92,0.000442505,-0.0222778,0,0,0,0,0,40.07,712.577,739262
-0.0179443,-0.010498,1.0376,1.28174,0.549316,-0.12207,-0.005,0.01,2.93,0.000534058,-0.0223083,0,0,0,0,0,40.07,712.596,739278
0.00537109,-0.0533447,1.03113,-0.793457,0.366211,0.488281,0.015,-0.033,2.92,0.000640869,-0.0223694,0,0,0,0,0,40.07,712.616,739292
-0.0249023,0.0604248,0.999023,-0.0610352,-0.549316,0.366211,-0.008,0.08,2.9,0.000915527,-0.022644,0,0,0,0,0,40.07,712.653,739338
-0.0020752,0.0100098,0.998413,-0.427246,-0.488281,-0.854492,0.012,0.029,2.92,0.0010376,-0.0225372,0,0,0,0,0,40.07,712.688,739367
-0.00854492,-0.107605,1.02032,0.671387,-0.305176,-1.77002,0,-0.087,2.94,0.00111389,-0.0224915,0,0,0,0,0,40.07,712.704,739382
-0.0109863,-0.0995483,1.05823,0.305176,-0.0610352,-1.15967,-0.001,-0.079,2.96,0.00111389,-0.0225525,0,0,0,0,0,40.07,712.716,739398
0.0127563,-0.0669556,0.992493,-0.915527,-0.732422,-0.671387,0.022,-0.048,2.97,0.00112915,-0.0227203,0,0,0,0,0,40.07,712.737,739412
0.000671387,0.00799561,0.995361,-0.183105,0,0.488281,0.014,0.026,2.97,0.00123596,-0.0229797,0,0,0,0,0,40.07,712.758,739442
0.0250244,-0.0177612,1.02216,-0.244141,-0.671387,0.610352,0.037,0,2.96,0.00134277,-0.0230713,0,0,0,0,0,40.07,712.776,739458
-0.0270386,0.00567627,1.00397,-0.427246,-0.549316,0.12207,-0.013,0.026,2.94,0.0015564,-0.0232086,0,0,0,0,0,40.07,712.801,739488
-0.029541,-0.036377,1.01959,0.305176,0.549316,-0.427246,-0.017,-0.015,2.95,0.0015564,-0.0232544,0,0,0,0,0,40.07,712.817,739503
-0.052124,-0.0236206,1.02966,0.183105,0.183105,-0.549316,-0.039,0,2.96,0.00151062,-0.0233154,0,0,0,0,0,40.07,712.841,739518
0.0125122,-0.0100708,1.03253,-0.854492,-0.305176,-1.0376,0.025,0.009,2.97,0.00146484,-0.0233154,0,0,0,0,0,40.07,712.856,739533
-0.0278931,0.0613403,0.962646,-0.366211,-1.15967,-0.12207,-0.011,0.082,2.99,0.00143433,-0.0231781,0,0,0,0,0,40.07,712.876,739563
0.00860596,0.0210571,1.01837,-0.12207,-0.183105,-0.244141,0.023,0.041,3,0.00143433,-0.022995,0,0,0,0,0,40.07,712.896,739578
-0.0132446,-0.0316162,0.972595,-0.0610352,-0.610352,0.305176,-0.002,-0.011,2.99,0.00151062,-0.0225372,0,0,0,0,0,40.07,712.925,739608
-0.00848389,-0.0290527,1.01495,0.549316,0.12207,-0.305176,0.003,-0.008,3,0.00151062,-0.0225372,0,0,0,0,0,40.07,712.938,739623
0.0177612,-0.0363159,0.985168,-0.549316,0,-0.244141,0.029,-0.017,3,0.00152588,-0.0225372,0,0,0,0,0,40.07,712.956,739638
-0.0175781,0.0438843,1.03265,0.549316,-0.305176,-0.732422,-0.001,0.065,3.01,0.00157166,-0.0225067,0,0,0,0,0,40.07,712.976,739653
-0.0101318,-0.154053,1.02448,-0.610352,0.183105,-0.671387,-0.004,-0.133,3.02,0.0015564,-0.0226593,0,0,0,0,0,40.07,712.997,739683
-0.0479126,-0.00964355,1.02356,1.70898,0.12207,-0.427246,-0.034,0.012,3.03,0.00146484,-0.0234222,0,0,0,0,0,40.07,713.038,739713
-0.0316162,-0.0258789,1.02795,-0.915527,0,-0.12207,-0.019,-0.003,3.04,0.00132751,-0.0234222,0,0,0,0,0,40.06,713.056,739743
-0.00854492,0.0195312,1.00555,0.0610352,0.0610352,-0.793457,0.005,0.04,3.05,0.00132751,-0.023407,0,0,0,0,0,40.06,713.078,739758
0.00799561,-0.00311279,1.021,-0.0610352,0.366211,-0.244141,0.021,0.016,3.06,0.001297,-0.0233612,0,0,0,0,0,40.06,713.1,739788
-0.0213623,0.0446167,0.991394,-0.12207,-0.183105,-0.610352,-0.005,0.065,3.07,0.001297,-0.0232849,0,0,0,0,0,40.06,713.115,739803
-0.0115967,0.00714111,1.04926,-0.0610352,0.732422,-0.366211,0.002,0.028,3.08,0.001297,-0.0231476,0,0,0,0,0,40.06,713.136,739818
-0.0255127,0.0134888,0.988708,0,0.610352,-0.244141,-0.011,0.034,3.08,0.001297,-0.0229645,0,0,0,0,0,40.06,713.156,739833
-0.0601196,-0.038208,1.05951,-0.0610352,0.183105,-0.0610352,-0.048,-0.013,3.1,0.001297,-0.0226288,0,0,0,0,0,40.06,713.176,739863
-0.0233765,-0.00964355,1.00757,-0.488281,-0.488281,-0.549316,-0.01,0.012,3.1,0.00125122,-0.0226288,0,0,0,0,0,40.06,713.197,739878
-0.00860596,-0.0690918,0.994934,0,-0.305176,-0.610352,0.001,-0.048,3.11,0.00125122,-0.022644,0,0,0,0,0,40.06,713.216,739893
0.00238037,-0.0415649,1.00403,0.244141,-1.09863,-0.305176,0.013,-0.021,3.12,0.00125122,-0.0228424,0,0,0,0,0,40.06,713.237,739923
-0.0371094,-0.0222168,1.0451,1.58691,-0.305176,-0.793457,-0.024,0,3.13,0.00123596,-0.0229797,0,0,0,0,0,40.06,713.257,739938
0.0328979,-0.0363159,0.993591,0.976562,-0.610352,-0.183105,0.043,-0.018,3.13,0.00125122,-0.0231323,0,0,0,0,0,40.06,713.278,739953
-0.0406494,0.0328979,1.00568,1.89209,-0.12207,-0.793457,-0.026,0.054,3.14,0.00126648,-0.0232544,0,0,0,0,0,40.06,713.296,739968
-0.00787354,0.00152588,0.998108,-0.427246,0.0610352,-1.40381,0.004,0.02,3.16,0.00137329,-0.0233917,0,0,0,0,0,40.06,713.316,739998
0.00366211,0.0134277,0.995483,0.366211,0.305176,-0.610352,0.016,0.031,3.18,0.00137329,-0.023407,0,0,0,0,0,40.06,713.336,740013
-0.0272217,0.0620728,1.03235,2.0752,0.488281,-1.95312,-0.011,0.08,3.22,0.00137329,-0.0231934,0,0,0,0,0,40.06,713.356,740043
-0.00366211,0.0169678,1.03375,1.0376,0.244141,-2.56348,0.01,0.032,3.26,0.00137329,-0.0229645,0,0,0,0,0,40.06,713.381,740058
-0.0449219,-0.0140381,1.01917,-0.549316,-0.0610352,-3.60107,-0.032,0.003,3.3,0.00135803,-0.0227051,0,0,0,0,0,40.06,713.396,740073
-0.0119629,0.0755005,1.00415,-2.50244,-0.244141,-2.86865,0.005,0.091,3.39,0.00128174,-0.0221405,0,0,0,0,0,40.06,713.416,740103
-0.0227661,0.0795898,0.983093,-0.610352,-0.671387,-0.976562,-0.005,0.096,3.41,0.00128174,-0.021698,0,0,0,0,0,40.06,713.436,740118
0.00604248,0.012207,1.00293,-0.12207,-0.610352,0.0610352,0.019,0.027,3.41,0.00128174,-0.0211792,0,0,0,0,0,40.06,713.456,740133
-0.010498,-0.0390015,1.01642,-0.732422,-0.183105,0.793457,0,-0.022,3.39,0.00128174,-0.0202179,0,0,0,0,0,40.06,713.479,740163
0.00695801,-0.0675049,0.999023,-1.40381,-0.244141,0.366211,0.015,-0.051,3.38,0.00128174,-0.0198059,0,0,0,0,0,40.06,713.496,740178
-0.000976562,-0.0175171,1.00964,-0.610352,0.244141,1.28174,0.01,0,3.37,0.00128174,-0.0194397,0,0,0,0,0,40.06,713.516,740193
-0.000671387,-0.0498047,1.0166,0.732422,0.671387,0.305176,0.009,-0.032,3.34,0.00128174,-0.0194702,0,0,0,0,0,40.06,713.536,740223
-0.0214233,0.0022583,0.994568,0.854492,0.0610352,-0.427246,-0.008,0.02,3.34,0.00128174,-0.0195007,0,0,0,0,0,40.09,713.557,740238
-0.0491333,-0.0422363,1.0141,0.366211,0.488281,-1.46484,-0.038,-0.021,3.36,0.00125122,-0.019516,0,0,0,0,0,40.09,713.577,740253
0.00671387,-0.0380249,0.98468,-0.244141,-0.12207,0,0.017,-0.02,3.38,0.00114441,-0.0197754,0,0,0,0,0,40.09,713.597,740283
-0.0159302,-0.0170898,0.959106,0.12207,-0.366211,0,-0.004,0,3.37,0.00114441,-0.0199585,0,0,0,0,0,40.09,713.616,740298
-0.00604248,-0.017334,1.02869,0.12207,-0.732422,0.244141,0.006,0.001,3.37,0.00114441,-0.0201263,0,0,0,0,0,40.09,713.636,740313
-0.02771,0.0265503,1.01575,0.488281,-0.244141,-0.793457,-0.013,0.046,3.39,0.00114441,-0.0203705,0,0,0,0,0,40.09,713.656,740343
-0.00872803,-0.0241699,1.05511,-0.305176,-0.244141,-0.549316,0.003,-0.005,3.39,0.00114441,-0.0204315,0,0,0,0,0,40.09,713.679,740359
-0.0202026,-0.0194702,1.00372,-0.427246,0.427246,0,-0.008,0,3.4,0.00114441,-0.0204315,0,0,0,0,0,40.09,713.696,740373
0.000854492,0.0150146,1.00189,0.244141,-0.0610352,0.12207,0.014,0.032,3.39,0.00114441,-0.0203552,0,0,0,0,0,40.09,713.716,740403
-0.00695801,-0.0375977,1.02301,0.610352,0.610352,-0.305176,0.003,-0.019,3.39,0.00114441,-0.0202789,0,0,0,0,0,40.09,713.736,740419
-0.00500488,-0.00683594,0.966858,0.366211,-0.0610352,-1.0376,0.006,0.01,3.41,0.00114441,-0.0202789,0,0,0,0,0,40.09,713.756,740433
-0.0250244,-0.029541,1.03247,-0.427246,0.305176,-0.427246,-0.013,-0.009,3.43,0.00114441,-0.0202789,0,0,0,0,0,40.09,713.778,740463
-0.00927734,0.00622559,0.96991,-0.244141,0.366211,-0.305176,0.003,0.024,3.44,0.00114441,-0.0202789,0,0,0,0,0,40.09,713.796,740479
-0.000976562,-0.0301514,1.03741,0.12207,-0.12207,-0.183105,0.01,-0.01,3.44,0.00114441,-0.0202484,0,0,0,0,0,40.09,713.816,740493
-0.0090332,-0.0218506,1.01038,0.671387,-0.12207,-0.915527,0.002,-0.003,3.45,0.00114441,-0.0201416,0,0,0,0,0,40.09,713.838,740523
-0.0148926,-0.00750732,1.02643,0.427246,-0.366211,-0.793457,-0.001,0.011,3.46,0.00114441,-0.0200653,0,0,0,0,0,40.09,713.857,740539
-0.0159302,-0.00427246,1.01593,0.12207,-0.488281,-0.488281,-0.002,0.015,3.47,0.00114441,-0.0200653,0,0,0,0,0,40.09,713.877,740553
-0.00543213,-0.127563,1.03247,-0.12207,0.305176,0.549316,0,-0.108,3.46,0.00114441,-0.019989,0,0,0,0,0,40.09,713.9,740583
-0.00238037,-0.0631714,1.01007,0.305176,0.549316,0,0.006,-0.044,3.46,0.00114441,-0.0200653,0,0,0,0,0,40.09,713.916,740599
-0.00512695,-0.00933838,1.01605,1.2207,0.427246,-1.28174,0.007,0.008,3.47,0.00114441,-0.0201569,0,0,0,0,0,40.09,713.936,740613
-0.0203857,-0.0629883,1.04547,-0.12207,1.0376,-0.427246,-0.01,-0.042,3.5,0.00114441,-0.0204315,0,0,0,0,0,40.09,713.957,740643
-0.012207,0.0421143,0.979492,-0.12207,0.610352,0.244141,0.003,0.06,3.5,0.00114441,-0.0205841,0,0,0,0,0,40.09,713.976,740659
-0.0117188,0.00933838,1.052,0.488281,0.488281,0.366211,0.002,0.028,3.49,0.00114441,-0.0206604,0,0,0,0,0,40.09,713.999,740673
-0.013855,-0.0610352,1.02728,-0.183105,-0.183105,-0.427246,-0.003,-0.042,3.49,0.00114441,-0.0207672,0,0,0,0,0,40.09,714.016,740703
-0.0115967,-0.0369263,1.00616,-0.915527,-0.305176,-0.610352,0,-0.018,3.5,0.00114441,-0.0208588,0,0,0,0,0,40.09,714.037,740719
-0.0198364,-0.0183716,0.997559,-1.28174,-0.732422,0.183105,-0.007,0,3.5,0.00114441,-0.0208588,0,0,0,0,0,40.09,714.056,740733
-0.00836182,0.0150757,0.994385,-0.427246,-0.183105,-0.244141,0.005,0.033,3.5,0.00114441,-0.0208435,0,0,0,0,0,40.06,714.077,740763
0.00323486,-0.0193481,1.00244,-0.183105,-0.366211,-0.732422,0.015,-0.001,3.5,0.00114441,-0.020813,0,0,0,0,0,40.06,714.097,740779
-0.00335693,-0.0256958,1.03479,0.549316,0.976562,-1.40381,0.008,-0.006,3.52,0.00114441,-0.0207825,0,0,0,0,0,40.06,714.116,740793
-0.0272827,-0.0863037,1.01062,-0.549316,0.610352,-0.671387,-0.019,-0.065,3.54,0.00117493,-0.0207062,0,0,0,0,0,40.06,714.136,740824
-0.00012207,-0.0270996,1.05853,-0.671387,1.58691,-0.244141,0.012,-0.006,3.55,0.00119019,-0.0207367,0,0,0,0,0,40.06,714.156,740839
0.00201416,-0.00408936,0.979309,-0.610352,0.671387,0.488281,0.015,0.014,3.55,0.00119019,-0.0207367,0,0,0,0,0,40.06,714.178,740853
-0.0264282,-0.015564,0.97821,0.976562,0.610352,-0.305176,-0.013,0.004,3.54,0.00119019,-0.0207367,0,0,0,0,0,40.06,714.198,740883
-0.0206299,-0.0340576,1.0293,0.366211,-0.12207,-0.0610352,-0.007,-0.013,3.54,0.00119019,-0.0207367,0,0,0,0,0,40.06,714.216,740899
-0.0335693,-0.0610352,1.02588,-0.488281,-0.366211,-0.12207,-0.022,-0.039,3.54,0.00117493,-0.0207672,0,0,0,0,0,40.06,714.236,740914
-0.0195312,-0.00927734,0.997986,-0.305176,-0.12207,0.671387,-0.005,0.01,3.54,0.00112915,-0.0208282,0,0,0,0,0,40.06,714.256,740929
-0.0103149,0.0682373,1.0047,0.366211,-0.488281,0.0610352,0.008,0.087,3.52,0.00109863,-0.0207977,0,0,0,0,0,40.06,714.275,740959
0.0055542,0.086853,1.01996,2.19727,-0.244141,-0.12207,0.025,0.103,3.52,0.00112915,-0.0205994,0,0,0,0,0,40.06,714.299,740974
-0.00994873,0.0263062,1.01361,3.17383,-0.488281,-0.976562,0.006,0.042,3.53,0.00117493,-0.0203247,0,0,0,0,0,40.06,714.316,740989
-0.0139771,-0.0238037,1.01831,2.99072,0.183105,-0.915527,-0.001,-0.009,3.55,0.0012207,-0.0195465,0,0,0,0,0,40.06,714.336,741019
-0.0090332,-0.0146484,0.976135,0.427246,0,-0.610352,0.003,-0.001,3.56,0.0012207,-0.0191345,0,0,0,0,0,40.06,714.36,741034
-0.0233154,0.0318604,1.00769,-4.21143,0.183105,0.305176,-0.007,0.046,3.56,0.0012207,-0.0183563,0,0,0,0,0,40.06,714.376,741064
0.00244141,0.0388184,1.01385,-4.39453,0.427246,0.976562,0.019,0.053,3.54,0.0012207,-0.0178833,0,0,0,0,0,40.06,714.396,741079
-0.00897217,0.0979004,1.03387,-2.80762,0.12207,1.09863,0.011,0.113,3.53,0.0012207,-0.0173035,0,0,0,0,0,40.06,714.416,741094
-0.0145264,-0.0411987,1.01764,0.793457,0.488281,-0.183105,-0.002,-0.025,3.51,0.0012207,-0.0158844,0,0,0,0,0,40.06,714.436,741124
-0.0115356,-0.0801392,1.0119,-1.09863,-0.244141,-0.427246,-0.001,-0.063,3.51,0.0012207,-0.0152435,0,0,0,0,0,40.06,714.458,741139
-0.0249634,0.0132446,0.997131,-1.2207,-0.549316,-0.488281,-0.009,0.03,3.52,0.0012207,-0.0146027,0,0,0,0,0,40.06,714.478,741154
-0.0206909,-0.0487061,1.03217,0.671387,0,-0.244141,-0.008,-0.031,3.52,0.0012207,-0.0139771,0,0,0,0,0,40.06,714.496,741169
-0.00982666,-0.069519,0.999268,-1.40381,-0.671387,0.244141,0,-0.051,3.52,0.0012207,-0.0129852,0,0,0,0,0,40.06,714.516,741199
-0.0127563,-0.0184937,1.01636,-0.610352,-0.366211,0.305176,0,0,3.52,0.0012207,-0.0125885,0,0,0,0,0,40.06,714.537,741214
-0.00799561,-0.0478516,1.00104,1.77002,0.305176,1.09863,0.003,-0.029,3.49,0.0012207,-0.0117798,0,0,0,0,0,40.06,714.556,741244
-0.00372314,-0.0160522,1.03613,1.83105,0.610352,0.366211,0.009,0.001,3.48,0.0012207,-0.0114136,0,0,0,0,0,40.09,714.576,741259
-0.00201416,-0.0153809,1.01044,0.915527,0.366211,-0.305176,0.011,0.001,3.48,0.0012207,-0.0110321,0,0,0,0,0,40.09,714.598,741274
-0.019043,-0.0180664,1.02551,-1.15967,0.610352,-0.854492,-0.005,0,3.51,0.0012207,-0.0110321,0,0,0,0,0,40.09,714.616,741304
-0.0224609,-0.0164185,1.02991,-1.2207,0.0610352,0.244141,-0.008,0.002,3.51,0.0012207,-0.0110321,0,0,0,0,0,40.09,714.636,741319
-0.0294189,0.00128174,0.998047,-0.671387,-0.12207,0.549316,-0.014,0.02,3.5,0.0012207,-0.0110168,0,0,0,0,0,40.09,714.659,741334
-0.0325928,-0.0355835,1.02838,0.183105,-0.549316,1.0376,-0.019,-0.015,3.46,0.0012207,-0.0109711,0,0,0,0,0,40.09,714.676,741364
-0.0181274,-0.0258179,1.0163,-0.0610352,-0.610352,1.34277,-0.004,-0.007,3.44,0.0012207,-0.0109711,0,0,0,0,0,40.09,714.696,741379
0.00170898,-0.0273438,0.994324,-0.305176,-0.976562,1.46484,0.014,-0.01,3.42,0.0012207,-0.0109711,0,0,0,0,0,40.09,714.716,741394
-0.00170898,-0.00946045,1.03003,-0.427246,-0.549316,0.244141,0.012,0.008,3.4,0.0012207,-0.0109253,0,0,0,0,0,40.09,714.736,741424
0.00817871,-0.0403442,1.00885,-0.427246,-0.183105,-0.732422,0.019,-0.023,3.41,0.0012207,-0.0108948,0,0,0,0,0,40.09,714.756,741439
-0.00250244,-0.0313721,1.005,-0.183105,0.305176,-0.854492,0.009,-0.013,3.42,0.0012207,-0.0108948,0,0,0,0,0,40.09,714.777,741454
-0.019104,-0.00213623,1.00623,-0.183105,0.366211,-0.549316,-0.005,0.017,3.43,0.0012207,-0.0109863,0,0,0,0,0,40.09,714.799,741484
-0.0247803,-0.0386353,1.00854,-0.488281,0.305176,-0.366211,-0.012,-0.018,3.44,0.0012207,-0.0110321,0,0,0,0,0,40.09,714.816,741499
-0.0232544,-0.0379639,1.0177,0,0.183105,-0.12207,-0.01,-0.017,3.44,0.0012207,-0.0110321,0,0,0,0,0,40.09,714.838,741514
-0.0146484,-0.0317383,1.00696,-0.244141,-0.183105,0.183105,-0.001,-0.012,3.44,0.0012207,-0.0110321,0,0,0,0,0,40.09,714.856,741529
-0.0147095,-0.0134277,1.01801,0.488281,-0.183105,-0.244141,0,0.006,3.43,0.0012207,-0.0110321,0,0,0,0,0,40.09,714.876,741559
0.00891113,-0.013855,1.01691,0.976562,-0.12207,-0.732422,0.022,0.003,3.44,0.00123596,-0.0110321,0,0,0,0,0,40.09,714.897,741574
-0.0045166,-0.0410767,1.01514,-0.0610352,-0.12207,-1.70898,0.007,-0.022,3.46,0.00128174,-0.0110474,0,0,0,0,0,40.09,714.916,741589
-0.00244141,-0.0213013,1.00555,-0.366211,0.183105,-1.0376,0.01,-0.002,3.5,0.00132751,-0.0110321,0,0,0,0,0,40.09,714.936,741619
-0.0144653,-0.0302124,1.02399,-0.732422,0.0610352,-0.427246,-0.001,-0.01,3.51,0.00132751,-0.0110321,0,0,0,0,0,40.09,714.956,741634
-0.0213013,-0.00415039,1.02417,0.244141,0.244141,1.09863,-0.006,0.016,3.49,0.00132751,-0.0110321,0,0,0,0,0,40.09,714.976,741664
-0.0380859,-0.0449829,1.01819,0.12207,0.0610352,1.28174,-0.025,-0.023,3.47,0.00131226,-0.0110474,0,0,0,0,0,40.09,714.999,741679
-0.0174561,-0.0418701,1.00568,-0.305176,-0.244141,1.70898,-0.005,-0.021,3.44,0.00126648,-0.0110779,0,0,0,0,0,40.09,715.018,741694
-0.0150757,-0.0376587,0.990784,-0.183105,-0.732422,0.244141,-0.002,-0.017,3.42,0.0012207,-0.0111389,0,0,0,0,0,40.09,715.036,741724
-0.00469971,-0.00543213,1.00964,0.12207,-0.732422,-0.366211,0.009,0.014,3.42,0.0012207,-0.0111389,0,0,0,0,0,40.09,715.06,741740
-0.0201416,-0.0396729,1.02191,-0.0610352,-0.12207,-1.46484,-0.007,-0.019,3.43,0.0012207,-0.0111389,0,0,0,0,0,40.09,715.076,741754
0.00994873,-0.027832,1.02179,-0.0610352,-0.427246,-1.46484,0.022,-0.008,3.46,0.0012207,-0.0111389,0,0,0,0,0,40.07,715.097,741769
-0.0112305,0.053833,0.985718,1.2207,-0.244141,-0.732422,0.005,0.072,3.48,0.001297,-0.0110626,0,0,0,0,0,40.07,715.118,741800
0.00408936,0.0540771,1.02405,2.31934,0.12207,0.610352,0.021,0.072,3.48,0.00137329,-0.0108795,0,0,0,0,0,40.07,715.137,741814
-0.0361938,0.0301514,1.02563,2.38037,0.305176,0.549316,-0.02,0.049,3.47,0.00143433,-0.0106201,0,0,0,0,0,40.07,715.157,741829
-0.0178833,0.0203857,1.01031,0.915527,-0.12207,1.2207,-0.002,0.036,3.44,0.00149536,-0.00996399,0,0,0,0,0,40.07,715.176,741860
-0.0217285,0.121887,0.99231,3.35693,-0.12207,0.915527,0,0.136,3.42,0.00149536,-0.00949097,0,0,0,0,0,40.07,715.198,741874
-0.0115967,-0.00463867,1.02118,2.62451,-0.671387,0.12207,0.002,0.006,3.41,0.00149536,-0.00837708,0,0,0,0,0,40.07,715.217,741904
-0.0111084,-0.0223389,0.978516,0.427246,-0.549316,0.12207,0,-0.011,3.41,0.00149536,-0.00837708,0,0,0,0,0,40.07,715.236,741920
-0.00891113,0.00726318,1.02161,-1.77002,0.12207,-0.244141,0.005,0.018,3.41,0.00149536,-0.00837708,0,0,0,0,0,40.07,715.257,741934
-0.00616455,0.0549927,1.00903,-3.2959,0,-0.732422,0.01,0.066,3.42,0.00149536,-0.00822449,0,0,0,0,0,40.07,715.277,741964
-0.0167847,0.00830078,0.999756,-3.479,0.244141,-1.2207,-0.002,0.02,3.43,0.00149536,-0.0080719,0,0,0,0,0,40.07,715.297,741980
-0.0233765,-0.0422363,1.05511,-4.82178,0.671387,-0.610352,-0.011,-0.027,3.45,0.00149536,-0.00790405,0,0,0,0,0,40.07,715.316,741994
0.022644,0.0731201,1.00397,-4.69971,-0.427246,-0.183105,0.04,0.085,3.45,0.00151062,-0.00770569,0,0,0,0,0,40.07,715.335,742009
-0.0117798,-0.0288086,0.996765,-0.0610352,0.610352,0.610352,0,-0.013,3.43,0.00158691,-0.00721741,0,0,0,0,0,40.07,715.356,742040
-0.0195923,-0.0852661,1.01056,1.52588,0.12207,0.366211,-0.01,-0.068,3.42,0.00158691,-0.0070343,0,0,0,0,0,40.07,715.376,742054
-0.0230103,-0.14679,1.01794,0.793457,-0.12207,-1.15967,-0.017,-0.129,3.43,0.00158691,-0.00698853,0,0,0,0,0,40.07,715.396,742069
-0.015686,-0.029541,1.00037,0.0610352,0,0.12207,-0.003,-0.011,3.44,0.00158691,-0.00718689,0,0,0,0,0,40.07,715.416,742100
0.00994873,-0.0311279,1.02466,1.34277,0,0.610352,0.022,-0.014,3.43,0.00160217,-0.00732422,0,0,0,0,0,40.07,715.436,742114
-0.0341187,-0.0483398,1.01196,1.34277,0.12207,1.58691,-0.022,-0.029,3.4,0.00163269,-0.00767517,0,0,0,0,0,40.07,715.456,742144
0.00891113,-0.00439453,1.02844,0.915527,0.0610352,2.38037,0.023,0.012,3.36,0.00164795,-0.00788879,0,0,0,0,0,40.07,715.477,742160
-0.0180664,-0.0248413,1.01276,0.732422,0.0610352,2.74658,-0.005,-0.007,3.33,0.00167847,-0.00788879,0,0,0,0,0,40.07,715.496,742174
-0.0344849,-0.0143433,0.997131,0,0,4.5166,-0.021,0.004,3.27,0.00167847,-0.00788879,0,0,0,0,0,40.07,715.516,742189
-0.0248413,-0.00134277,1.01324,-0.244141,0,5.61523,-0.01,0.016,3.11,0.00170898,-0.0078125,0,0,0,0,0,40.07,715.536,742220
-0.0291748,-0.0127563,1.00183,-0.244141,-0.427246,6.53076,-0.015,0.004,3.01,0.00170898,-0.00775146,0,0,0,0,0,40.07,715.556,742234
0.00128174,-0.0164185,1.01587,-0.488281,-0.305176,6.34766,0.014,0,2.91,0.00170898,-0.00775146,0,0,0,0,0,40.07,715.575,742249
-0.0223999,-0.0144043,1.01489,-0.671387,-0.366211,5.67627,-0.009,0.003,2.74,0.00170898,-0.00775146,0,0,0,0,0,40.11,715.596,742280
-0.00671387,-0.0663452,1.00708,-0.793457,-0.427246,6.89697,0.004,-0.048,2.65,0.00170898,-0.00778198,0,0,0,0,0,40.11,715.617,742294
-0.00408936,-0.0345459,1.01459,-0.671387,-0.488281,11.9019,0.008,-0.016,2.49,0.00170898,-0.00785828,0,0,0,0,0,40.11,715.636,742309
-0.0131836,-0.0401001,1.00958,0.671387,0.244141,16.5405,0,-0.021,2.04,0.00170898,-0.00805664,0,0,0,0,0,40.11,715.656,742340
-0.0306396,-0.0255737,1.01202,0.549316,-0.12207,18.5547,-0.017,-0.006,1.77,0.00170898,-0.00819397,0,0,0,0,0,40.11,715.676,742355
-0.0228882,-0.0167847,1.01331,-0.0610352,-0.183105,19.2261,-0.009,0.001,1.48,0.00170898,-0.0083313,0,0,0,0,0,40.11,715.696,742370
-0.0239258,-0.00262451,1.01733,-0.244141,-0.488281,20.9961,-0.01,0.016,0.87,0.00170898,-0.0083313,0,0,0,0,0,40.11,715.716,742400
-0.0124512,-0.0223389,1.01709,-0.610352,-0.854492,20.752,0.001,-0.003,0.55,0.00170898,-0.0083313,0,0,0,0,0,40.11,715.735,742415
-0.0188599,-0.019043,0.99939,-0.793457,-1.09863,19.7754,-0.005,0,0.25,0.00170898,-0.0083313,0,0,0,0,0,40.11,715.756,742430
-0.00170898,-0.0209961,1.02539,-0.244141,-0.976562,17.334,0.011,-0.001,-0.29,0.00170898,-0.0083313,0,0,0,0,0,40.11,715.777,742460
-0.0117798,-0.0304565,1.01605,0.0610352,-0.488281,17.1509,0.001,-0.011,-0.55,0.00170898,-0.0083313,0,0,0,0,0,40.11,715.796,742475
0.00299072,-0.0307007,1.01147,0.12207,-0.183105,17.6392,0.016,-0.011,-1.08,0.00170898,-0.00842285,0,0,0,0,0,40.11,715.819,742505
-0.0258789,-0.0203857,1.02203,0.12207,0.183105,17.7002,-0.012,-0.001,-1.34,0.00170898,-0.00848389,0,0,0,0,0,40.11,715.836,742520
-0.020813,-0.0358276,1.00842,-0.244141,-0.12207,18.8599,-0.007,-0.017,-1.62,0.00170898,-0.00848389,0,0,0,0,0,40.11,715.856,742535
-0.024292,-0.0261841,1.02301,-0.305176,-0.305176,20.3247,-0.01,-0.007,-2.21,0.00170898,-0.00848389,0,0,0,0,0,40.11,715.876,742565
-0.0339355,-0.00488281,1.0144,-0.427246,-0.793457,20.874,-0.021,0.013,-2.52,0.00169373,-0.00848389,0,0,0,0,0,40.11,715.896,742580
-0.0296631,-0.0134888,1.01398,-0.244141,-0.793457,20.3247,-0.016,0.004,-2.83,0.00163269,-0.00848389,0,0,0,0,0,40.11,715.916,742595
-0.0346069,-0.00970459,1.01294,-0.488281,-1.40381,19.2871,-0.021,0.008,-3.43,0.00152588,-0.00848389,0,0,0,0,0,40.11,715.937,742625
-0.015686,-0.00921631,0.997253,-0.366211,-1.52588,19.165,-0.003,0.009,-3.72,0.00143433,-0.00848389,0,0,0,0,0,40.11,715.956,742640
0.0154419,-0.0245972,1.02783,-0.244141,-1.2207,18.5547,0.028,-0.003,-4,0.00137329,-0.00848389,0,0,0,0,0,40.11,715.976,742655
-0.0217285,-0.0270386,1.02368,-0.610352,-0.915527,18.1885,-0.008,-0.008,-4.27,0.00131226,-0.00848389,0,0,0,0,0,40.11,715.996,742670
0.0115356,-0.0249023,1.00653,-0.12207,-0.549316,18.4326,0.023,-0.003,-4.83,0.00123596,-0.00848389,0,0,0,0,0,40.11,716.017,742700
-0.00512695,-0.0290527,1.02441,0.12207,-0.12207,18.3716,0.007,-0.008,-5.11,0.0012207,-0.00848389,0,0,0,0,0,40.11,716.039,742715
-0.0211182,-0.0212402,1.02515,0,0.0610352,18.9819,-0.008,-0.002,-5.39,0.0012207,-0.00848389,0,0,0,0,0,40.11,716.056,742730
-0.00878906,-0.0385742,1.01001,0.488281,0.244141,19.9585,0.005,-0.018,-5.98,0.0012207,-0.00848389,0,0,0,0,0,40.11,716.076,742760
-0.0386353,-0.0239868,1.02179,0.366211,0.305176,20.752,-0.025,-0.007,-6.28,0.00120544,-0.00848389,0,0,0,0,0,40.11,716.096,742775
-0.0296631,-0.0245972,1.00726,0,-0.366211,21.1792,-0.016,-0.007,-6.6,0.00115967,-0.00848389,0,0,0,0,0,40.06,716.116,742790
-0.0230713,-0.0238647,1.02557,-0.0610352,-0.915527,22.2778,-0.009,-0.005,-7.27,0.00109863,-0.00848389,0,0,0,0,0,40.06,716.137,742820
-0.0440063,-0.0221558,1.00262,-0.427246,-1.52588,22.522,-0.03,-0.007,-7.6,0.00108337,-0.00848389,0,0,0,0,0,40.06,716.156,742835
-0.0012207,-0.0130005,1.01019,-0.427246,-1.70898,22.8271,0.01,0.007,-7.95,0.0010376,-0.00848389,0,0,0,0,0,40.06,716.176,742850
-0.0223389,-0.0144043,1.00806,-0.793457,-1.52588,21.6064,-0.01,0.003,-8.61,0.00100708,-0.00848389,0,0,0,0,0,40.06,716.198,742880
-0.00622559,-0.0202637,1.00696,-0.305176,-0.793457,19.8975,0.005,0,-9.23,0.00100708,-0.00848389,0,0,0,0,0,40.06,716.234,742910
-0.0122681,-0.0422363,1.0127,-0.0610352,-0.183105,19.5923,0.003,-0.022,-9.82,0.00100708,-0.0085144,0,0,0,0,0,40.06,716.269,742940
-0.0103149,-0.0306396,1.008,0.366211,0.0610352,19.8975,0.003,-0.011,-10.11,0.00100708,-0.00856018,0,0,0,0,0,40.06,716.278,742955
-0.0144653,-0.0288696,1.01086,0.244141,-0.0610352,20.6299,0,-0.01,-10.73,0.00100708,-0.00862122,0,0,0,0,0,40.06,716.303,742985
-0.0258789,-0.026123,1.02045,-0.0610352,-0.183105,21.1792,-0.011,-0.009,-11.04,0.00100708,-0.00862122,0,0,0,0,0,40.06,716.316,743000
-0.0476074,-0.0067749,1.01392,-0.12207,-0.610352,21.8506,-0.036,0.005,-11.37,0.000976562,-0.00862122,0,0,0,0,0,40.06,716.336,743015
-0.03125,-0.00610352,1.01501,-0.488281,-0.976562,22.2168,-0.02,0.008,-12.03,0.000823975,-0.00862122,0,0,0,0,0,40.06,716.373,743045
0.00219727,-0.0170288,1.00677,-0.305176,-1.46484,20.3247,0.013,0.004,-13.32,0.00062561,-0.00862122,0,0,0,0,0,40.06,716.418,743105
-0.00292969,-0.022583,1.01508,-0.12207,-0.915527,19.4702,0.009,-0.001,-13.62,0.00062561,-0.00862122,0,0,0,0,0,40.06,716.436,743120
0.0148926,-0.0310669,1.01776,-0.0610352,-0.732422,19.4092,0.028,-0.005,-13.92,0.000656128,-0.00862122,0,0,0,0,0,40.06,716.456,743135
-0.00897217,-0.0358276,1.01324,0.0610352,-0.366211,19.7144,0.006,-0.015,-14.21,0.000701904,-0.00862122,0,0,0,0,0,40.06,716.477,743150
-0.0114136,-0.0263062,1.01587,0.244141,0.183105,20.2637,0.001,-0.006,-14.81,0.000762939,-0.00862122,0,0,0,0,0,40.06,716.496,743180
-0.0184326,-0.0170898,1.01337,0.305176,0.12207,20.752,-0.007,0,-15.12,0.000762939,-0.00862122,0,0,0,0,0,40.06,716.517,743195
-0.020813,-0.0189819,1.01373,0.183105,-0.12207,22.7051,-0.008,-0.002,-15.78,0.000701904,-0.00862122,0,0,0,0,0,40.06,716.539,743225
-0.0280762,-0.0136719,1.02356,-0.244141,-0.732422,23.1323,-0.016,0,-16.13,0.000640869,-0.00862122,0,0,0,0,0,40.06,716.558,743241
-0.0487671,-0.0045166,1.00378,-0.976562,-1.2207,23.8647,-0.038,0.003,-16.48,0.000549316,-0.00862122,0,0,0,0,0,40.06,716.576,743255
-0.012085,0.00341797,1.01019,-0.793457,-1.52588,23.2544,-0.006,0.021,-16.83,0.000427246,-0.00860596,0,0,0,0,0,40.06,716.596,743270
-0.0237427,-0.00897217,1.01758,-0.854492,-1.52588,21.6064,-0.014,0.006,-17.51,0.000289917,-0.0085144,0,0,0,0,0,40.08,716.616,743301
0.000976562,-0.0142822,1.01105,-0.305176,-1.28174,20.4468,0.01,0.008,-17.82,0.000289917,-0.0085144,0,0,0,0,0,40.08,716.635,743315
-0.00201416,-0.0314941,1.00085,0.12207,-0.854492,19.4702,0.012,-0.009,-18.12,0.000289917,-0.0085144,0,0,0,0,0,40.08,716.656,743330
-0.00708008,-0.036499,1.01404,0.12207,-0.244141,19.3481,0.009,-0.015,-18.69,0.000366211,-0.0085144,0,0,0,0,0,40.08,716.676,743361
-0.0123901,-0.032959,1.00977,0.12207,0.0610352,20.4468,0.003,-0.013,-18.99,0.000427246,-0.0085144,0,0,0,0,0,40.08,716.695,743375
-0.00134277,-0.0339966,1.01953,-0.0610352,0.12207,20.9961,0.014,-0.01,-19.3,0.000427246,-0.0085144,0,0,0,0,0,40.08,716.716,743390
-0.0375366,-0.0149536,1.02344,0.183105,0,22.9492,-0.025,-0.004,-19.97,0.000396729,-0.0085144,0,0,0,0,0,40.08,716.736,743421
-0.0299072,-0.0117798,1.00793,0.12207,-0.366211,22.9492,-0.019,0,-20.32,0.000335693,-0.0085144,0,0,0,0,0,40.08,716.756,743435
-0.0357666,-0.0178833,1.01672,-0.549316,-1.15967,23.7427,-0.022,-0.007,-21.02,0.00012207,-0.0085144,0,0,0,0,0,40.08,716.776,743465
-0.0130615,-0.00970459,1.01709,-0.427246,-1.52588,23.0713,-0.003,0.008,-21.38,0,-0.0085144,0,0,0,0,0,40.08,716.796,743481
-0.0341187,-0.012146,1.00989,-0.732422,-1.58691,22.4609,-0.022,-0.002,-21.72,-0.000137329,-0.0085144,0,0,0,0,0,40.08,716.816,743495
-0.0115356,-0.0145874,0.999573,-0.366211,-1.64795,21.4844,-0.001,0.003,-22.04,-0.000305176,-0.0085144,0,0,0,0,0,40.08,716.836,743510
-0.0114746,-0.0150757,1.00983,-0.0610352,-1.09863,19.4092,-0.001,0.002,-22.65,-0.000473022,-0.0085144,0,0,0,0,0,40.08,716.858,743541
0.00256348,-0.0199585,1.00909,0.183105,-0.549316,19.5923,0.013,0.003,-22.93,-0.000473022,-0.0085144,0,0,0,0,0,40.08,716.876,743555
0.0218506,-0.0418701,1.01471,0.366211,-0.12207,19.5923,0.039,-0.008,-23.23,-0.000427246,-0.0085144,0,0,0,0,0,40.08,716.896,743570
-0.013916,-0.020752,1.02008,0.12207,0.244141,21.1182,-0.001,-0.003,-23.85,-0.000305176,-0.0085907,0,0,0,0,0,40.08,716.916,743601
-0.0269165,-0.0305786,1.00873,0.0610352,0.366211,21.5454,-0.009,-0.017,-24.18,-0.000305176,-0.00863647,0,0,0,0,0,40.08,716.936,743615
-0.0267334,-0.0176392,1.01208,-0.0610352,-0.12207,22.7051,-0.014,-0.005,-24.51,-0.000305176,-0.00863647,0,0,0,0,0,40.08,716.956,743630
-0.0450439,-0.0231323,1.01111,-0.793457,-1.2207,23.5596,-0.027,-0.018,-25.2,-0.000411987,-0.00863647,0,0,0,0,0,40.08,716.984,743661
-0.0181274,-0.0187378,1.02301,-1.2207,-1.52588,23.5596,-0.005,-0.002,-25.56,-0.00050354,-0.00863647,0,0,0,0,0,40.08,716.996,743675
-0.0279541,-0.00286865,1.00482,-0.305176,-2.62451,22.9492,-0.021,0.006,-26.25,-0.000762939,-0.00863647,0,0,0,0,0,40.08,717.017,743705
0.0100708,-0.0112915,1.0105,0.12207,-2.0752,21.8506,0.015,0.015,-26.58,-0.000930786,-0.00863647,0,0,0,0,0,40.08,717.041,743721
-0.00488281,-0.0231934,1.02698,0.244141,-1.89209,21.1792,0.007,-0.001,-26.91,-0.000930786,-0.00863647,0,0,0,0,0,40.08,717.063,743735
-0.000427246,-0.0272217,1.02216,0,-1.70898,21.2402,0.012,-0.003,-27.22,-0.000930786,-0.00863647,0,0,0,0,0,40.08,717.078,743751
0.0022583,-0.0355225,1.0061,-0.12207,-0.427246,21.7285,0.018,-0.009,-27.86,-0.000839233,-0.00863647,0,0,0,0,0,40.08,717.109,743781
-0.0186157,-0.00665283,1.01093,0.12207,0.12207,23.0103,-0.013,0.005,-28.54,-0.000762939,-0.00863647,0,0,0,0,0,40.07,717.136,743811
-0.0357056,-0.0200806,1.0174,0.427246,-0.0610352,24.292,-0.021,-0.014,-29.25,-0.000778198,-0.00863647,0,0,0,0,0,40.07,717.156,743841
-0.038208,-0.0145264,1.02423,-0.0610352,-0.488281,25.0244,-0.025,-0.01,-29.63,-0.000823975,-0.00863647,0,0,0,0,0,40.07,717.177,743856
-0.0269165,-0.0168457,1.00806,-0.549316,-0.854492,25.1465,-0.014,-0.007,-30.01,-0.000900269,-0.00863647,0,0,0,0,0,40.07,717.196,743871
-0.0334473,0.00915527,1.00537,-0.976562,-1.89209,23.7427,-0.033,0.011,-30.74,-0.00112915,-0.00863647,0,0,0,0,0,40.07,717.219,743901
-0.00976562,-0.00610352,1.00757,-0.366211,-1.95312,22.2778,-0.005,0.01,-31.08,-0.001297,-0.00863647,0,0,0,0,0,40.07,717.236,743916
-0.003479,-0.0288696,1.01703,0.0610352,-1.64795,20.813,0.011,-0.006,-31.4,-0.001297,-0.00863647,0,0,0,0,0,40.07,717.257,743931
0.0159912,-0.0292969,1.02136,0.427246,-1.0376,20.813,0.027,0.003,-32.02,-0.00126648,-0.00863647,0,0,0,0,0,40.07,717.276,743961
0.00817871,-0.0348511,1.0191,0.427246,-0.244141,21.1182,0.023,-0.005,-32.34,-0.0012207,-0.00863647,0,0,0,0,0,40.07,717.296,743976
-0.00671387,-0.0166016,1.01886,0.183105,-0.0610352,22.522,0.001,0.002,-32.67,-0.00114441,-0.00863647,0,0,0,0,0,40.07,717.317,743991
-0.010437,-0.0227051,1.01471,0.12207,0.427246,23.6816,0.001,-0.005,-33.37,-0.00114441,-0.00863647,0,0,0,0,0,40.07,717.337,744021
-0.0331421,-0.0103149,1.01605,0.0610352,0.244141,25.0854,-0.023,-0.007,-33.74,-0.00115967,-0.00863647,0,0,0,0,0,40.07,717.357,744036
-0.0255127,-0.00708008,1.01709,0,0,25.6958,-0.018,0,-34.12,-0.00120544,-0.00863647,0,0,0,0,0,40.07,717.376,744051
-0.0536499,0.00158691,1.00891,-0.976562,-1.2207,24.7192,-0.046,-0.009,-34.87,-0.00138855,-0.00863647,0,0,0,0,0,40.07,717.396,744081
-0.0239868,-0.000793457,1.02222,-0.732422,-1.52588,23.0103,-0.02,0.005,-35.23,-0.0015564,-0.00863647,0,0,0,0,0,40.07,717.416,744096
-0.0101929,-0.026001,1.01068,-0.183105,-2.01416,21.4233,0.005,-0.007,-35.89,-0.00193787,-0.00863647,0,0,0,0,0,40.07,717.438,744126
-0.00738525,-0.0241699,1.0166,0.183105,-1.58691,20.2637,0.006,-0.004,-36.2,-0.00193787,-0.00863647,0,0,0,0,0,40.07,717.458,744141
-0.00701904,-0.0337524,1.00812,0.12207,-1.2207,20.3857,0.011,-0.012,-36.51,-0.00193787,-0.00863647,0,0,0,0,0,40.07,717.476,744156
0.0216064,-0.0334473,1.01538,0.305176,-0.976562,21.1792,0.034,0.005,-36.82,-0.00190735,-0.00863647,0,0,0,0,0,40.07,717.496,744171
-0.0145264,-0.0151367,1.01318,0.305176,-0.305176,23.1934,-0.005,-0.002,-37.48,-0.00178528,-0.00863647,0,0,0,0,0,40.07,717.517,744201
0.000854492,-0.0160522,1.02142,0.244141,0.0610352,24.5972,0.007,0.006,-37.85,-0.00178528,-0.00863647,0,0,0,0,0,40.07,717.537,744216
-0.026001,-0.00372314,1.0119,-0.549316,-0.305176,26.6113,-0.021,0,-38.62,-0.00180054,-0.00863647,0,0,0,0,0,40.07,717.559,744246
-0.0284424,-0.00830078,1.00934,-0.671387,-0.610352,26.6724,-0.019,-0.005,-39.03,-0.00183105,-0.00863647,0,0,0,0,0,40.07,717.583,744261
-0.0352783,-0.00518799,1.01617,-0.793457,-1.09863,25.8789,-0.026,-0.007,-39.42,-0.00190735,-0.00863647,0,0,0,0,0,40.07,717.596,744276
-0.0337524,-0.00195312,1.00494,-0.12207,-1.70898,22.3999,-0.027,-0.004,-40.13,-0.00216675,-0.00863647,0,0,0,0,0,40.07,717.62,744306
-0.0116577,-0.0162354,1.01257,0.12207,-1.58691,21.6675,-0.001,-0.001,-40.47,-0.00233459,-0.00863647,0,0,0,0,0,40.06,717.637,744321
-0.0106201,-0.027832,1.00958,0.244141,-1.46484,20.6909,0.006,-0.009,-40.77,-0.00250244,-0.00863647,0,0,0,0,0,40.06,717.657,744336
-0.0045166,-0.0214844,1.01544,0.0610352,-1.40381,21.3623,0.006,-0.001,-41.09,-0.00250244,-0.00863647,0,0,0,0,0,40.06,717.678,744351
-0.00238037,-0.0297852,1.01172,0.305176,-0.549316,22.2168,0.013,-0.006,-41.74,-0.00250244,-0.00863647,0,0,0,0,0,40.06,717.696,744381
0.00427246,-0.0252686,1.01581,0,-0.244141,24.1089,0.015,0.001,-42.1,-0.00250244,-0.00863647,0,0,0,0,0,40.06,717.716,744396
-0.0109253,-0.0206909,1.02466,0,-0.12207,25.4517,0,-0.004,-42.47,-0.00250244,-0.00863647,0,0,0,0,0,40.06,717.736,744411
-0.0176392,0.003479,1.00793,-0.671387,-0.244141,26.9775,-0.02,0.007,-43.27,-0.0025177,-0.00863647,0,0,0,0,0,40.06,717.756,744441
-0.0307007,0.00756836,1.00696,-0.854492,-0.732422,26.2451,-0.032,0.001,-43.68,-0.00257874,-0.00863647,0,0,0,0,0,40.06,717.776,744456
-0.0231934,0.00683594,1.02551,-0.610352,-0.976562,24.5972,-0.026,0.006,-44.05,-0.00267029,-0.00863647,0,0,0,0,0,40.06,717.796,744471
-0.0240479,-0.0117188,1.00806,-0.244141,-1.46484,22.2168,-0.013,-0.007,-44.75,-0.00294495,-0.00863647,0,0,0,0,0,40.06,717.816,744501
-0.0177612,-0.0152588,1.02087,-0.0610352,-1.34277,20.813,-0.006,-0.005,-45.07,-0.00294495,-0.00863647,0,0,0,0,0,40.06,717.838,744516
-0.0200806,-0.022522,1.00751,-0.12207,-1.40381,20.9961,-0.003,-0.012,-45.39,-0.00294495,-0.00863647,0,0,0,0,0,40.06,717.857,744531
0.00695801,-0.0349121,1.02002,0.12207,-0.549316,20.9961,0.024,-0.002,-46.02,-0.00289917,-0.00863647,0,0,0,0,0,40.06,717.876,744561
-0.0272827,-0.0205688,1.01581,-0.183105,-0.854492,23.1934,-0.009,-0.017,-46.36,-0.00283813,-0.00863647,0,0,0,0,0,40.06,717.896,744576
0.00286865,-0.0176392,1.01117,0,-0.183105,24.8413,0.008,0.006,-46.72,-0.00283813,-0.00863647,0,0,0,0,0,40.06,717.916,744591
-0.0291748,-0.00842285,1.02197,-0.549316,-0.488281,26.8555,-0.019,-0.01,-47.5,-0.00283813,-0.00863647,0,0,0,0,0,40.06,717.936,744621
-0.0293579,0.0098877,1.00421,-0.549316,-0.610352,26.6724,-0.033,0.001,-47.9,-0.00288391,-0.00863647,0,0,0,0,0,40.06,717.956,744636
-0.0127563,0.0088501,1.00024,-0.366211,-0.732422,25.2686,-0.021,0.012,-48.29,-0.00294495,-0.00863647,0,0,0,0,0,40.06,717.976,744651
-0.0300293,-0.0022583,1.02258,-0.427246,-1.15967,21.7895,-0.024,-0.007,-49.01,-0.00317383,-0.00863647,0,0,0,0,0,40.06,717.996,744682
-0.0140381,-0.00891113,1.00232,-0.244141,-1.2207,18.4937,-0.008,0,-49.3,-0.00332642,-0.00863647,0,0,0,0,0,40.06,718.016,744696
-0.0098877,-0.0214233,1.01215,-0.12207,-1.46484,17.0288,0.003,-0.005,-49.56,-0.003479,-0.00863647,0,0,0,0,0,40.06,718.037,744711
0.0045166,0.0057373,1.01202,0.915527,-0.610352,12.7563,-0.008,0.022,-50.03,-0.003479,-0.00863647,0,0,0,0,0,40.06,718.056,744742
-0.00921631,-0.0176392,1.02032,0.610352,-0.244141,10.3149,0.001,-0.002,-50.19,-0.003479,-0.00860596,0,0,0,0,0,40.06,718.076,744756
0.00616455,0.0123291,1.0097,0.610352,0.12207,6.5918,-0.011,0.027,-50.45,-0.003479,-0.00854492,0,0,0,0,0,40.06,718.1,744786
-0.000610352,-0.0360718,1.01874,0.183105,0.183105,8.42285,0.021,-0.008,-50.57,-0.003479,-0.00848389,0,0,0,0,0,40.06,718.116,744802
-0.0245972,-0.00335693,1.02161,-0.12207,0.183105,9.39941,-0.019,-0.005,-50.71,-0.003479,-0.00843811,0,0,0,0,0,40.06,718.136,744816
-0.0118408,-0.00738525,1.00653,0,0.488281,8.91113,-0.007,0.001,-50.85,-0.003479,-0.00843811,0,0,0,0,0,40.08,718.156,744831
-0.0345459,-0.0205078,1.01562,-0.12207,0.0610352,10.0098,-0.011,-0.024,-51.13,-0.003479,-0.00846863,0,0,0,0,0,40.08,718.178,744862
-0.0162354,-0.0155029,1.00806,-0.0610352,-0.244141,10.6812,-0.003,-0.006,-51.29,-0.003479,-0.0085144,0,0,0,0,0,40.08,718.2,744876
-0.00738525,-0.00408936,1.01892,-0.12207,-0.732422,11.2915,-0.007,0.007,-51.46,-0.003479,-0.00854492,0,0,0,0,0,40.08,718.216,744891
-0.0145264,-0.000915527,1.00928,-0.244141,-0.793457,10.6201,-0.013,0.003,-51.78,-0.00354004,-0.00868225,0,0,0,0,0,40.08,718.236,744922
-0.00140381,-0.00897217,1.01678,-0.305176,-0.610352,10.3149,0,0.008,-51.94,-0.00360107,-0.00872803,0,0,0,0,0,40.08,718.256,744936
-0.00695801,-0.0153809,1.01154,-0.305176,-0.732422,10.9863,0.002,0,-52.27,-0.00360107,-0.00888062,0,0,0,0,0,40.08,718.28,744966
-0.00537109,-0.0112915,1.013,-0.305176,-0.366211,10.0708,0,0.004,-52.42,-0.00360107,-0.00897217,0,0,0,0,0,40.08,718.297,744982
-0.0142822,-0.0177002,1.01544,-0.488281,-0.244141,9.58252,0,-0.006,-52.57,-0.00360107,-0.00897217,0,0,0,0,0,40.08,718.316,744996
-0.010376,-0.00805664,1.00806,-0.427246,-0.366211,9.27734,-0.006,0.002,-52.71,-0.00360107,-0.00897217,0,0,0,0,0,40.08,718.336,745011
-0.0222778,-0.0269775,1.0213,-0.0610352,-0.12207,8.42285,0.001,-0.018,-52.97,-0.00360107,-0.00897217,0,0,0,0,0,40.08,718.356,745042
-0.0230713,-0.00921631,1.00549,-0.12207,-0.366211,8.17871,-0.012,-0.008,-53.1,-0.00360107,-0.00897217,0,0,0,0,0,40.08,718.377,745056
-0.00744629,-0.0141602,1.01611,0.0610352,-0.305176,7.69043,0,0.001,-53.22,-0.00360107,-0.00897217,0,0,0,0,0,40.08,718.399,745071
-0.0241699,-0.0153809,1.01215,-0.183105,-0.610352,7.87353,-0.008,-0.012,-53.45,-0.00360107,-0.00897217,0,0,0,0,0,40.08,718.416,745102
-0.0102539,-0.0126953,1.01471,0,-0.488281,7.44629,-0.001,0,-53.57,-0.00360107,-0.00897217,0,0,0,0,0,40.08,718.437,745116
-0.0142212,-0.0198975,1.01544,0.244141,-0.427246,7.69043,0.001,-0.007,-53.68,-0.00360107,-0.00897217,0,0,0,0,0,40.08,718.456,745131
-0.00958252,-0.0165405,1.00659,0.305176,-0.305176,8.66699,0.001,-0.002,-53.94,-0.00360107,-0.00897217,0,0,0,0,0,40.08,718.476,745162
-0.00994873,-0.0149536,1.01941,0.183105,-0.305176,9.76562,0,-0.001,-54.08,-0.00360107,-0.00897217,0,0,0,0,0,40.08,718.497,745177
-0.019165,-0.0065918,1.01593,0.244141,-0.305176,9.76562,-0.011,-0.004,-54.23,-0.00360107,-0.00897217,0,0,0,0,0,40.08,718.517,745192
-0.0132446,-0.0065918,1.01532,-0.12207,-0.427246,10.5591,-0.008,0,-54.53,-0.00360107,-0.00897217,0,0,0,0,0,40.08,718.536,745222
-0.0180664,-0.0166016,1.02106,-0.427246,-0.183105,10.7422,-0.002,-0.008,-54.69,-0.00360107,-0.00897217,0,0,0,0,0,40.08,718.556,745237
-0.0166626,-0.00689697,1.01251,-0.305176,-0.427246,10.9253,-0.01,-0.002,-54.86,-0.00360107,-0.00897217,0,0,0,0,0,40.08,718.576,745252
-0.0198364,-0.0164795,1.01117,-0.183105,-0.610352,10.8032,-0.003,-0.01,-55.19,-0.00360107,-0.00897217,0,0,0,0,0,40.08,718.599,745282
-0.0115967,-0.00958252,1.01672,-0.183105,-0.488281,10.8032,-0.004,0,-55.35,-0.00360107,-0.00897217,0,0,0,0,0,40.08,718.617,745297
-0.0174561,-0.0187378,1.01617,-0.12207,-0.488281,11.0474,0,-0.009,-55.52,-0.00360107,-0.00897217,0,0,0,0,0,40.08,718.637,745312
-0.00286865,-0.0110474,1.01086,-0.12207,-0.366211,10.9253,0.001,0.006,-55.85,-0.00360107,-0.00897217,0,0,0,0,0,40.1,718.657,745342
-0.0159302,-0.00579834,1.01947,-0.305176,-0.488281,10.8643,-0.01,-0.001,-56.01,-0.00360107,-0.00897217,0,0,0,0,0,40.1,718.677,745357
-0.0142212,0.00531006,1.00513,-0.0610352,-0.12207,10.6201,-0.018,0.006,-56.17,-0.00360107,-0.00897217,0,0,0,0,0,40.1,718.698,745372
-0.0171509,-0.010437,1.01636,-0.0610352,-0.12207,10.1929,-0.006,-0.004,-56.49,-0.00360107,-0.00897217,0,0,0,0,0,40.1,718.716,745402
-0.0279541,-0.00390625,1.01434,-0.366211,-0.366211,10.0098,-0.018,-0.01,-56.64,-0.00360107,-0.00897217,0,0,0,0,0,40.1,718.737,745417
-0.00927734,-0.0192261,1.01855,-0.610352,-0.427246,9.58252,0.004,-0.003,-56.79,-0.00360107,-0.00897217,0,0,0,0,0,40.1,718.757,745432
-0.019165,-0.0118408,1.00708,-0.244141,-0.610352,9.0332,-0.006,-0.007,-57.06,-0.00360107,-0.00897217,0,0,0,0,0,40.1,718.779,745462
-0.00982666,-0.0144653,1.01288,-0.0610352,-0.610352,8.72803,0,0,-57.2,-0.00360107,-0.00897217,0,0,0,0,0,40.1,718.797,745477
-0.0196533,-0.00598145,1.00983,0.12207,-0.488281,8.17871,-0.011,-0.004,-57.32,-0.00360107,-0.00897217,0,0,0,0,0,40.1,718.817,745492
-0.0151367,-0.0109253,1.0116,0.0610352,-0.549316,7.75146,-0.005,-0.003,-57.56,-0.00360107,-0.00897217,0,0,0,0,0,40.1,718.836,745522
-0.0148315,-0.00695801,1.01178,0.12207,-0.549316,7.44629,-0.008,-0.001,-57.68,-0.00360107,-0.00897217,0,0,0,0,0,40.1,718.856,745537
-0.019043,-0.0158691,1.01276,0,-0.427246,7.38525,-0.003,-0.009,-57.9,-0.00360107,-0.00897217,0,0,0,0,0,40.1,718.884,745567
-0.00939941,-0.0106812,1.00757,-0.0610352,-0.305176,7.56836,-0.002,0,-58.01,-0.00360107,-0.00897217,0,0,0,0,0,40.1,718.898,745582
-0.0211182,-0.00604248,1.0177,0.244141,-0.244141,8.72803,-0.012,-0.006,-58.25,-0.00360107,-0.00897217,0,0,0,0,0,40.1,718.933,745612
-0.0179443,-0.0155029,1.01263,-0.183105,-0.427246,9.46045,-0.002,-0.008,-58.53,-0.00360107,-0.00897217,0,0,0,0,0,40.1,718.955,745642
-0.0167847,-0.00408936,1.01355,-0.244141,-0.488281,9.82666,-0.011,-0.001,-58.68,-0.00360107,-0.00897217,0,0,0,0,0,40.1,718.975,745657
-0.0148315,-0.0166626,1.01611,-0.244141,-0.549316,10.1318,0,-0.006,-58.82,-0.00360107,-0.00897217,0,0,0,0,0,40.1,718.998,745672
-0.0130615,-0.0111084,1.01178,0,-0.427246,10.437,-0.003,-0.002,-59.13,-0.00360107,-0.00897217,0,0,0,0,0,40.1,719.019,745702
-0.0152588,-0.0142822,1.01868,0.12207,-0.488281,10.2539,-0.002,-0.005,-59.29,-0.00360107,-0.00897217,0,0,0,0,0,40.1,719.043,745717
-0.0151978,-0.0168457,1.01361,0.0610352,-0.366211,10.1318,0,-0.007,-59.44,-0.00360107,-0.00897217,0,0,0,0,0,40.1,719.056,745732
-0.00280762,-0.0120239,1.01941,0.12207,-0.244141,10.9863,0.002,0.005,-59.77,-0.00360107,-0.00897217,0,0,0,0,0,40.1,719.077,745762
-0.0174561,-0.00732422,1.01379,-0.305176,-0.244141,11.9629,-0.008,-0.004,-60.12,-0.00360107,-0.00897217,0,0,0,0,0,40.1,719.106,745792
-0.00915527,-0.00701904,1.01245,-0.305176,-0.12207,11.4746,-0.004,0.002,-60.3,-0.00360107,-0.00897217,0,0,0,0,0,40.1,719.127,745807
-0.00970459,-0.00769043,1.01538,-0.305176,-0.366211,11.5967,-0.004,0.002,-60.47,-0.00360107,-0.00897217,0,0,0,0,0,40.1,719.136,745822
-0.0155029,-0.00195312,1.01154,-0.244141,-0.244141,11.0474,-0.012,0,-60.64,-0.00360107,-0.00897217,0,0,0,0,0,40.1,719.156,745837
-0.012085,-0.0114136,1.01422,-0.183105,-0.305176,11.3525,-0.002,-0.001,-60.81,-0.00360107,-0.00897217,0,0,0,0,0,40.08,719.176,745852
-0.0215454,-0.0088501,1.00946,-0.366211,-0.366211,10.3149,-0.009,-0.009,-61.14,-0.00360107,-0.00897217,0,0,0,0,0,40.08,719.197,745882
-0.0136719,-0.0131226,1.01788,-0.549316,-0.610352,10.6201,-0.001,-0.003,-61.3,-0.00360107,-0.00897217,0,0,0,0,0,40.08,719.221,745897
-0.0134888,-0.00244141,1.01251,-0.305176,-0.427246,9.8877,-0.01,0.001,-61.45,-0.00360107,-0.00897217,0,0,0,0,0,40.08,719.236,745912
-0.0107422,-0.00750732,1.01324,-0.183105,-0.793457,10.0708,-0.005,0.001,-61.76,-0.00360107,-0.00897217,0,0,0,0,0,40.08,719.259,745942
-0.0108032,-0.0164795,1.01605,0.0610352,-0.488281,9.15527,0.002,-0.003,-62.04,-0.00360107,-0.00897217,0,0,0,0,0,40.08,719.286,745972
-0.00653076,-0.0119629,1.00568,-0.0610352,-0.427246,8.91113,0,0.002,-62.17,-0.00360107,-0.00897217,0,0,0,0,0,40.08,719.308,745987
-0.00915527,-0.0180664,1.01349,0.305176,-0.305176,8.36182,0.004,-0.002,-62.31,-0.00360107,-0.00897217,0,0,0,0,0,40.08,719.318,746002
-0.0144653,-0.0128174,1.02063,0.12207,-0.366211,8.36182,-0.002,-0.004,-62.43,-0.00360107,-0.00897217,0,0,0,0,0,40.08,719.336,746017
-0.0117188,-0.00848389,1.01361,0.244141,-0.244141,7.93457,-0.004,0,-62.55,-0.00360107,-0.00897217,0,0,0,0,0,40.08,719.356,746032
-0.0160522,-0.0109863,1.01581,0.12207,-0.183105,8.48389,-0.004,-0.005,-62.8,-0.00360107,-0.00897217,0,0,0,0,0,40.08,719.376,746063
-0.0166016,-0.0148315,1.01007,-0.12207,-0.305176,9.0332,-0.001,-0.007,-62.93,-0.00360107,-0.00897217,0,0,0,0,0,40.08,719.396,746077
-0.017395,-0.00793457,1.01611,-0.305176,-0.244141,9.58252,-0.007,-0.005,-63.07,-0.00360107,-0.00897217,0,0,0,0,0,40.08,719.418,746092
-0.0256958,-0.0210571,1.01508,-0.305176,-0.366211,10.6201,0,-0.018,-63.38,-0.00360107,-0.00897217,0,0,0,0,0,40.08,719.437,746123
-0.00439453,-0.00823975,1.0083,-0.0610352,-0.427246,11.0474,-0.001,0.006,-63.55,-0.00360107,-0.00897217,0,0,0,0,0,40.08,719.456,746137
-0.0206299,-0.0209351,1.02045,-0.0610352,-0.305176,11.8408,0.002,-0.013,-63.72,-0.00360107,-0.00897217,0,0,0,0,0,40.08,719.476,746152
0.000305176,-0.0098877,1.01379,-0.0610352,-0.488281,12.8784,0.002,0.009,-64.1,-0.00360107,-0.00897217,0,0,0,0,0,40.08,719.496,746183
-0.0186768,-0.0110474,1.01306,-0.183105,-0.549316,12.5122,-0.005,-0.007,-64.29,-0.00360107,-0.00897217,0,0,0,0,0,40.08,719.516,746197
-0.0133057,0.00848389,1.01025,-0.244141,-0.427246,12.5122,-0.02,0.005,-64.48,-0.00361633,-0.00897217,0,0,0,0,0,40.08,719.536,746212
-0.0128784,-0.0109253,1.01636,-0.244141,-0.305176,11.1694,-0.002,-0.002,-64.84,-0.00369263,-0.00897217,0,0,0,0,0,40.08,719.556,746243
-0.0180054,-0.0108643,1.00873,-0.671387,-0.183105,10.9253,-0.004,-0.007,-65,-0.00369263,-0.00897217,0,0,0,0,0,40.08,719.577,746257
-0.00299072,-0.00158691,1.01355,-0.366211,-0.183105,10.6812,-0.006,0.01,-65.16,-0.00369263,-0.00897217,0,0,0,0,0,40.08,719.597,746272
-0.0220337,-0.0120239,1.01324,-0.305176,-0.183105,10.6201,-0.005,-0.011,-65.48,-0.00369263,-0.00897217,0,0,0,0,0,40.08,719.617,746303
-0.00775146,-0.00842285,1.01337,-0.183105,-0.183105,10.3149,-0.002,0.003,-65.64,-0.00369263,-0.00897217,0,0,0,0,0,40.08,719.636,746317
-0.0238647,-0.0235596,1.01758,-0.12207,-0.488281,10.0708,0.004,-0.017,-65.79,-0.00369263,-0.00897217,0,0,0,0,0,40.08,719.656,746332
-0.00830078,-0.0184937,1.00897,0.183105,-0.366211,10.1929,0.006,-0.001,-66.1,-0.00369263,-0.00897217,0,0,0,0,0,40.12,719.681,746363
-0.0206909,-0.0198364,1.02209,0.305176,-0.549316,10.6812,0.002,-0.013,-66.26,-0.00369263,-0.00897217,0,0,0,0,0,40.12,719.696,746377
-0.0213623,-0.00970459,1.01721,0,-0.488281,10.9253,-0.006,-0.009,-66.43,-0.00369263,-0.00897217,0,0,0,0,0,40.12,719.716,746393
-0.0100098,-0.0146484,1.02069,-0.0610352,-0.732422,11.1694,0.002,-0.001,-66.76,-0.00369263,-0.00897217,0,0,0,0,0,40.12,719.736,746423
-0.0197144,-0.00872803,1.02142,-0.183105,-0.488281,10.7422,-0.006,-0.008,-66.92,-0.00369263,-0.00897217,0,0,0,0,0,40.12,719.756,746437
-0.00213623,-0.0108643,1.00824,-0.183105,-0.549316,10.2539,0.001,0.006,-67.08,-0.00369263,-0.00897217,0,0,0,0,0,40.12,719.778,746453
-0.0178223,-0.00939941,1.01978,0,-0.0610352,9.76562,-0.005,-0.006,-67.38,-0.00369263,-0.00897217,0,0,0,0,0,40.12,719.796,746483
-0.00836182,-0.0217285,1.01361,-0.0610352,-0.305176,10.1929,0.009,-0.002,-67.54,-0.00369263,-0.00897217,0,0,0,0,0,40.12,719.816,746497
-0.0088501,-0.0119629,1.01544,-0.0610352,-0.0610352,10.6812,0,0,-67.69,-0.00369263,-0.00897217,0,0,0,0,0,40.12,719.836,746512
-0.0206909,-0.0128784,1.01355,-0.0610352,-0.244141,11.6577,-0.003,-0.01,-68.03,-0.00369263,-0.00897217,0,0,0,0,0,40.12,719.857,746543
-0.0209351,-0.0157471,1.00958,-0.0610352,-0.244141,11.8408,0,-0.012,-68.2,-0.00369263,-0.00897217,0,0,0,0,0,40.12,719.876,746557
-0.0177612,-0.0148926,1.00952,-0.0610352,-0.244141,12.3291,0,-0.008,-68.38,-0.00369263,-0.00897217,0,0,0,0,0,40.12,719.897,746572
-0.0153809,-0.00518799,1.01239,-0.0610352,-0.305176,12.4512,-0.007,-0.003,-68.77,-0.00369263,-0.00897217,0,0,0,0,0,40.12,719.917,746603
-0.0153198,-0.00164795,1.01874,-0.0610352,-0.305176,12.6953,-0.011,-0.001,-68.95,-0.00369263,-0.00897217,0,0,0,0,0,40.12,719.936,746618
-0.00292969,0.00292969,1.01727,-0.305176,-0.610352,12.207,-0.01,0.011,-69.14,-0.00369263,-0.00897217,0,0,0,0,0,40.12,719.957,746633
-0.00805664,0.00115967,1.01282,-0.366211,-0.427246,11.5967,-0.011,0.005,-69.49,-0.00369263,-0.00897217,0,0,0,0,0,40.12,719.976,746663
-0.0098877,-0.0139771,1.01562,0,0,10.9253,0.002,-0.001,-69.66,-0.00369263,-0.00897217,0,0,0,0,0,40.12,719.996,746678
-0.00653076,-0.0125732,1.01599,0,-0.12207,10.8643,0.002,0.002,-69.82,-0.00369263,-0.00897217,0,0,0,0,0,40.12,720.017,746693
-0.0153198,-0.0248413,1.01514,-0.0610352,-0.12207,10.7422,0.01,-0.009,-70.15,-0.00369263,-0.00897217,0,0,0,0,0,40.12,720.036,746723
-0.0214844,-0.00524902,1.01025,-0.244141,-0.427246,11.1084,-0.009,-0.009,-70.31,-0.00369263,-0.00897217,0,0,0,0,0,40.12,720.056,746738
-0.0194092,-0.0135498,1.01483,-0.244141,-0.305176,10.9863,-0.001,-0.009,-70.48,-0.00369263,-0.00897217,0,0,0,0,0,40.12,720.079,746753
-0.0230103,-0.00708008,1.01361,-0.305176,-0.732422,10.376,-0.008,-0.01,-70.81,-0.00369263,-0.00897217,0,0,0,0,0,40.12,720.097,746783
-0.0109253,-0.0134888,1.01349,-0.0610352,-0.671387,9.64355,0.001,-0.001,-70.96,-0.00369263,-0.00897217,0,0,0,0,0,40.12,720.12,746798
-0.0128784,-0.0158691,1.01971,-0.12207,-0.854492,9.21631,0.003,-0.004,-71.09,-0.00369263,-0.00897217,0,0,0,0,0,40.12,720.136,746813
-0.00341797,-0.0130615,1.01373,0.305176,-0.549316,8.60596,0.003,0.005,-71.35,-0.00369263,-0.00897217,0,0,0,0,0,40.12,720.165,746843
-0.00012207,-0.0148315,1.02106,0.12207,-0.183105,8.91113,0.006,0.007,-71.49,-0.00369263,-0.00897217,0,0,0,0,0,40.12,720.176,746858
-0.0157471,-0.0111084,1.0061,0.183105,-0.0610352,9.09424,-0.002,-0.006,-71.63,-0.00369263,-0.00897217,0,0,0,0,0,40.11,720.196,746873
-0.0130005,-0.0179443,1.01556,0.0610352,-0.12207,10.0708,0.005,-0.005,-71.92,-0.00369263,-0.00897217,0,0,0,0,0,40.11,720.216,746903
-0.0228271,-0.0111084,1.01459,-0.0610352,0,10.5591,-0.004,-0.012,-72.07,-0.00369263,-0.00897217,0,0,0,0,0,40.11,720.238,746918
-0.0100708,-0.0152588,1.01361,-0.0610352,-0.244141,11.5967,0.003,-0.001,-72.25,-0.00369263,-0.00897217,0,0,0,0,0,40.11,720.256,746933
-0.0313721,-0.00579834,1.01733,-0.366211,-0.366211,12.085,-0.011,-0.018,-72.6,-0.00369263,-0.00897217,0,0,0,0,0,40.11,720.276,746963
-0.0145874,-0.0105591,1.0174,-0.305176,-0.610352,12.207,-0.001,-0.004,-72.78,-0.00369263,-0.00897217,0,0,0,0,0,40.11,720.295,746978
-0.00842285,-0.00140381,1.01349,-0.244141,-0.488281,11.6577,-0.008,0.004,-72.96,-0.00369263,-0.00897217,0,0,0,0,0,40.11,720.316,746993
-0.0200195,-0.00335693,1.02203,-0.0610352,-0.732422,11.9629,-0.01,-0.007,-73.14,-0.00369263,-0.00897217,0,0,0,0,0,40.11,720.336,747008
0.00109863,-0.0100708,1.01025,-0.549316,-0.488281,11.5967,0.002,0.01,-73.49,-0.00369263,-0.00897217,0,0,0,0,0,40.11,720.356,747038
-0.0127563,0.00646973,1.01361,-0.549316,-0.488281,11.4746,-0.017,0.001,-73.66,-0.00369263,-0.00897217,0,0,0,0,0,40.11,720.375,747053
-0.00561523,-0.00561523,1.01233,0.0610352,-0.183105,11.9629,-0.004,0.005,-74.02,-0.00369263,-0.00897217,0,0,0,0,0,40.11,720.396,747083
-0.0119019,-0.015564,1.02405,0,0.12207,11.5356,0.003,-0.003,-74.19,-0.00369263,-0.00897217,0,0,0,0,0,40.11,720.417,747098
-0.0103149,-0.00909424,1.01746,-0.183105,-0.244141,11.7187,-0.001,0,-74.37,-0.00369263,-0.00897217,0,0,0,0,0,40.11,720.436,747113
-0.0151978,-0.0148315,1.00848,-0.488281,-0.244141,11.4746,0.002,-0.006,-74.54,-0.00369263,-0.00897217,0,0,0,0,0,40.11,720.456,747128
-0.0230103,-0.0098877,1.01422,-0.0610352,-0.366211,11.1694,-0.004,-0.012,-74.88,-0.00369263,-0.00897217,0,0,0,0,0,40.11,720.476,747158
-0.0224609,-0.00323486,1.00421,0,-0.488281,10.498,-0.01,-0.01,-75.04,-0.00369263,-0.00897217,0,0,0,0,0,40.11,720.496,747173
-0.0183716,-0.0161133,1.01331,0.183105,-0.610352,10.498,0.003,-0.009,-75.21,-0.00369263,-0.00897217,0,0,0,0,0,40.11,720.516,747188
-0.00915527,-0.0144043,1.01764,-0.0610352,-0.610352,10.6201,0.003,0,-75.53,-0.00369263,-0.00897217,0,0,0,0,0,40.11,720.536,747218
-0.0113525,-0.0205688,1.01624,-0.305176,-0.854492,10.9253,0.009,-0.004,-75.68,-0.00369263,-0.00897217,0,0,0,0,0,40.11,720.556,747233
-0.00524902,-0.0101929,1.01569,-0.183105,-0.610352,11.2915,0.011,0.006,-76.03,-0.00369263,-0.00897217,0,0,0,0,0,40.11,720.576,747263
-0.00970459,-0.00286865,1.00684,0,-0.244141,11.9019,-0.007,0.001,-76.2,-0.00369263,-0.00897217,0,0,0,0,0,40.11,720.597,747278
-0.00524902,-0.00738525,1.01459,0.183105,0.0610352,11.2915,-0.002,0.004,-76.38,-0.00369263,-0.00897217,0,0,0,0,0,40.11,720.616,747293
-0.0145874,-0.0218506,1.01788,0,-0.12207,11.7187,0.009,-0.007,-76.72,-0.00369263,-0.00897217,0,0,0,0,0,40.11,720.636,747323
-0.0154419,-0.024292,1.01685,-0.0610352,0.0610352,12.0239,0.011,-0.008,-76.9,-0.00369263,-0.00897217,0,0,0,0,0,40.11,720.656,747338
-0.0264893,-0.0133057,1.01001,0.0610352,-0.12207,12.9395,-0.001,-0.017,-77.09,-0.00369263,-0.00897217,0,0,0,0,0,40.11,720.676,747353
-0.0166016,-0.00506592,1.008,-0.0610352,-0.305176,13.1836,-0.006,-0.005,-77.29,-0.00369263,-0.00897217,0,0,0,0,0,40.11,720.696,747368
-0.0206299,-0.00689697,1.02374,-0.12207,-0.732422,13.3667,-0.005,-0.009,-77.69,-0.00369263,-0.00897217,0,0,0,0,0,40.07,720.716,747398
-0.00964355,-0.00195312,1.01233,-0.427246,-0.488281,12.8784,-0.008,0.001,-77.89,-0.00369263,-0.00897217,0,0,0,0,0,40.07,720.737,747413
-0.0153198,0.00756836,1.01624,-0.244141,-0.549316,12.3901,-0.018,-0.002,-78.26,-0.00369263,-0.00897217,0,0,0,0,0,40.07,720.76,747443
-0.00909424,-0.00854492,1.01886,-0.12207,-0.0610352,11.8408,-0.001,0,-78.45,-0.00369263,-0.00897217,0,0,0,0,0,40.07,720.777,747458
0.00189209,-0.0032959,1.02386,-0.183105,-0.305176,11.8408,-0.004,0.012,-78.62,-0.00369263,-0.00897217,0,0,0,0,0,40.07,720.796,747473
-0.0165405,-0.0148315,1.00793,-0.183105,-0.305176,11.3525,0.003,-0.007,-78.97,-0.00369263,-0.00897217,0,0,0,0,0,40.07,720.816,747504
-0.0141602,-0.0139771,1.01306,-0.0610352,-0.244141,11.6577,0.003,-0.005,-79.15,-0.00369263,-0.00897217,0,0,0,0,0,40.07,720.837,747518
-0.0202026,-0.00811768,1.0163,0.0610352,-0.305176,11.5356,-0.003,-0.01,-79.32,-0.00369263,-0.00897217,0,0,0,0,0,40.07,720.856,747533
-0.0210571,-0.00665283,1.00873,-0.0610352,-0.671387,11.2305,-0.005,-0.01,-79.66,-0.00369263,-0.00897217,0,0,0,0,0,40.07,720.877,747564
-0.0120239,-0.0111084,1.01367,-0.12207,-0.793457,10.9253,0,-0.002,-79.83,-0.00369263,-0.00897217,0,0,0,0,0,40.07,720.896,747578
-0.0107422,-0.00744629,1.01501,-0.488281,-1.0376,11.2305,-0.002,0,-80,-0.00369263,-0.00897217,0,0,0,0,0,40.07,720.918,747593
-0.0103149,-0.0128784,1.0141,0.183105,-0.610352,11.4136,0.002,-0.001,-80.34,-0.00369263,-0.00897217,0,0,0,0,0,40.07,720.937,747624
-0.0113525,-0.015564,1.00867,0.0610352,-0.549316,11.5356,0.005,-0.003,-80.52,-0.00369263,-0.00897217,0,0,0,0,0,40.07,720.959,747638
-0.0160522,-0.0238647,1.0155,0.12207,-0.244141,11.5967,0.012,-0.009,-80.69,-0.00369263,-0.00897217,0,0,0,0,0,40.07,720.977,747653
-0.012146,-0.0200195,1.00934,0,-0.0610352,12.3291,0.009,-0.004,-81.05,-0.00369263,-0.00897217,0,0,0,0,0,40.07,720.996,747684
-0.0212402,-0.00585938,1.01166,-0.12207,-0.183105,12.8174,-0.005,-0.011,-81.24,-0.00369263,-0.00897217,0,0,0,0,0,40.07,721.016,747698
-0.00793457,0.00280762,1.00854,0.183105,-0.183105,12.9395,-0.012,0.003,-81.44,-0.00369263,-0.00897217,0,0,0,0,0,40.07,721.036,747713
-0.015564,-6.10352e-05,1.01117,0,-0.366211,13.3057,-0.01,-0.004,-81.83,-0.00369263,-0.00897217,0,0,0,0,0,40.07,721.057,747744
-0.0143433,-0.00891113,1.01617,-0.0610352,-0.366211,13.4888,-0.001,-0.004,-82.03,-0.00369263,-0.00897217,0,0,0,0,0,40.07,721.077,747758
-0.0153198,-0.00512695,1.02057,-0.244141,-0.610352,13.7939,-0.005,-0.005,-82.24,-0.00369263,-0.00897217,0,0,0,0,0,40.07,721.097,747773
-0.0106201,0.00592041,1.00854,-0.305176,-0.793457,13.6719,-0.015,0,-82.44,-0.00369263,-0.00897217,0,0,0,0,0,40.07,721.116,747788
-0.00714111,-0.00482178,1.01544,-0.12207,-0.488281,13.4888,-0.004,0.002,-82.85,-0.00369263,-0.00897217,0,0,0,0,0,40.07,721.136,747818
0.003479,-0.00354004,1.00842,-0.183105,-0.549316,13.3057,-0.004,0.013,-83.06,-0.00369263,-0.00897217,0,0,0,0,0,40.07,721.16,747833
-0.00598145,-0.00646973,1.01251,-0.183105,-0.305176,13.0615,-0.002,0.003,-83.46,-0.00369263,-0.00897217,0,0,0,0,0,40.07,721.177,747864
0.00256348,-0.0140381,1.01947,-0.12207,-0.305176,13.0615,0.006,0.01,-83.65,-0.00369263,-0.00897217,0,0,0,0,0,40.07,721.196,747878
-0.0252075,-0.00939941,1.01971,-0.244141,-0.244141,12.6953,-0.001,-0.016,-83.85,-0.00369263,-0.00897217,0,0,0,0,0,40.07,721.217,747893
-0.00964355,-0.00970459,1.00769,-0.549316,-0.610352,12.5732,0,0,-84.23,-0.00369263,-0.00897217,0,0,0,0,0,40.07,721.237,747924
-0.0200806,-0.0151367,1.01312,-0.427246,-0.549316,11.9629,0.004,-0.011,-84.41,-0.00369263,-0.00897217,0,0,0,0,0,40.07,721.256,747938
-0.0145264,-0.00842285,1.01276,-0.12207,-0.549316,11.5967,-0.001,-0.005,-84.59,-0.00369263,-0.00897217,0,0,0,0,0,40.07,721.277,747953
-0.0145874,-0.0181885,1.01715,0.183105,-0.366211,10.7422,0.008,-0.006,-84.92,-0.00369263,-0.00897217,0,0,0,0,0,40.07,721.298,747984
-0.00854492,-0.00762939,1.01477,0.305176,-0.366211,10.7422,-0.001,0,-85.09,-0.00369263,-0.00897217,0,0,0,0,0,40.07,721.322,747998
-0.00646973,-0.00909424,1.01398,0.12207,-0.12207,11.9629,0,0.002,-85.43,-0.00369263,-0.00897217,0,0,0,0,0,40.07,721.346,748029
-0.00646973,-0.00909424,1.01398,0.12207,-0.12207,11.9629,0,0.002,-85.43,-0.00369263,-0.00897217,0,0,0,0,0,40.07,721.356,748029
-0.0196533,-0.00964355,1.0152,0.183105,-0.366211,13.5498,0,-0.01,-85.81,-0.00369263,-0.00897217,0,0,0,0,0,40.07,721.381,748059
-0.00830078,-0.0169067,1.02222,0.0610352,-0.12207,14.0381,0.008,0,-86.02,-0.00369263,-0.00897217,0,0,0,0,0,40.07,721.397,748074
-0.027832,0.00775146,1.01874,-0.671387,-0.366211,9.64355,-0.017,-0.017,-86.39,-0.00369263,-0.00897217,0,0,0,0,0,40.07,721.416,748104
-0.0128784,0.0324707,1.01544,-0.549316,-0.610352,6.46973,-0.041,-0.001,-86.5,-0.00372314,-0.00897217,0,0,0,0,0,40.07,721.443,748119
-0.00421143,0.0310059,1.01337,0.183105,-0.244141,2.99072,-0.038,0.006,-86.57,-0.00382996,-0.00897217,0,0,0,0,0,40.07,721.457,748134
-0.010376,-0.00390625,1.01801,0.0610352,0.0610352,-1.52588,-0.003,-0.001,-86.52,-0.00395203,-0.00897217,0,0,0,0,0,40.07,721.506,748194
-0.010376,-0.00390625,1.01801,0.0610352,0.0610352,-1.52588,-0.003,-0.001,-86.52,-0.00395203,-0.00897217,0,0,0,0,0,40.07,721.516,748194
-0.00976562,-0.0043335,1.01984,0.12207,0.305176,0.305176,-0.002,0,-86.5,-0.00395203,-0.00897217,0,0,0,0,0,40.07,721.536,748224
-0.0118408,-0.00616455,1.01831,-0.183105,0.12207,0.305176,-0.001,-0.002,-86.51,-0.00395203,-0.00897217,0,0,0,0,0,40.07,721.56,748239
-0.00738525,-0.0012207,1.01147,-0.488281,0.0610352,0.427246,-0.005,0.001,-86.52,-0.00395203,-0.00897217,0,0,0,0,0,40.07,721.577,748254
-0.0200806,-0.0032959,1.00641,-0.366211,0,0.12207,-0.004,-0.01,-86.52,-0.00395203,-0.00897217,0,0,0,0,0,40.07,721.596,748269
-0.0152588,-0.00970459,1.01874,0.0610352,-0.0610352,-0.488281,0.001,-0.006,-86.51,-0.00395203,-0.00897217,0,0,0,0,0,40.07,721.616,748299
-0.0136108,-0.0164795,1.01385,0.0610352,-0.183105,-0.366211,0.008,-0.004,-86.51,-0.00395203,-0.00897217,0,0,0,0,0,40.07,721.636,748314
-0.0145874,-0.020813,1.013,0.12207,-0.12207,-0.366211,0.013,-0.006,-86.51,-0.00395203,-0.00897217,0,0,0,0,0,40.07,721.656,748329
-0.0117188,-0.00787354,1.01874,-0.0610352,-0.12207,0,0,-0.002,-86.51,-0.00395203,-0.00897217,0,0,0,0,0,40.07,721.676,748359
-0.00653076,-0.00518799,1.01038,0.12207,-0.183105,0.12207,-0.002,0.002,-86.51,-0.00395203,-0.00897217,0,0,0,0,0,40.07,721.697,748374
-0.0109863,-0.00622559,1.01367,0.244141,0.12207,-0.12207,-0.001,-0.001,-86.51,-0.00395203,-0.00897217,0,0,0,0,0,40.11,721.716,748404
-0.010437,-0.00201416,1.01508,0,0.0610352,-0.0610352,-0.005,0,-86.51,-0.00395203,-0.00897217,0,0,0,0,0,40.11,721.736,748419
-0.010498,-0.00250244,1.01324,0.0610352,0.244141,0.0610352,-0.004,0,-86.51,-0.00395203,-0.00897217,0,0,0,0,0,40.11,721.757,748434
-0.0171509,-0.00152588,1.00891,-0.0610352,-0.0610352,0.0610352,-0.006,-0.007,-86.51,-0.00395203,-0.00897217,0,0,0,0,0,40.11,721.777,748464
