raw_accel_x,raw_accel_y,raw_accel_z,raw_gyro_x,raw_gyro_y,raw_gyro_z,world_accel_x,world_accel_y,yaw,fused_heading,x,y,z,left_encoder_rate,right_encoder_rate,left_motor,right_motor,temp,fpga time,navx time
-0.0130005,-0.0227051,1.016720,0,0.0610352,0,-0.002,95.41,0.0274048,-0.23288,0,0,0,0,0,39.61,560.285,586967
-0.0160522,-0.0224609,1.015560.0610352,0,0.0610352,0,0,-0.02,0,0,0,0,0,0,0,39.61,560.316,586997
-0.0148315,-0.0250244,1.01941-0.12207,-0.12207,0,0,-0.002,-0.02,0,0,0,0,0,0,0,39.61,560.335,587013
-0.0164185,-0.0230713,1.01434-0.183105,-0.0610352,0.12207,-0.001,-0.001,-0.02,0,0,0,0,0,0,0,39.61,560.356,587027
-0.0147705,-0.0217285,1.014710,0,0.0610352,0,0,-0.02,0,0,0,0,0,0,0,39.61,560.381,587057
-0.0159302,-0.0230103,1.01440.0610352,0,-0.0610352,0,-0.001,-0.02,0,0,0,0,0,0,0,39.61,560.396,587074
-0.0161743,-0.0236206,1.011050,-0.0610352,0.0610352,0,-0.001,-0.02,0,0,0,0,0,0,0,39.61,560.416,587087
-0.0178223,-0.0229492,1.012820,0,0,-0.002,0,-0.02,0,0,0,0,0,0,0,39.61,560.437,587117
-0.0133667,-0.0200806,1.016780.0610352,0,0,0.002,0.001,-0.02,0,0,0,0,0,0,0,39.62,560.456,587133
-0.013916,-0.0245361,1.01471-0.0610352,-0.0610352,-0.0610352,0.001,-0.002,-0.02,0,0,0,0,0,0,0,39.62,560.497,587177
-0.0140991,-0.0205688,1.012210,0.0610352,0,0.001,0.001,-0.02,0,0,0,0,0,0,0,39.62,560.515,587193
-0.0162964,-0.0216064,1.01794-0.0610352,-0.12207,-0.183105,0,0,-0.02,0,0,0,0,0,0,0,39.62,560.543,587222
-0.0170288,-0.022644,1.01245-0.0610352,-0.12207,0.0610352,-0.001,0,-0.02,0,0,0,0,0,0,0,39.62,560.556,587237
-0.0135498,-0.024353,1.009830,0,-0.0610352,0.001,-0.002,-0.02,0,0,0,0,0,0,0,39.62,560.578,587253
-0.015686,-0.0195923,1.01483-0.0610352,-0.183105,0.0610352,0,0.002,-0.02,0,0,0,0,0,0,0,39.62,560.599,587282
-0.0153198,-0.020813,1.01050,0,0.0610352,0,0.001,-0.02,0,0,0,0,0,0,0,39.62,560.616,587297
-0.0147705,-0.0194702,1.01678-0.0610352,-0.0610352,0,0,0.002,-0.02,0,0,0,0,0,0,0,39.62,560.658,587327
-0.015625,-0.0198364,1.014340.0610352,0.0610352,0,0,0.002,-0.02,0,0,0,0,0,0,0,39.62,560.676,587357
-0.015686,-0.020752,1.01642-0.0610352,-0.183105,0.0610352,0,0.001,-0.03,0,0,0,0,0,0,0,39.62,560.7,587373
-0.0137329,-0.0201416,1.01880.0610352,0,0.0610352,0.001,0.001,-0.03,0,0,0,0,0,0,0,39.62,560.716,587387
-0.0142212,-0.024292,1.01208-0.0610352,-0.12207,0.0610352,0.001,-0.002,-0.03,0,0,0,0,0,0,0,39.62,560.736,587417
-0.0162964,-0.0193481,1.01746-0.0610352,-0.12207,0.183105,0,0.002,-0.03,0,0,0,0,0,0,0,39.62,560.759,587433
-0.0141602,-0.0246582,1.016420,0,0.12207,0.001,-0.002,-0.03,0,0,0,0,0,0,0,39.62,560.776,587447
-0.0149536,-0.019043,1.013730,-0.0610352,0.12207,0,0.002,-0.04,0,0,0,0,0,0,0,39.62,560.796,587478
-0.015625,-0.0201416,1.011470,0,0.183105,0,0.001,-0.04,0,0,0,0,0,0,0,39.62,560.816,587493
-0.015625,-0.0230713,1.013310,0,0.0610352,0,-0.001,-0.04,0,0,0,0,0,0,0,39.62,560.836,587508
-0.0160522,-0.020813,1.015380,0,0.12207,0,0.001,-0.04,0,0,0,0,0,0,0,39.62,560.856,587538
-0.0145264,-0.0217896,1.013490,-0.0610352,0.0610352,0,0,-0.05,0,0,0,0,0,0,0,39.62,560.878,587553
-0.0154419,-0.024231,1.015690,-0.12207,0,0,-0.002,-0.05,0,0,0,0,0,0,0,39.62,560.899,587568
-0.0160522,-0.0222168,1.0119-0.0610352,-0.0610352,0.0610352,0,0,-0.05,0,0,0,0,0,0,0,39.62,560.922,587598
-0.0163574,-0.0219727,1.01227-0.0610352,-0.12207,-0.0610352,-0.001,0,-0.05,0,0,0,0,0,0,0,39.62,560.94,587613
-0.0176392,-0.0211182,1.015440.0610352,0,0,-0.002,0,-0.05,0,0,0,0,0,0,0,39.61,560.968,587643
-0.0129395,-0.0239868,1.011660,0,0,0.002,-0.002,-0.05,0,0,0,0,0,0,0,39.61,560.98,587658
-0.0140991,-0.0211792,1.01343-0.0610352,-0.183105,0.183105,0.001,0,-0.05,0,0,0,0,0,0,0,39.61,560.996,587673
-0.0145264,-0.0262451,1.011170,-0.0610352,0.12207,0,-0.004,-0.05,0,0,0,0,0,0,0,39.61,561.016,587688
-0.0169678,-0.020874,1.01447-0.0610352,-0.0610352,0.0610352,-0.001,0.001,-0.05,0,0,0,0,0,0,0,39.61,561.036,587718
-0.0165405,-0.0213623,1.018070,0,0,-0.001,0,-0.06,0,0,0,0,0,0,0,39.61,561.056,587733
-0.0140991,-0.0216675,1.01917-0.0610352,-0.0610352,0.12207,0.001,0,-0.06,0,0,0,0,0,0,0,39.61,561.076,587748
-0.0143433,-0.0255127,1.013670,0,0.183105,0,-0.003,-0.06,0,0,0,0,0,0,0,39.61,561.098,587778
-0.0167847,-0.0272827,1.01172-0.0610352,-0.12207,0,-0.001,-0.005,-0.06,0,0,0,0,0,0,0,39.61,561.116,587793
-0.0135498,-0.0205688,1.016660,0,0.0610352,0.001,0.001,-0.06,0,0,0,0,0,0,0,39.61,561.146,587823
-0.0170288,-0.020752,1.0144-0.0610352,-0.0610352,0.0610352,-0.001,0.001,-0.06,0,0,0,0,0,0,0,39.61,561.159,587838
-0.0157471,-0.0233765,1.01746-0.0610352,-0.0610352,0.12207,0,-0.001,-0.07,0,0,0,0,0,0,0,39.61,561.176,587853
-0.0144653,-0.0216064,1.014650,0.183105,0.0610352,0,0,-0.07,0,0,0,0,0,0,0,39.61,561.198,587868
-0.0178833,-0.0206299,1.01404-0.0610352,-0.0610352,0.12207,-0.002,0.001,-0.07,0,0,0,0,0,0,0,39.61,561.217,587898
-0.0164185,-0.0229492,1.008970,0,0,-0.001,-0.001,-0.07,0,0,0,0,0,0,0,39.61,561.236,587913
-0.0166016,-0.0227661,1.012880,0.0610352,0,-0.001,0,-0.07,0,0,0,0,0,0,0,39.61,561.256,587928
-0.0154419,-0.0211792,1.01471-0.12207,-0.0610352,0.12207,0,0,-0.08,0,0,0,0,0,0,0,39.61,561.276,587958
-0.0166626,-0.0201416,1.01172-0.0610352,-0.0610352,0.12207,-0.001,0.001,-0.08,0,0,0,0,0,0,0,39.61,561.297,587973
-0.0162354,-0.0249023,1.018430,0.0610352,0.0610352,0,-0.002,-0.08,0,0,0,0,0,0,0,39.61,561.317,587988
-0.0155029,-0.0267334,1.01324-0.0610352,-0.0610352,-0.0610352,0,-0.004,-0.08,0,0,0,0,0,0,0,39.61,561.337,588018
-0.0154419,-0.0215454,1.01062-0.0610352,-0.12207,0,0,0,-0.08,0,0,0,0,0,0,0,39.61,561.356,588033
-0.0171509,-0.022644,1.01837-0.0610352,-0.0610352,0.0610352,-0.001,0,-0.08,0,0,0,0,0,0,0,39.61,561.377,588048
-0.0164795,-0.0230103,1.01685-0.0610352,-0.0610352,-0.0610352,-0.001,0,-0.09,0,0,0,0,0,0,0,39.61,561.397,588078
-0.0140381,-0.0219727,1.0097-0.12207,-0.0610352,-0.12207,0.001,0,-0.09,0,0,0,0,0,0,0,39.61,561.418,588093
-0.0163574,-0.0211182,1.02032-0.0610352,-0.0610352,0.183105,0,0,-0.09,0,0,0,0,0,0,0,39.61,561.436,588108
-0.0161133,-0.0248413,1.01312-0.0610352,-0.183105,0.0610352,0,-0.002,-0.09,0,0,0,0,0,0,0,39.61,561.456,588138
-0.0139771,-0.0230103,1.009580,0,0.12207,0.001,-0.001,-0.09,0,0,0,0,0,0,0,39.6,561.476,588153
-0.0184326,-0.0184937,1.01550.12207,0.0610352,0.12207,-0.003,0.003,-0.09,0,0,0,0,0,0,0,39.6,561.496,588168
-0.0150757,-0.0236206,1.01294-0.0610352,-0.12207,0.12207,0,-0.001,-0.1,0,0,0,0,0,0,0,39.6,561.519,588198
-0.0145874,-0.0206299,1.013370,-0.12207,0,0,0.001,-0.1,0,0,0,0,0,0,0,39.6,561.536,588213
-0.0155029,-0.0231323,1.00940.0610352,0,0.0610352,0,-0.001,-0.1,0,0,0,0,0,0,0,39.6,561.556,588228
-0.0140991,-0.0214844,1.011780,0,0,0.001,0,-0.1,0,0,0,0,0,0,0,39.6,561.576,588258
-0.0169067,-0.0224609,1.01349-0.0610352,-0.12207,0.0610352,-0.001,0,-0.1,0,0,0,0,0,0,0,39.6,561.602,588273
-0.0164795,-0.0206299,1.013790.0610352,0,0.0610352,-0.001,0.001,-0.11,0,0,0,0,0,0,0,39.6,561.622,588303
-0.0118408,-0.022583,1.01154-0.12207,-0.0610352,0.0610352,0.003,0,-0.11,0,0,0,0,0,0,0,39.6,561.636,588318
-0.0152588,-0.0232544,1.01581-0.0610352,-0.12207,-0.0610352,0,-0.001,-0.11,0,0,0,0,0,0,0,39.6,561.656,588333
-0.0142822,-0.0234375,1.00653-0.183105,-0.12207,0,0,-0.001,-0.11,0,0,0,0,0,0,0,39.6,561.676,588348
-0.0123291,-0.0256348,1.01514-0.0610352,-0.183105,0,0.002,-0.003,-0.11,0,0,0,0,0,0,0,39.6,561.696,588378
-0.0125122,-0.0216675,1.008910.12207,0,-0.0610352,0.002,0,-0.11,0,0,0,0,0,0,0,39.6,561.716,588394
-0.013855,-0.0205688,1.01685-0.0610352,-0.183105,0,0.001,0.001,-0.11,0,0,0,0,0,0,0,39.6,561.735,588408
-0.0186157,-0.0237427,1.01379-0.12207,-0.12207,0.0610352,-0.003,-0.001,-0.12,0,0,0,0,0,0,0,39.6,561.756,588438
-0.0155029,-0.0228882,1.017270,0.0610352,0.12207,0,0,-0.12,0,0,0,0,0,0,0,39.6,561.785,588468
-0.0126953,-0.0258179,1.01373-0.0610352,-0.12207,0.0610352,0.002,-0.003,-0.12,0,0,0,0,0,0,0,39.6,561.803,588483
-0.0140381,-0.0247192,1.011470,0,0,0.001,-0.002,-0.12,0,0,0,0,0,0,0,39.6,561.827,588498
-0.0178833,-0.0206299,1.014890.0610352,0,0.183105,-0.002,0.001,-0.12,0,0,0,0,0,0,0,39.6,561.836,588514
-0.0150757,-0.026062,1.01544-0.12207,-0.0610352,0.0610352,0,-0.003,-0.12,0,0,0,0,0,0,0,39.6,561.857,588528
-0.0140381,-0.022644,1.00903-0.183105,-0.183105,0,0.001,0,-0.13,0,0,0,0,0,0,0,39.6,561.887,588558
-0.0164185,-0.0209961,1.016660,-0.0610352,-0.0610352,-0.001,0.001,-0.13,0,0,0,0,0,0,0,39.6,561.896,588574
-0.0142822,-0.0224609,1.01282-0.0610352,-0.0610352,0.0610352,0,0,-0.13,0,0,0,0,0,0,0,39.6,561.933,588603
-0.0154419,-0.0217896,1.015620,0,0,0,0,-0.13,0,0,0,0,0,0,0,39.6,561.967,588648
-0.0154419,-0.0217896,1.015620,0,0,0,0,-0.13,0,0,0,0,0,0,0,39.6,561.978,588648
-0.0189209,-0.0229492,1.016780,0,0.12207,-0.003,0,-0.13,0,0,0,0,0,0,0,39.62,561.996,588678
-0.015686,-0.0221558,1.01251-0.0610352,-0.183105,0,0,0,-0.13,0,0,0,0,0,0,0,39.62,562.02,588694
-0.0145874,-0.0209351,1.0163-0.0610352,-0.244141,0.0610352,0,0.001,-0.14,0,0,0,0,0,0,0,39.62,562.04,588723
-0.0136108,-0.0234375,1.011410.0610352,0,0.12207,0.001,-0.001,-0.14,0,0,0,0,0,0,0,39.62,562.057,588738
-0.0155029,-0.0188599,1.01123-0.12207,-0.183105,0.12207,0,0.003,-0.14,0,0,0,0,0,0,0,39.62,562.076,588754
-0.0136108,-0.0214844,1.01385-0.12207,-0.183105,0.12207,0.001,0,-0.14,0,0,0,0,0,0,0,39.62,562.099,588768
-0.0105591,-0.0198975,1.01178-0.0610352,-0.0610352,0,0.004,0.002,-0.14,0,0,0,0,0,0,0,39.62,562.124,588798
-0.0153809,-0.0220947,1.01239-0.0610352,-0.0610352,0.12207,0,0,-0.14,0,0,0,0,0,0,0,39.62,562.136,588814
-0.0136108,-0.0198364,1.016050.0610352,0,0.0610352,0.001,0.002,-0.15,0,0,0,0,0,0,0,39.62,562.165,588843
-0.0170288,-0.024353,1.009520,0,0,-0.001,-0.002,-0.15,0,0,0,0,0,0,0,39.62,562.177,588858
-0.0136108,-0.0214233,1.013980,-0.183105,0.0610352,0.001,0,-0.15,0,0,0,0,0,0,0,39.62,562.196,588874
-0.0155029,-0.0219727,1.01520,0,0.0610352,0,0,-0.15,0,0,0,0,0,0,0,39.62,562.216,588888
-0.015625,-0.0213013,1.012940,-0.0610352,0.12207,0,0,-0.15,0,0,0,0,0,0,0,39.62,562.236,588903
-0.0152588,-0.0234375,1.0166-0.12207,-0.0610352,0.12207,0,-0.001,-0.15,0,0,0,0,0,0,0,39.62,562.266,588934
-0.0179443,-0.0200195,1.01440,0.12207,0.0610352,-0.002,0.002,-0.15,0,0,0,0,0,0,0,39.62,562.277,588949
-0.0144043,-0.0170288,1.01593-0.0610352,-0.0610352,0.12207,0,0.005,-0.15,0,0,0,0,0,0,0,39.62,562.296,588979
-0.0143433,-0.0244141,1.010130,0,0.12207,0,-0.002,-0.15,0,0,0,0,0,0,0,39.62,562.32,588994
-0.0151978,-0.0232544,1.013850,0,0.12207,0,-0.001,-0.15,0,0,0,0,0,0,0,39.62,562.341,589009
-0.0139771,-0.0249023,1.010680,-0.0610352,0.0610352,0.001,-0.002,-0.15,0,0,0,0,0,0,0,39.62,562.356,589039
-0.019104,-0.0245361,1.012630,0,0,-0.003,-0.002,-0.16,0,0,0,0,0,0,0,39.62,562.377,589054
-0.0150146,-0.0258789,1.019170,0,-0.0610352,0,-0.003,-0.16,0,0,0,0,0,0,0,39.62,562.396,589069
-0.0148926,-0.0217285,1.01886-0.0610352,-0.12207,0.0610352,0,0,-0.16,0,0,0,0,0,0,0,39.62,562.416,589084
-0.0158691,-0.0211792,1.012270,0,0,0,0,-0.16,0,0,0,0,0,0,0,39.62,562.441,589114
-0.0169678,-0.0247803,1.01428-0.12207,-0.0610352,0,-0.001,-0.002,-0.16,0,0,0,0,0,0,0,39.62,562.456,589129
-0.0162354,-0.0220947,1.01306-0.0610352,-0.0610352,0.12207,-0.001,0,-0.16,0,0,0,0,0,0,0,39.62,562.477,589159
-0.015564,-0.0222778,1.011410,-0.0610352,0.12207,0,0,-0.16,0,0,0,0,0,0,0,39.62,562.496,589174
-0.0141602,-0.024353,1.01111-0.0610352,-0.12207,0,0.001,-0.002,-0.17,0,0,0,0,0,0,0,39.62,562.516,589189
-0.0130615,-0.0235596,1.017270.183105,0,0.0610352,0.002,-0.001,-0.17,0,0,0,0,0,0,0,39.62,562.536,589219
-0.0137329,-0.0231323,1.00879-0.0610352,-0.12207,0,0.001,-0.001,-0.17,0,0,0,0,0,0,0,39.62,562.557,589234
-0.015686,-0.0220337,1.016360.0610352,-0.183105,0.0610352,0,0,-0.17,0,0,0,0,0,0,0,39.62,562.577,589249
-0.0187378,-0.0200195,1.016170.12207,0,-0.0610352,-0.003,0.002,-0.17,0,0,0,0,0,0,0,39.62,562.597,589279
-0.0153809,-0.0222778,1.013850.0610352,0,0.0610352,0,0,-0.18,0,0,0,0,0,0,0,39.62,562.619,589294
-0.0161743,-0.0252075,1.01373-0.183105,-0.12207,0,0,-0.003,-0.18,0,0,0,0,0,0,0,39.62,562.637,589309
-0.0161743,-0.0239258,1.01501-0.0610352,-0.0610352,0,0,-0.001,-0.18,0,0,0,0,0,0,0,39.62,562.656,589339
-0.0164185,-0.020813,1.0163-0.0610352,-0.12207,0,-0.001,0.001,-0.18,0,0,0,0,0,0,0,39.62,562.679,589354
-0.0137329,-0.0223389,1.01196-0.183105,-0.183105,0,0.001,0,-0.18,0,0,0,0,0,0,0,39.62,562.696,589369
-0.0147095,-0.0221558,1.020940,0,0.12207,0,0,-0.18,0,0,0,0,0,0,0,39.62,562.716,589384
-0.0134277,-0.022522,1.01398-0.0610352,-0.0610352,0.0610352,0.001,0,-0.18,0,0,0,0,0,0,0,39.62,562.736,589414
-0.0152588,-0.0239868,1.015140,-0.12207,-0.0610352,0,-0.001,-0.18,0,0,0,0,0,0,0,39.62,562.756,589429
-0.0187378,-0.0210571,1.01337-0.0610352,-0.0610352,0,-0.003,0.001,-0.18,0,0,0,0,0,0,0,39.62,562.777,589459
-0.0159912,-0.0245361,1.010990,0.0610352,0,0,-0.002,-0.18,0,0,0,0,0,0,0,39.62,562.797,589474
-0.0158691,-0.0205688,1.018370,0,0.12207,0,0.001,-0.19,0,0,0,0,0,0,0,39.62,562.815,589489
-0.0193481,-0.0238647,1.018310,0.0610352,0,-0.003,-0.001,-0.19,0,0,0,0,0,0,0,39.62,562.836,589519
-0.0143433,-0.0248413,1.00781-0.12207,-0.12207,0,0,-0.002,-0.19,0,0,0,0,0,0,0,39.62,562.857,589534
-0.0166626,-0.0228271,1.02075-0.0610352,0,0,-0.001,0,-0.19,0,0,0,0,0,0,0,39.62,562.876,589549
-0.0164185,-0.0248413,1.017760,-0.12207,0.0610352,-0.001,-0.002,-0.19,0,0,0,0,0,0,0,39.62,562.896,589564
-0.0146484,-0.0204468,1.016420,-0.12207,0,0,0.001,-0.19,0,0,0,0,0,0,0,39.62,562.916,589594
-0.0137939,-0.0228271,1.013430.0610352,0,0.0610352,0.001,0,-0.19,0,0,0,0,0,0,0,39.62,562.94,589609
-0.0170898,-0.0271606,1.010990,-0.12207,0.0610352,-0.001,-0.005,-0.2,0,0,0,0,0,0,0,39.62,562.955,589639
-0.0160522,-0.0200195,1.011170.0610352,0.12207,0,0,0.002,-0.2,0,0,0,0,0,0,0,39.62,562.977,589654
-0.015686,-0.0222168,1.00946-0.0610352,-0.183105,0.0610352,0,0,-0.2,0,0,0,0,0,0,0,39.62,562.996,589669
-0.015686,-0.0224609,1.01593-0.0610352,-0.0610352,0,0,0,-0.2,0,0,0,0,0,0,0,39.62,563.018,589699
-0.0170898,-0.0244141,1.014830.0610352,0,0,-0.001,-0.002,-0.2,0,0,0,0,0,0,0,39.62,563.042,589714
-0.0172119,-0.0206299,1.0119-0.0610352,-0.0610352,0.0610352,-0.002,0.001,-0.2,0,0,0,0,0,0,0,39.62,563.056,589729
-0.0158691,-0.0239258,1.01227-0.12207,-0.12207,0.12207,0,-0.001,-0.2,0,0,0,0,0,0,0,39.62,563.076,589744
-0.0139771,-0.0213013,1.00781-0.0610352,-0.0610352,0,0.001,0,-0.2,0,0,0,0,0,0,0,39.62,563.099,589774
-0.0186768,-0.0230103,1.012510,-0.0610352,0.0610352,-0.003,0,-0.21,0,0,0,0,0,0,0,39.62,563.119,589789
-0.0123901,-0.0219116,1.0202-0.0610352,-0.12207,0.0610352,0.002,0,-0.21,0,0,0,0,0,0,0,39.62,563.138,589819
-0.0159912,-0.0219727,1.01434-0.0610352,-0.0610352,0,0,0,-0.21,0,0,0,0,0,0,0,39.62,563.158,589835
-0.0126953,-0.022644,1.01471-0.0610352,-0.0610352,0.0610352,0.002,0,-0.21,0,0,0,0,0,0,0,39.62,563.176,589849
-0.0137329,-0.026123,1.006290,-0.0610352,-0.0610352,0.001,-0.004,-0.21,0,0,0,0,0,0,0,39.62,563.196,589879
-0.0137939,-0.0216675,1.017030.12207,0,0.12207,0.001,0,-0.21,0,0,0,0,0,0,0,39.62,563.216,589895
-0.0183105,-0.0224609,1.01599-0.0610352,-0.0610352,0.12207,-0.003,0,-0.22,0,0,0,0,0,0,0,39.62,563.236,589909
-0.0168457,-0.0231934,1.00964-0.0610352,-0.12207,0.12207,-0.001,-0.001,-0.22,0,0,0,0,0,0,0,39.62,563.263,589939
-0.0145264,-0.0234375,1.015010,-0.0610352,0.0610352,0,-0.001,-0.22,0,0,0,0,0,0,0,39.62,563.276,589955
-0.0152588,-0.0183105,1.01752-0.0610352,-0.12207,0.0610352,0,0.003,-0.22,0,0,0,0,0,0,0,39.62,563.296,589969
-0.0131226,-0.0209961,1.01483-0.0610352,-0.0610352,0,0.002,0.001,-0.22,0,0,0,0,0,0,0,39.62,563.318,589999
-0.0157471,-0.0223389,1.013240,0,0.0610352,0,0,-0.22,0,0,0,0,0,0,0,39.62,563.337,590015
-0.0169067,-0.0216064,1.01306-0.0610352,0.0610352,0.0610352,-0.001,0,-0.22,0,0,0,0,0,0,0,39.62,563.357,590029
-0.0142822,-0.0212402,1.019290.0610352,0.0610352,0.183105,0.001,0.001,-0.23,0,0,0,0,0,0,0,39.62,563.378,590059
-0.0153809,-0.0216675,1.01190,0,0,0,0,-0.23,0,0,0,0,0,0,0,39.62,563.396,590075
-0.0180054,-0.0219116,1.01849-0.0610352,-0.0610352,0.0610352,-0.002,0,-0.23,0,0,0,0,0,0,0,39.62,563.416,590089
-0.0161743,-0.0231323,1.011720.0610352,0,0,0,-0.001,-0.23,0,0,0,0,0,0,0,39.62,563.438,590119
-0.0144653,-0.0204468,1.015750,0,0.0610352,0,0.001,-0.23,0,0,0,0,0,0,0,39.62,563.46,590135
-0.0133667,-0.0234985,1.01074-0.0610352,-0.0610352,0,0.001,-0.001,-0.23,0,0,0,0,0,0,0,39.62,563.477,590149
-0.0159912,-0.0185547,1.015690,0.0610352,-0.0610352,0,0.003,-0.23,0,0,0,0,0,0,0,39.62,563.496,590164
-0.0164795,-0.0216064,1.01886-0.12207,-0.12207,0.12207,-0.001,0,-0.23,0,0,0,0,0,0,0,39.64,563.519,590195
-0.0158081,-0.0206909,1.01642-0.0610352,-0.12207,0.0610352,0,0.001,-0.24,0,0,0,0,0,0,0,39.64,563.536,590209
-0.0168457,-0.0249634,1.00854-0.0610352,-0.0610352,0.0610352,-0.001,-0.002,-0.24,0,0,0,0,0,0,0,39.64,563.557,590239
-0.00946045,-0.0247803,1.01575-0.0610352,-0.0610352,0.0610352,0.005,-0.002,-0.24,0,0,0,0,0,0,0,39.64,563.577,590255
-0.013916,-0.0245972,1.01611-0.0610352,-0.0610352,0.0610352,0.001,-0.002,-0.24,0,0,0,0,0,0,0,39.64,563.597,590269
-0.0176392,-0.0206299,1.016780,0.0610352,-0.0610352,-0.002,0.001,-0.24,0,0,0,0,0,0,0,39.64,563.617,590299
-0.0125732,-0.0186768,1.016050.0610352,0,0,0.002,0.003,-0.24,0,0,0,0,0,0,0,39.64,563.636,590315
-0.0153809,-0.0231323,1.017210,-0.12207,0,0,-0.001,-0.24,0,0,0,0,0,0,0,39.64,563.656,590329
-0.0158691,-0.0194702,1.01691-0.0610352,-0.0610352,0.12207,0,0.002,-0.24,0,0,0,0,0,0,0,39.64,563.677,590344
-0.0142822,-0.0230713,1.013240,0,0.12207,0.001,0,-0.25,0,0,0,0,0,0,0,39.64,563.696,590375
-0.0145264,-0.0240479,1.01324-0.12207,-0.183105,0,0,-0.001,-0.25,0,0,0,0,0,0,0,39.64,563.716,590390
-0.0106201,-0.0211792,1.015010,-0.0610352,0,0.004,0,-0.25,0,0,0,0,0,0,0,39.64,563.735,590405
-0.0115967,-0.0202637,1.017270,0,0,0.003,0.002,-0.25,0,0,0,0,0,0,0,39.64,563.761,590435
-0.0160522,-0.0270996,1.02069-0.0610352,-0.0610352,0.12207,0,-0.004,-0.25,0,0,0,0,0,0,0,39.64,563.776,590450
-0.0157471,-0.0196533,1.006710.183105,0.12207,0.183105,0,0.002,-0.25,0,0,0,0,0,0,0,39.64,563.799,590480
-0.0198975,-0.0200195,1.015620.0610352,0,0,-0.004,0.002,-0.26,0,0,0,0,0,0,0,39.64,563.815,590495
-0.0128784,-0.0222168,1.01074-0.0610352,-0.183105,0.0610352,0.002,0,-0.26,0,0,0,0,0,0,0,39.64,563.836,590510
-0.0167847,-0.0204468,1.01221-0.0610352,-0.12207,0,-0.001,0.001,-0.26,0,0,0,0,0,0,0,39.64,563.856,590525
-0.00946045,-0.0241699,1.01471-0.0610352,-0.12207,0.183105,0.005,-0.002,-0.26,0,0,0,0,0,0,0,39.64,563.876,590555
-0.0154419,-0.0199585,1.014040,0,0.12207,0,0.002,-0.26,0,0,0,0,0,0,0,39.64,563.897,590570
-0.0129395,-0.0256958,1.01691-0.12207,-0.244141,0.183105,0.002,-0.003,-0.26,0,0,0,0,0,0,0,39.64,563.916,590585
-0.0161743,-0.0224609,1.010310,0,-0.12207,0,0,-0.26,0,0,0,0,0,0,0,39.64,563.936,590615
-0.0128784,-0.0244751,1.013790,-0.12207,0.0610352,0.002,-0.002,-0.27,0,0,0,0,0,0,0,39.64,563.96,590630
-0.0147095,-0.0232544,1.01270,0.0610352,-0.0610352,0,-0.001,-0.27,0,0,0,0,0,0,0,39.64,563.977,590660
-0.0153198,-0.0196533,1.01031-0.0610352,-0.0610352,0.0610352,0,0.002,-0.27,0,0,0,0,0,0,0,39.64,564.003,590675
-0.0199585,-0.0216675,1.01758-0.0610352,-0.183105,0,-0.004,0,-0.27,0,0,0,0,0,0,0,39.64,564.016,590690
-0.0127563,-0.0197144,1.01581-0.0610352,-0.0610352,0.0610352,0.002,0.002,-0.27,0,0,0,0,0,0,0,39.63,564.036,590705
-0.0168457,-0.0212402,1.016420,0.0610352,-0.0610352,-0.001,0,-0.27,0,0,0,0,0,0,0,39.63,564.056,590735
-0.0146484,-0.0245361,1.01874-0.0610352,-0.12207,0.12207,0,-0.002,-0.27,0,0,0,0,0,0,0,39.63,564.079,590750
-0.0145874,-0.0246582,1.01440.12207,0,0.0610352,0,-0.002,-0.27,0,0,0,0,0,0,0,39.63,564.096,590765
-0.0161133,-0.0239868,1.016540,0.0610352,-0.0610352,0,-0.001,-0.27,0,0,0,0,0,0,0,39.63,564.116,590795
-0.0152588,-0.0197144,1.015440,0,0.0610352,0,0.002,-0.28,0,0,0,0,0,0,0,39.63,564.136,590810
-0.0188599,-0.022583,1.015440.0610352,0,0.12207,-0.003,0,-0.28,0,0,0,0,0,0,0,39.63,564.156,590825
-0.0181885,-0.0216675,1.00232-0.12207,-0.0610352,0.0610352,-0.003,0,-0.28,0,0,0,0,0,0,0,39.63,564.176,590855
-0.019165,-0.0232544,1.01117-0.0610352,0,-0.0610352,-0.003,-0.001,-0.28,0,0,0,0,0,0,0,39.63,564.196,590870
-0.017334,-0.0233154,1.015620.0610352,0.0610352,0,-0.001,-0.001,-0.28,0,0,0,0,0,0,0,39.63,564.216,590900
-0.0112915,-0.0254517,1.00659-0.0610352,-0.183105,0.12207,0.003,-0.003,-0.28,0,0,0,0,0,0,0,39.63,564.236,590915
-0.0177002,-0.0228271,1.016170,0.0610352,-0.0610352,-0.002,0,-0.28,0,0,0,0,0,0,0,39.63,564.267,590945
-0.0125732,-0.0268555,1.01038-0.0610352,-0.0610352,0.0610352,0.002,-0.004,-0.28,0,0,0,0,0,0,0,39.63,564.277,590960
-0.0180664,-0.0229492,1.013850.12207,0.0610352,0.0610352,-0.002,0,-0.28,0,0,0,0,0,0,0,39.63,564.296,590975
-0.017395,-0.0214233,1.015930.12207,0,-0.0610352,-0.002,0,-0.28,0,0,0,0,0,0,0,39.63,564.316,590990
-0.0133667,-0.0231323,1.0116-0.12207,-0.0610352,0.0610352,0.001,-0.001,-0.29,0,0,0,0,0,0,0,39.63,564.338,591020
-0.0168457,-0.0219727,1.01672-0.12207,-0.0610352,-0.0610352,-0.001,0,-0.29,0,0,0,0,0,0,0,39.63,564.356,591035
-0.0165405,-0.022583,1.01721-0.0610352,-0.0610352,0.0610352,-0.001,0,-0.29,0,0,0,0,0,0,0,39.63,564.377,591050
-0.0150757,-0.0200195,1.012940,0,0,0,0.002,-0.29,0,0,0,0,0,0,0,39.63,564.396,591065
-0.0142822,-0.0236206,1.01141-0.0610352,-0.0610352,0.12207,0.001,-0.001,-0.29,0,0,0,0,0,0,0,39.63,564.416,591095
-0.013916,-0.0213623,1.02063-0.0610352,-0.0610352,0.183105,0.001,0,-0.29,0,0,0,0,0,0,0,39.63,564.436,591110
-0.0189209,-0.0209351,1.00983-0.0610352,-0.0610352,0.0610352,-0.003,0.001,-0.3,0,0,0,0,0,0,0,39.63,564.456,591140
-0.0157471,-0.0258789,1.010680,0,0.0610352,0,-0.003,-0.3,0,0,0,0,0,0,0,39.63,564.477,591155
-0.0128784,-0.0195923,1.01520,0,0.12207,0.002,0.002,-0.3,0,0,0,0,0,0,0,39.63,564.496,591170
-0.0152588,-0.0219727,1.01361-0.0610352,-0.0610352,-0.0610352,0,0,-0.3,0,0,0,0,0,0,0,39.63,564.516,591200
-0.0244751,-0.0438232,1.02368-0.427246,-0.0610352,-0.183105,-0.008,-0.021,-0.3,0,-1.52588e-05,0,0,0,0,0,39.63,564.538,591215
-0.0170898,-0.0817871,1.02393-1.77002,0,-1.52588,0,-0.058,-0.29,0,-7.62939e-05,0,0,0,0,0,39.63,564.557,591230
-0.034668,-0.0204468,0.997803-0.732422,-0.12207,0.610352,-0.019,0.003,-0.29,3.05176e-05,-0.000198364,0,0,0,0,0,39.63,564.577,591260
-0.00280762,-0.0280151,1.001041.52588,-0.0610352,0.671387,0.012,-0.003,-0.3,3.05176e-05,-0.000198364,0,0,0,0,0,39.63,564.596,591276
-0.0100098,-0.0484009,1.010192.50244,0.0610352,0.488281,0.005,-0.024,-0.3,3.05176e-05,-0.000228882,0,0,0,0,0,39.63,564.616,591290
-0.0145264,-0.0411987,1.028380.244141,0.12207,-0.671387,0.001,-0.017,-0.3,3.05176e-05,-0.000335693,0,0,0,0,0,39.63,564.636,591320
-0.00427246,-0.0172729,1.00305-0.732422,0.244141,-0.793457,0.011,0.006,-0.29,3.05176e-05,-0.000335693,0,0,0,0,0,39.63,564.656,591336
-0.0194092,-0.0142822,1.01685-0.854492,0,-0.0610352,-0.003,0.009,-0.28,3.05176e-05,-0.000335693,0,0,0,0,0,39.63,564.676,591350
-0.0203247,-0.0233154,1.01331-0.427246,0,-0.0610352,-0.004,0,-0.29,3.05176e-05,-0.000335693,0,0,0,0,0,39.63,564.697,591365
-0.0182495,-0.019043,1.013430.854492,-0.12207,0.610352,-0.002,0.004,-0.3,3.05176e-05,-0.000335693,0,0,0,0,0,39.63,564.717,591396
-0.0259399,-0.0236816,1.027530.610352,-0.12207,-0.0610352,-0.009,0,-0.3,3.05176e-05,-0.000335693,0,0,0,0,0,39.63,564.736,591410
-0.00823975,-0.0160522,1.01898-0.427246,-0.183105,-0.610352,0.007,0.007,-0.29,3.05176e-05,-0.000335693,0,0,0,0,0,39.63,564.757,591425
-0.0172729,-0.0324707,1.02106-1.09863,-0.366211,-0.549316,-0.001,-0.008,-0.28,3.05176e-05,-0.000335693,0,0,0,0,0,39.63,564.778,591456
-0.00256348,-0.0184326,1.00256-0.732422,-0.244141,-0.12207,0.012,0.005,-0.27,3.05176e-05,-0.000335693,0,0,0,0,0,39.63,564.797,591470
-0.0140381,-0.0246582,1.009770.366211,0.0610352,0.305176,0.001,-0.001,-0.27,3.05176e-05,-0.000335693,0,0,0,0,0,39.63,564.817,591485
-0.0118408,-0.0977783,1.0304-2.50244,0,-0.366211,0.004,-0.071,-0.28,3.05176e-05,-0.000534058,0,0,0,0,0,39.63,564.837,591516
-0.00909424,-0.0640869,0.991455-3.66211,-0.305176,0.244141,0.006,-0.037,-0.28,3.05176e-05,-0.000762939,0,0,0,0,0,39.63,564.857,591530
-0.0119629,-0.0133667,0.985291-0.0610352,0.427246,0.854492,0.002,0.014,-0.3,3.05176e-05,-0.00132751,0,0,0,0,0,39.63,564.879,591560
-0.0179443,-0.0509644,1.003112.62451,0.0610352,0.976562,-0.002,-0.022,-0.31,3.05176e-05,-0.00161743,0,0,0,0,0,39.63,564.898,591576
-0.0217896,-0.0906372,1.025512.86865,0.244141,0.366211,-0.005,-0.062,-0.33,3.05176e-05,-0.00196838,0,0,0,0,0,39.63,564.917,591590
-0.0166016,-0.0380249,1.007081.52588,0.305176,-0.183105,0,-0.009,-0.32,3.05176e-05,-0.00238037,0,0,0,0,0,39.63,564.935,591605
-0.0140381,0.00183105,1.028140.366211,0.183105,-0.915527,0.001,0.03,-0.31,3.05176e-05,-0.00234985,0,0,0,0,0,39.63,564.957,591636
-0.0165405,-0.0387573,1.01593-0.12207,0.12207,-1.2207,0,-0.01,-0.29,3.05176e-05,-0.00219727,0,0,0,0,0,39.63,564.989,591665
-0.0195923,-0.0271606,1.00140.793457,-0.793457,0.305176,-0.004,0,-0.27,3.05176e-05,-0.00195312,0,0,0,0,0,39.63,565.02,591696
-0.00714111,-0.0339355,1.04352-0.305176,0.0610352,1.77002,0.009,-0.006,-0.3,3.05176e-05,-0.0018158,0,0,0,0,0,39.66,565.043,591725
-0.0181885,-0.00799561,1.01062-0.671387,0,1.34277,-0.002,0.018,-0.32,3.05176e-05,-0.0018158,0,0,0,0,0,39.66,565.06,591740
-0.0125122,0.015686,1.00806-0.549316,-0.0610352,1.0376,0.002,0.042,-0.34,3.05176e-05,-0.00177002,0,0,0,0,0,39.66,565.084,591756
-0.013855,-0.0187988,1.00342-0.610352,-0.0610352,0.305176,0.001,0.007,-0.35,3.05176e-05,-0.00169373,0,0,0,0,0,39.66,565.096,591770
-0.0178833,-0.0175781,1.01648-0.427246,0.305176,-0.793457,-0.002,0.009,-0.34,3.05176e-05,-0.00161743,0,0,0,0,0,39.66,565.116,591785
-0.0106812,-0.0516357,0.999939-0.610352,0.183105,-1.34277,0.005,-0.025,-0.3,3.05176e-05,-0.00161743,0,0,0,0,0,39.66,565.139,591816
-0.0164185,-0.0852661,1.03967-0.976562,-0.244141,2.2583,0,-0.057,-0.32,3.05176e-05,-0.00167847,0,0,0,0,0,39.66,565.156,591831
-0.0353394,-0.0496216,1.0304-1.52588,0,4.69971,-0.019,-0.021,-0.38,3.05176e-05,-0.00180054,0,0,0,0,0,39.66,565.176,591846
-0.00250244,0.0206299,1.014651.46484,-0.244141,8.30078,0.012,0.048,-0.58,7.62939e-05,-0.00198364,0,0,0,0,0,39.66,565.196,591876
-0.072937,-0.0859985,1.007810.732422,-0.12207,12.146,-0.056,-0.059,-0.74,7.62939e-05,-0.00205994,0,0,0,0,0,39.66,565.216,591891
0.022644,-0.00811768,1.010930.610352,-0.610352,13.4277,0.038,0.02,-0.95,6.10352e-05,-0.00215149,0,0,0,0,0,39.66,565.236,591906
-0.0736084,-0.050293,1.040830,-0.488281,15.3809,-0.056,-0.023,-1.36,6.10352e-05,-0.00230408,0,0,0,0,0,39.66,565.256,591936
0.0221558,0.00915527,1.01459-0.183105,-0.12207,17.0898,0.037,0.037,-1.6,4.57764e-05,-0.00238037,0,0,0,0,0,39.66,565.276,591951
0.0187378,-0.0518799,1.00653-0.671387,-0.610352,15.5029,0.035,-0.023,-1.85,6.10352e-05,-0.00244141,0,0,0,0,0,39.66,565.296,591966
-0.0180054,0.0288086,0.992554-1.2207,-0.549316,13.4888,-0.004,0.055,-2.29,7.62939e-05,-0.00248718,0,0,0,0,0,39.66,565.316,591996
0.0186157,-0.00787354,1.006470.0610352,-0.366211,12.4512,0.033,0.02,-2.49,9.15527e-05,-0.00244141,0,0,0,0,0,39.66,565.336,592011
-0.0150146,-0.0501099,1.01843-0.0610352,-0.366211,11.1694,0.002,-0.023,-2.82,0.000152588,-0.00230408,0,0,0,0,0,39.66,565.357,592041
-0.00714111,-0.0334473,1.01099-0.305176,-0.0610352,11.3525,0.009,-0.006,-2.99,0.000152588,-0.00227356,0,0,0,0,0,39.66,565.376,592056
-0.0278931,-0.0675659,1.00775-0.610352,-0.427246,11.9629,-0.009,-0.041,-3.16,0.000152588,-0.0022583,0,0,0,0,0,39.66,565.396,592071
-0.0244141,-0.103333,1.02698-1.2207,-0.549316,15.1978,-0.003,-0.075,-3.37,0.000152588,-0.00233459,0,0,0,0,0,39.66,565.416,592086
-0.0170898,0.0212402,1.000061.28174,-0.671387,22.3389,-0.004,0.048,-3.96,0.000152588,-0.00250244,0,0,0,0,0,39.66,565.436,592116
-0.0265503,-0.0552368,1.021122.31934,-0.793457,24.353,-0.008,-0.028,-4.32,0.000152588,-0.00254822,0,0,0,0,0,39.66,565.456,592131
-0.0395508,-0.0911255,1.03003-0.183105,-1.40381,29.0527,-0.017,-0.064,-4.73,0.000152588,-0.00265503,0,0,0,0,0,39.66,565.476,592146
-0.0210571,-0.0142822,1.00598-1.46484,-1.0376,30.8838,-0.006,0.012,-5.64,0.000152588,-0.00279236,0,0,0,0,0,39.66,565.499,592176
-0.00189209,-0.0159912,1.00348-0.854492,-1.46484,33.3862,0.012,0.012,-6.13,0.000152588,-0.00279236,0,0,0,0,0,39.66,565.516,592191
0.00738525,0.0155029,1.026370.12207,-0.549316,32.1655,0.017,0.045,-6.63,0.000152588,-0.00274658,0,0,0,0,0,39.66,565.536,592206
0.0108032,-0.0586548,1.0462-0.549316,-0.610352,31.3721,0.03,-0.026,-7.57,0.000183105,-0.00262451,0,0,0,0,0,39.66,565.556,592236
-0.0167236,-0.0289307,1.00232-1.34277,-0.549316,29.2358,-0.001,-0.002,-8.01,0.000213623,-0.00260925,0,0,0,0,0,39.66,565.576,592251
-0.0211792,-0.0351562,1.01776-0.366211,-1.09863,28.8086,-0.004,-0.008,-8.87,0.000259399,-0.00257874,0,0,0,0,0,39.66,565.602,592281
-0.0126953,-0.0147095,1.01862-0.0610352,-0.793457,27.5269,0,0.012,-9.3,0.000259399,-0.00257874,0,0,0,0,0,39.66,565.617,592296
-0.00701904,-0.0457153,1.03149-0.244141,-0.610352,28.0762,0.011,-0.016,-9.71,0.000259399,-0.00257874,0,0,0,0,0,39.66,565.636,592311
-0.0157471,0.00134277,1.00952-0.549316,-1.2207,28.7476,-0.005,0.027,-10.14,0.000259399,-0.00256348,0,0,0,0,0,39.66,565.656,592326
-0.0172119,-0.0284424,1.029540.305176,-1.15967,28.6255,-0.001,-0.001,-10.99,0.000259399,-0.0025177,0,0,0,0,0,39.66,565.678,592356
-0.0311279,-0.0274658,1.021910.0610352,-1.2207,28.5034,-0.015,-0.004,-11.42,0.000259399,-0.0025177,0,0,0,0,0,39.66,565.7,592371
-0.0161743,0.00463867,1.01666-0.12207,-1.28174,29.1138,-0.007,0.03,-12.28,0.000259399,-0.00250244,0,0,0,0,0,39.66,565.719,592401
-0.0164185,-0.00750732,1.001890.12207,-1.0376,28.5034,-0.005,0.017,-12.71,0.000259399,-0.00245667,0,0,0,0,0,39.66,565.737,592416
-0.00872803,-0.00305176,1.03430.915527,-0.976562,28.3813,0,0.023,-13.13,0.000259399,-0.00239563,0,0,0,0,0,39.66,565.757,592431
-0.0258179,-0.0145264,1.011410.0610352,-0.915527,28.5034,-0.013,0.007,-13.56,0.000259399,-0.00230408,0,0,0,0,0,39.66,565.777,592446
-0.015564,0.00146484,1.00989-1.09863,-0.549316,28.8086,-0.007,0.025,-14.43,0.000305176,-0.00209045,0,0,0,0,0,39.66,565.797,592476
-0.0142212,-0.00848389,0.995544-0.0610352,-0.610352,27.771,-0.004,0.015,-14.85,0.000335693,-0.00195312,0,0,0,0,0,39.66,565.82,592491
-0.00848389,-0.03125,1.01831-0.305176,-0.610352,28.0151,0.007,-0.004,-15.26,0.000335693,-0.0018158,0,0,0,0,0,39.66,565.836,592506
-0.0320435,-0.0458374,1.00116-0.12207,-0.305176,28.1982,-0.011,-0.025,-16.1,0.000335693,-0.00183105,0,0,0,0,0,39.66,565.856,592536
-0.00604248,-0.0175781,1.00372-0.305176,-1.09863,29.541,0.006,0.009,-16.54,0.000335693,-0.00184631,0,0,0,0,0,39.66,565.877,592551
-0.0219116,-0.0188599,0.9954830.183105,-0.976562,28.5645,-0.008,0.002,-16.97,0.000335693,-0.00186157,0,0,0,0,0,39.66,565.896,592566
-0.00927734,-0.0302124,1.01038-0.12207,-1.40381,28.4424,0.006,-0.004,-17.83,0.000335693,-0.00195312,0,0,0,0,0,39.66,565.924,592596
-0.0192261,-0.064209,1.01324-0.12207,-1.28174,28.3203,0.007,-0.039,-18.26,0.000335693,-0.00202942,0,0,0,0,0,39.66,565.936,592611
-0.0119019,-0.00292969,0.994202-0.0610352,-1.40381,29.6631,-0.004,0.02,-18.7,0.000335693,-0.00212097,0,0,0,0,0,39.66,565.957,592626
-0.0281372,-0.0213623,1.016540.854492,-1.28174,28.4424,-0.014,-0.002,-19.56,0.000335693,-0.00219727,0,0,0,0,0,39.66,565.979,592656
-0.0113525,-0.0385132,1.044430.549316,-0.244141,27.5879,0.007,-0.012,-20.41,0.000335693,-0.00219727,0,0,0,0,0,39.66,566.01,592686
0.00793457,0.000305176,0.9916990.0610352,-1.15967,28.0151,0.011,0.028,-21.26,0.000335693,-0.00218201,0,0,0,0,0,39.66,566.045,592716
-0.0175781,-0.0267334,1.019350,-0.610352,28.0151,-0.002,-0.005,-21.68,0.000335693,-0.00215149,0,0,0,0,0,39.66,566.056,592731
-0.0167847,0.00628662,1.02979-0.0610352,-1.0376,27.71,-0.013,0.025,-22.1,0.000335693,-0.00210571,0,0,0,0,0,39.66,566.078,592746
-0.0162354,-0.0170898,0.997192-1.09863,-0.610352,28.6255,-0.004,0.003,-22.94,0.00038147,-0.00205994,0,0,0,0,0,39.66,566.096,592777
-0.00274658,-0.00701904,0.9860230.0610352,-1.0376,27.8931,0.003,0.017,-23.36,0.000411987,-0.00205994,0,0,0,0,0,39.66,566.116,592791
-0.0374756,-0.0285645,1.027220.732422,-0.854492,28.5645,-0.019,-0.015,-23.78,0.000411987,-0.00205994,0,0,0,0,0,39.66,566.136,592806
-0.00286865,-0.0699463,1.01355-0.671387,-1.09863,28.0762,0.029,-0.039,-24.62,0.000411987,-0.00209045,0,0,0,0,0,39.66,566.156,592837
-0.0241089,0.0229492,1.03345-1.28174,-0.854492,28.6865,-0.028,0.036,-25.05,0.000427246,-0.00212097,0,0,0,0,0,39.66,566.177,592851
-0.00878906,-0.00909424,0.988464-0.488281,-0.976562,27.8931,-0.001,0.012,-25.47,0.000411987,-0.00210571,0,0,0,0,0,39.66,566.196,592866
-0.0205688,-0.0195312,1.030030.183105,-0.732422,27.3437,-0.007,-0.001,-26.31,0.000411987,-0.00210571,0,0,0,0,0,39.66,566.216,592897
-0.0181274,-0.0664062,1.022830.183105,-0.671387,27.832,0.015,-0.042,-26.72,0.000411987,-0.00213623,0,0,0,0,0,39.66,566.238,592911
0.00970459,0.0146484,1.0202-0.12207,-0.976562,29.541,0.003,0.042,-27.16,0.000411987,-0.00216675,0,0,0,0,0,39.66,566.256,592926
-0.036438,-0.0394897,1.02240.183105,-0.488281,29.48,-0.012,-0.027,-28.03,0.000411987,-0.00221252,0,0,0,0,0,39.66,566.279,592957
-0.00439453,-0.0265503,1.02539-0.305176,-0.793457,28.8086,0.009,0,-28.47,0.000411987,-0.00227356,0,0,0,0,0,39.66,566.297,592971
-0.0137329,-0.0419312,1.00775-0.549316,-0.671387,28.6865,0.008,-0.019,-28.9,0.000411987,-0.00233459,0,0,0,0,0,39.66,566.318,592986
-0.0189819,0.019043,0.9979860.732422,-0.610352,28.3813,-0.025,0.03,-29.77,0.00038147,-0.00234985,0,0,0,0,0,39.66,566.343,593017
-0.019165,-0.027832,1.014830.976562,-0.793457,28.6255,-0.001,-0.01,-30.2,0.000335693,-0.00231934,0,0,0,0,0,39.66,566.359,593031
-0.0145874,-0.0528564,1.0246-0.854492,-0.549316,28.8086,0.015,-0.028,-31.05,0.000289917,-0.00231934,0,0,0,0,0,39.66,566.378,593061
-0.0201416,0.0289307,0.999451-1.09863,-0.732422,29.6631,-0.032,0.037,-31.49,0.000274658,-0.00233459,0,0,0,0,0,39.66,566.397,593077
-0.00628662,-0.00744629,0.991211-0.183105,-1.0376,29.1138,-0.001,0.013,-31.93,0.000244141,-0.00230408,0,0,0,0,0,39.66,566.416,593091
-0.00732422,0.00622559,1.01483-0.183105,-1.40381,29.541,-0.009,0.024,-32.38,0.000198364,-0.0022583,0,0,0,0,0,39.66,566.437,593106
-0.0174561,-0.019165,1.025940,-0.854492,21.6064,-0.004,-0.002,-33.15,0.000198364,-0.00209045,0,0,0,0,0,39.66,566.457,593137
-0.0220947,0.0111084,1.0097-0.244141,-1.09863,19.2871,-0.024,0.019,-33.45,0.000183105,-0.00209045,0,0,0,0,0,39.66,566.475,593151
0.0112305,-0.0144043,1.005130.12207,-1.0376,17.5781,0.017,0.016,-33.73,0.000152588,-0.00209045,0,0,0,0,0,39.66,566.496,593166
0.000610352,-0.0256348,1.01843-0.549316,-0.793457,11.5356,0.014,0.001,-34.31,0.000137329,-0.0019989,0,0,0,0,0,39.66,566.542,593211
-0.0271606,-0.0231934,1.00452-1.0376,-0.488281,11.1084,-0.01,-0.012,-34.63,0.000137329,-0.0019989,0,0,0,0,0,39.66,566.565,593241
-0.00164795,-0.0043335,0.987427-0.732422,-0.793457,11.7798,0,0.017,-34.81,0.000137329,-0.0019989,0,0,0,0,0,39.61,566.576,593257
-0.0211182,0.0170898,1.007510.427246,-0.244141,11.9629,-0.028,0.023,-34.99,0.00012207,-0.00196838,0,0,0,0,0,39.61,566.601,593271
-0.0186768,-0.00231934,1.020320.854492,-0.488281,11.9019,-0.014,0.009,-35.17,7.62939e-05,-0.00192261,0,0,0,0,0,39.61,566.617,593287
-0.0157471,-0.0598145,1.01099-0.610352,-0.549316,14.0381,0.021,-0.036,-35.55,-4.57764e-05,-0.00187683,0,0,0,0,0,39.61,566.639,593317
-0.00726318,-0.00756836,1.03076-1.34277,-0.671387,15.9302,-0.002,0.011,-35.78,-9.15527e-05,-0.00190735,0,0,0,0,0,39.61,566.663,593332
-0.0175781,0.00756836,1.00928-0.915527,-0.244141,16.6016,-0.02,0.017,-36.03,-0.000152588,-0.00190735,0,0,0,0,0,39.61,566.676,593347
-0.00146484,0.00305176,1.008730.244141,-0.549316,15.3198,-0.004,0.023,-36.52,-0.000320435,-0.00189209,0,0,0,0,0,39.61,566.696,593377
0.00286865,-0.043396,1.01837-0.427246,-0.183105,14.9536,0.026,-0.011,-37.17,-0.000305176,-0.00184631,0,0,0,0,0,39.61,566.746,593422
-0.0332031,-0.0350952,1.03052-0.610352,0.305176,14.0991,-0.006,-0.026,-37.39,-0.000274658,-0.00187683,0,0,0,0,0,39.61,566.767,593437
-0.0203247,-0.0187378,0.983032-1.28174,-0.549316,13.6719,-0.006,-0.005,-37.6,-0.000244141,-0.00192261,0,0,0,0,0,39.61,566.777,593452
-0.00787354,0.0275879,1.00812-0.12207,-0.366211,11.6577,-0.024,0.038,-37.79,-0.000244141,-0.00193787,0,0,0,0,0,39.61,566.796,593467
-0.0496216,-0.0288086,1.029480.366211,-0.0610352,9.82666,-0.022,-0.031,-38.1,-0.000305176,-0.00198364,0,0,0,0,0,39.61,566.816,593497
-0.0325928,-0.0102539,0.993408-0.183105,-0.366211,10.376,-0.02,-0.006,-38.25,-0.00038147,-0.00205994,0,0,0,0,0,39.61,566.836,593512
0.0167236,-0.0274658,1.02582-0.305176,-0.671387,10.6201,0.028,0.011,-38.41,-0.000442505,-0.00212097,0,0,0,0,0,39.61,566.856,593527
0.0119019,0.0078125,0.974548-0.305176,-0.976562,12.2681,0.002,0.034,-38.76,-0.00062561,-0.00210571,0,0,0,0,0,39.61,566.876,593557
0.0184326,-0.036499,1.045410.488281,0.12207,12.0239,0.035,0.005,-38.94,-0.000686646,-0.00205994,0,0,0,0,0,39.61,566.901,593572
0.0130615,-0.0419312,0.996460.610352,-0.244141,13.0005,0.035,-0.003,-39.32,-0.000793457,-0.00202942,0,0,0,0,0,39.61,566.923,593602
-0.00299072,-0.0296631,1.033330.12207,0.732422,13.7329,0.015,-0.002,-39.52,-0.000793457,-0.00202942,0,0,0,0,0,39.61,566.936,593617
-0.0216064,-0.0137939,1.02692-0.793457,0.305176,13.5498,-0.009,-0.002,-39.73,-0.000793457,-0.00202942,0,0,0,0,0,39.61,566.956,593632
-0.048645,0.00793457,0.989685-0.488281,0.427246,12.5122,-0.043,-0.003,-39.92,-0.000839233,-0.00202942,0,0,0,0,0,39.61,566.976,593647
-0.0532837,-0.00427246,1.01862-0.488281,-0.671387,12.5122,-0.038,-0.015,-40.48,-0.00112915,-0.00202942,0,0,0,0,0,39.61,567.015,593692
-0.0303345,-0.0283203,1.00732-0.732422,-1.28174,14.1602,-0.005,-0.018,-40.68,-0.00128174,-0.00202942,0,0,0,0,0,39.61,567.036,593707
-0.0598145,-0.00799561,1.01428-0.183105,-1.0376,15.9912,-0.041,-0.023,-41.15,-0.00160217,-0.00204468,0,0,0,0,0,39.61,567.056,593737
-0.00549316,-0.0216675,1.008060.366211,-1.2207,17.0898,0.008,0.001,-41.4,-0.00178528,-0.00205994,0,0,0,0,0,39.61,567.076,593752
0.0200806,-0.0267334,1.032840.366211,-0.732422,18.2495,0.031,0.015,-41.67,-0.00195312,-0.00205994,0,0,0,0,0,39.6,567.098,593767
-0.00500488,-0.0496826,1.00073-0.305176,-0.427246,19.043,0.027,-0.019,-42.22,-0.0022583,-0.00205994,0,0,0,0,0,39.6,567.116,593797
0.00982666,0.00280762,1.02539-1.15967,-0.12207,19.165,0.002,0.03,-42.51,-0.00238037,-0.00205994,0,0,0,0,0,39.6,567.136,593812
-0.0267944,0.0227661,0.988037-0.305176,0,17.9443,-0.037,0.019,-42.78,-0.00253296,-0.00201416,0,0,0,0,0,39.6,567.158,593827
-0.00823975,-0.0252075,1.009580.0610352,-0.12207,16.0522,0.009,-0.003,-43.29,-0.00288391,-0.00196838,0,0,0,0,0,39.6,567.177,593857
-0.0233154,-0.0302124,1.02875-0.244141,-0.305176,13.6108,0.001,-0.016,-43.51,-0.00288391,-0.00196838,0,0,0,0,0,39.6,567.197,593872
-0.0560913,-0.0475464,1.00256-1.0376,-0.488281,13.5498,-0.009,-0.051,-43.71,-0.00288391,-0.00201416,0,0,0,0,0,39.6,567.218,593887
-0.0219116,-0.034729,1.00055-0.0610352,-0.671387,11.6577,0.006,-0.018,-44.09,-0.00288391,-0.00218201,0,0,0,0,0,39.6,567.241,593917
-0.0170288,0.019104,1.033390,-0.915527,7.44629,-0.028,0.023,-44.42,-0.00291443,-0.00218201,0,0,0,0,0,39.6,567.265,593947
-0.0430298,0.00213623,1.007930.244141,-0.732422,3.72314,-0.034,-0.007,-44.48,-0.00297546,-0.00216675,0,0,0,0,0,39.6,567.281,593962
0.00317383,0.0297241,1.019710.732422,-1.15967,3.41797,-0.02,0.044,-44.53,-0.00308228,-0.00213623,0,0,0,0,0,39.6,567.296,593977
0.0119629,-0.078125,1.044490.488281,-0.12207,2.31934,0.06,-0.026,-44.58,-0.00315857,-0.0020752,0,0,0,0,0,39.6,567.316,593992
-0.00897217,-0.0133667,1.00641-0.732422,0.244141,0.610352,0,0.004,-44.59,-0.00318909,-0.00204468,0,0,0,0,0,39.6,567.337,594007
-0.0170898,-0.00518799,1.01178-0.793457,0.732422,0.305176,-0.01,0.004,-44.56,-0.003479,-0.0015564,0,0,0,0,0,39.6,567.391,594067
-0.0172119,-0.00274658,1.020810.671387,0,1.89209,-0.012,0.007,-44.6,-0.003479,-0.00134277,0,0,0,0,0,39.6,567.417,594097
-0.0354004,-0.039917,1.00281-0.0610352,-0.549316,1.77002,0.001,-0.032,-44.63,-0.003479,-0.00126648,0,0,0,0,0,39.6,567.439,594112
-0.0108643,-0.00854492,1.011540.671387,-0.671387,0.671387,-0.002,0.007,-44.67,-0.00358582,-0.00114441,0,0,0,0,0,39.6,567.459,594142
-0.00524902,-0.03479,1.017640.732422,-0.793457,0.12207,0.019,-0.007,-44.67,-0.00364685,-0.00114441,0,0,0,0,0,39.6,567.477,594157
-0.0292969,-0.0197144,1.0224-0.0610352,-0.549316,-0.183105,-0.008,-0.013,-44.67,-0.00364685,-0.00114441,0,0,0,0,0,39.6,567.496,594172
-0.0216675,-0.036438,1.026120.0610352,-0.0610352,-0.12207,0.008,-0.02,-44.66,-0.00364685,-0.00111389,0,0,0,0,0,39.6,567.519,594202
-0.0166016,-0.0238647,0.999512-0.305176,0,0.610352,0.003,-0.008,-44.67,-0.00364685,-0.00111389,0,0,0,0,0,39.6,567.536,594218
0.0172119,0.00189209,1.01184-0.366211,0,1.40381,0.009,0.033,-44.68,-0.00364685,-0.00109863,0,0,0,0,0,39.6,567.556,594232
-0.029541,0.0340576,1.02283-0.427246,0.427246,1.46484,-0.046,0.024,-44.7,-0.00366211,-0.0010376,0,0,0,0,0,39.6,567.576,594247
-0.0227661,-0.036499,1.01929-0.244141,0.610352,0.549316,0.008,-0.021,-44.73,-0.0038147,-0.000900269,0,0,0,0,0,39.63,567.596,594278
-0.019165,-0.0756226,1.05231-0.732422,0.244141,-0.244141,0.038,-0.045,-44.73,-0.00386047,-0.00088501,0,0,0,0,0,39.63,567.617,594292
-0.0200806,-0.101624,1.02643-3.479,-0.427246,-0.0610352,0.055,-0.064,-44.73,-0.00382996,-0.000946045,0,0,0,0,0,39.63,567.637,594307
-0.0195923,-0.0236816,0.990356-1.77002,-0.183105,0.610352,0,-0.007,-44.73,-0.00376892,-0.00119019,0,0,0,0,0,39.63,567.657,594338
-0.0237427,-0.0206299,1.000062.50244,-0.0610352,0.549316,-0.005,-0.008,-44.74,-0.00376892,-0.00119019,0,0,0,0,0,39.63,567.677,594352
-0.0343628,-0.0994263,1.014342.31934,0.0610352,0,0.042,-0.071,-44.74,-0.00375366,-0.00125122,0,0,0,0,0,39.63,567.696,594367
0.00268555,0.00524902,1.030030.732422,-0.427246,-0.732422,-0.005,0.03,-44.73,-0.00360107,-0.00149536,0,0,0,0,0,39.63,567.717,594398
-0.0563965,-0.0561523,1.002810.366211,0,-0.12207,-0.004,-0.055,-44.72,-0.00360107,-0.00163269,0,0,0,0,0,39.63,567.738,594412
0.0162354,-0.00305176,0.9838260.427246,0.244141,1.09863,0.009,0.032,-44.73,-0.00360107,-0.00178528,0,0,0,0,0,39.63,567.755,594427
0.00708008,-0.0184937,1.007570.244141,-0.793457,0.427246,0.014,0.015,-44.76,-0.0037384,-0.00190735,0,0,0,0,0,39.63,567.776,594458
-0.0335083,0.0152588,1.051640.305176,-0.366211,0,-0.037,0.011,-44.76,-0.00384521,-0.00190735,0,0,0,0,0,39.63,567.796,594472
-0.0193481,-0.0101929,1.03723-0.244141,-0.732422,0.12207,-0.009,0.002,-44.77,-0.00398254,-0.00190735,0,0,0,0,0,39.63,567.819,594487
-0.0474854,-0.0498657,0.982239-1.40381,-0.610352,0.854492,0,-0.046,-44.78,-0.00419617,-0.00198364,0,0,0,0,0,39.63,567.836,594518
0.0490112,0.144287,1.01160.854492,-1.28174,0.427246,-0.069,0.16,-44.79,-0.00434875,-0.00196838,0,0,0,0,0,39.63,567.858,594532
-0.0402832,-0.0229492,1.04688-1.34277,-0.183105,-0.549316,-0.015,-0.021,-44.79,-0.00454712,-0.00186157,0,0,0,0,0,39.63,567.876,594547
0.0387573,-0.0206299,1.06488-0.244141,0.244141,0.427246,0.039,0.036,-44.79,-0.00497437,-0.00161743,0,0,0,0,0,39.63,567.896,594578
-0.0529175,-0.048645,1.01965-0.854492,0.244141,-0.12207,-0.005,-0.048,-44.79,-0.00514221,-0.00149536,0,0,0,0,0,39.63,567.918,594592
0.0181885,0.012085,1.00421-0.183105,-0.183105,0.183105,0.001,0.043,-44.79,-0.00532532,-0.00137329,0,0,0,0,0,39.63,567.936,594607
-0.0186768,-0.0844727,1.04401-1.40381,0.0610352,0.549316,0.043,-0.049,-44.79,-0.00570679,-0.00111389,0,0,0,0,0,39.63,567.956,594638
-0.00628662,0.00695801,0.984314-0.366211,0.0610352,0.854492,-0.012,0.023,-44.8,-0.00585938,-0.00100708,0,0,0,0,0,39.63,567.976,594652
-0.0258179,-0.0122681,0.9508060.244141,-0.305176,1.15967,-0.012,-0.005,-44.81,-0.00585938,-0.000900269,0,0,0,0,0,39.63,567.996,594667
-0.0136108,-0.0361328,1.016970.305176,-0.305176,1.64795,0.013,-0.011,-44.85,-0.00592041,-0.000900269,0,0,0,0,0,39.63,568.016,594698
-0.0232544,-0.00183105,1.03180.183105,-0.732422,3.2959,-0.018,0.006,-44.89,-0.00595093,-0.000900269,0,0,0,0,0,39.63,568.036,594712
-0.0177002,-0.0658569,1.04138-1.34277,-0.0610352,6.7749,0.03,-0.034,-44.98,-0.00596619,-0.000915527,0,0,0,0,0,39.63,568.056,594727
-0.0499268,-0.0442505,1.011541.83105,-0.854492,10.9863,-0.006,-0.043,-45.27,-0.00596619,-0.000961304,0,0,0,0,0,39.63,568.076,594758
-0.0133057,0.00732422,1.016541.34277,-1.2207,13.7939,-0.017,0.018,-45.47,-0.00596619,-0.000991821,0,0,0,0,0,39.63,568.096,594773
-0.0361938,-0.0894165,1.07147-0.0610352,-0.12207,14.3433,0.036,-0.064,-45.69,-0.00595093,-0.00105286,0,0,0,0,0,39.62,568.119,594788
0.000610352,0.0452881,1.00018-0.366211,-1.89209,17.0288,-0.035,0.053,-46.14,-0.00587463,-0.00123596,0,0,0,0,0,39.62,568.136,594818
-0.026123,0.0294189,1.00842-0.183105,-0.976562,17.334,-0.042,0.023,-46.41,-0.00590515,-0.00126648,0,0,0,0,0,39.62,568.158,594833
-0.00970459,0.0292969,1.005130.366211,-0.854492,17.8833,-0.03,0.034,-46.67,-0.00598145,-0.00123596,0,0,0,0,0,39.62,568.176,594848
-0.0177612,-0.0202026,1.00482-0.915527,-0.549316,15.564,0,-0.006,-47.19,-0.00613403,-0.00112915,0,0,0,0,0,39.62,568.196,594878
0.00341797,0.0268555,0.991089-0.305176,-0.854492,14.7095,-0.02,0.041,-47.41,-0.00621033,-0.0010376,0,0,0,0,0,39.62,568.216,594893
0.00616455,0.0186157,1.01343-0.671387,-1.34277,14.8926,-0.012,0.037,-47.64,-0.00630188,-0.000900269,0,0,0,0,0,39.62,568.236,594908
-0.0325317,-0.0171509,1.017150.12207,-0.0610352,12.0239,-0.012,-0.014,-48.05,-0.00660706,-0.00050354,0,0,0,0,0,39.62,568.258,594938
-0.0390625,-0.0563965,1.05182-0.12207,-0.427246,12.3901,0.012,-0.045,-48.22,-0.00679016,-0.000335693,0,0,0,0,0,39.62,568.278,594953
-0.00469971,-0.0496826,0.9975590.793457,-0.12207,12.4512,0.031,-0.016,-48.41,-0.00692749,-0.000213623,0,0,0,0,0,39.62,568.296,594968
-0.00195312,-0.0271606,0.997498-0.244141,-1.09863,13.7329,0.015,0.001,-48.79,-0.00704956,-0.00012207,0,0,0,0,0,39.62,568.316,594998
-0.0333862,0.0172119,1.006651.2207,-0.610352,12.4512,-0.038,0.005,-48.98,-0.0071106,-0.000106812,0,0,0,0,0,39.62,568.337,595013
0.00439453,-0.0263062,1.035710.366211,-1.2207,12.6953,0.019,0.006,-49.18,-0.00717163,-0.000106812,0,0,0,0,0,39.62,568.356,595028
0.0408936,0.0405884,1.00092-0.427246,-0.793457,12.9395,-0.008,0.076,-49.58,-0.00721741,-4.57764e-05,0,0,0,0,0,39.62,568.38,595058
-0.0762329,-0.0513916,1.044070.976562,-0.427246,10.6812,-0.014,-0.071,-49.75,-0.00721741,0,0,0,0,0,0,39.62,568.396,595073
-0.0012207,-0.0568848,1.031980.0610352,-0.12207,13.7329,0.039,-0.017,-49.94,-0.00720215,0,0,0,0,0,0,39.62,568.416,595088
-0.0251465,-0.000732422,0.974792-0.12207,0.0610352,10.2539,-0.019,-0.001,-50.31,-0.00695801,6.10352e-05,0,0,0,0,0,39.62,568.436,595118
-0.0563354,0.0131226,1.018310.0610352,-0.183105,10.498,-0.049,-0.015,-50.45,-0.0068512,9.15527e-05,0,0,0,0,0,39.62,568.456,595133
0.0174561,0.00445557,1.020020.366211,0.671387,12.4512,0.004,0.035,-50.64,-0.00679016,0.00012207,0,0,0,0,0,39.62,568.476,595148
-0.0784912,-0.0397949,1.014830.244141,0.0610352,13.7939,-0.021,-0.066,-51.01,-0.00657654,4.57764e-05,0,0,0,0,0,39.62,568.497,595178
0.0582886,0.0192871,0.9739990.244141,-1.40381,14.0991,0.018,0.076,-51.22,-0.00646973,-1.52588e-05,0,0,0,0,0,39.62,568.516,595193
-0.0592041,0.0474243,1.041260.305176,-0.732422,15.3198,-0.077,0.002,-51.44,-0.00640869,-4.57764e-05,0,0,0,0,0,39.62,568.537,595208
-0.0150146,0.00970459,1.009830.0610352,-1.58691,17.4561,-0.02,0.012,-52.17,-0.00648499,-9.15527e-05,0,0,0,0,0,39.62,568.573,595253
-0.0321655,0.038208,1.050051.15967,-0.976562,17.6392,-0.053,0.016,-52.44,-0.00656128,-9.15527e-05,0,0,0,0,0,39.62,568.596,595268
0.0441895,-0.0128784,1.00977-0.854492,-0.610352,17.4561,0.033,0.044,-52.97,-0.00666809,-6.10352e-05,0,0,0,0,0,39.63,568.617,595298
-0.0404053,-0.036377,1.03113-1.52588,0.183105,16.1133,0,-0.036,-53.22,-0.00666809,-3.05176e-05,0,0,0,0,0,39.63,568.638,595313
-0.0302734,0.00244141,1.02936-1.2207,0.427246,14.9536,-0.024,-0.005,-53.44,-0.00668335,-3.05176e-05,0,0,0,0,0,39.63,568.656,595328
-0.0287476,0.00378418,0.970947-0.244141,0.671387,14.2822,-0.024,-0.003,-53.9,-0.00668335,-3.05176e-05,0,0,0,0,0,39.63,568.678,595358
-0.0216675,0.0472412,0.9934081.2207,-0.12207,13.855,-0.054,0.027,-54.11,-0.00672913,-1.52588e-05,0,0,0,0,0,39.63,568.696,595373
-0.0300293,0.00964355,1.006771.15967,-0.549316,13.4888,-0.028,-0.001,-54.32,-0.00682068,1.52588e-05,0,0,0,0,0,39.63,568.716,595388
0.0182495,-0.0203247,1.0177-1.58691,-0.244141,13.4888,0.023,0.021,-54.74,-0.00698853,1.52588e-05,0,0,0,0,0,39.63,568.736,595418
-0.0872192,-0.0205078,1.02045-1.2207,-0.427246,12.6953,-0.037,-0.064,-54.93,-0.00706482,0,0,0,0,0,0,39.63,568.756,595433
-0.0158691,0.0508423,1.022710.427246,-0.610352,13.3667,-0.054,0.034,-55.13,-0.00720215,-4.57764e-05,0,0,0,0,0,39.63,568.777,595448
-0.0360107,0.0500488,1.013791.64795,0.183105,14.5264,-0.065,0.016,-55.55,-0.00747681,-0.000152588,0,0,0,0,0,39.63,568.797,595478
0.0491943,0.00268555,0.9932861.0376,-0.854492,15.1978,0.021,0.059,-55.77,-0.00765991,-0.000167847,0,0,0,0,0,39.63,568.817,595493
-0.0296021,-0.062439,1.007750.183105,0,16.4795,0.031,-0.042,-56.01,-0.00778198,-0.000167847,0,0,0,0,0,39.63,568.839,595508
0.0369873,0.0297852,1.00061-2.50244,-1.09863,15.9302,-0.008,0.065,-56.5,-0.00802612,-0.000198364,0,0,0,0,0,39.63,568.856,595538
-0.0554199,-0.00366211,0.943726-1.15967,-0.0610352,15.5029,-0.031,-0.031,-56.74,-0.00817871,-0.000167847,0,0,0,0,0,39.63,568.878,595553
-0.0032959,0.0460815,0.9954831.15967,-0.793457,15.625,-0.044,0.04,-56.97,-0.00837708,-0.000137329,0,0,0,0,0,39.63,568.897,595568
-0.0479126,-0.00262451,1.01160.854492,-0.244141,15.0146,-0.027,-0.024,-57.42,-0.0087738,-7.62939e-05,0,0,0,0,0,39.63,568.917,595598
0.0158081,-0.039856,0.988281-0.244141,-0.915527,14.8315,0.038,0.009,-57.64,-0.00895691,-6.10352e-05,0,0,0,0,0,39.63,568.937,595613
0.0150757,0.0377197,1.00366-0.427246,-1.34277,14.4043,-0.027,0.05,-57.86,-0.00912476,-1.52588e-05,0,0,0,0,0,39.63,568.957,595628
0.0113525,-0.00762939,0.988037-2.31934,-0.610352,15.8081,0.007,0.023,-58.3,-0.00956726,9.15527e-05,0,0,0,0,0,39.63,568.976,595659
0.0124512,0.0216064,0.9979250.0610352,-0.183105,14.8926,-0.016,0.039,-58.53,-0.00979614,0.000198364,0,0,0,0,0,39.63,568.996,595673
-0.0244141,-0.0154419,1.035582.19727,-0.915527,15.8081,-0.004,-0.011,-58.76,-0.00979614,0.000320435,0,0,0,0,0,39.63,569.016,595688
0.0443115,-0.0299072,1.024290.915527,0.427246,15.625,0.044,0.039,-59.23,-0.00975037,0.000518799,0,0,0,0,0,39.63,569.036,595719
-0.0290527,0.0905151,0.928772-1.58691,-1.0376,13.0615,-0.096,0.035,-59.43,-0.00975037,0.000671387,0,0,0,0,0,39.63,569.056,595733
-0.00115967,0.142212,1.00916-0.610352,-1.09863,13.0615,-0.128,0.088,-59.63,-0.00990295,0.000915527,0,0,0,0,0,39.63,569.078,595748
0.00109863,-0.0145874,0.993774-1.34277,0.244141,13.977,0.008,0.01,-59.84,-0.0101318,0.00120544,0,0,0,0,0,39.63,569.095,595763
-0.0379028,0.00115967,1.052611.58691,0.12207,14.3433,-0.024,-0.014,-60.28,-0.0106201,0.00120544,0,0,0,0,0,39.63,569.116,595793
-0.0534668,-0.0701904,1.00941.15967,-0.610352,15.0146,0.031,-0.064,-60.51,-0.0108643,0.00115967,0,0,0,0,0,39.6,569.136,595808
0.0115967,-0.0465698,1.0542-0.0610352,-0.549316,14.7705,0.042,0.004,-60.96,-0.0112457,0.000930786,0,0,0,0,0,39.6,569.156,595839
-0.0283813,-0.0577393,1.0036-1.40381,-0.610352,16.1743,0.032,-0.036,-61.2,-0.0113678,0.000778198,0,0,0,0,0,39.6,569.176,595853
-0.0012207,0.0671997,1.014710.793457,-0.305176,15.8081,-0.063,0.047,-61.44,-0.0115204,0.000640869,0,0,0,0,0,39.6,569.198,595868
0.0167847,-0.0292358,1.01990.915527,0.0610352,16.1133,0.03,0.016,-61.92,-0.0118561,0.000549316,0,0,0,0,0,39.6,569.217,595899
-0.000366211,-0.00970459,1.025330.610352,0.366211,14.0381,0.005,0.01,-62.14,-0.0119934,0.000549316,0,0,0,0,0,39.6,569.236,595913
-0.0166626,-0.0516357,1.02081-0.488281,-0.0610352,14.5874,0.034,-0.023,-62.35,-0.0121002,0.000534058,0,0,0,0,0,39.6,569.257,595928
-0.0105591,-0.0214233,0.9543460,0.0610352,14.6484,0.011,-0.004,-62.79,-0.0122528,0.000396729,0,0,0,0,0,39.6,569.278,595959
-0.0515747,0.0600586,1.050481.28174,-0.610352,15.686,-0.079,-0.003,-63.26,-0.0123138,0.000320435,0,0,0,0,0,39.6,569.312,595988
-0.0441284,-0.0795898,1.032470.915527,-0.610352,16.0522,0.049,-0.059,-63.5,-0.0123901,0.000244141,0,0,0,0,0,39.6,569.323,596003
0.0259399,-0.0144653,1.004581.40381,-1.0376,15.8691,0.022,0.031,-63.74,-0.0124207,0.000152588,0,0,0,0,0,39.6,569.339,596019
-0.0429688,0.0158691,1.036680.793457,-0.0610352,16.1133,-0.035,-0.016,-64.22,-0.0124969,-0.000152588,0,0,0,0,0,39.6,569.369,596048
0.0316772,-0.0307007,1.040040.305176,-0.183105,16.1133,0.039,0.029,-64.46,-0.0125427,-0.000335693,0,0,0,0,0,39.6,569.384,596063
0.0549316,0.0107422,10.12207,-0.732422,13.7329,0.011,0.067,-64.91,-0.012558,-0.000656128,0,0,0,0,0,39.6,569.412,596093
0.0549316,0.0107422,10.12207,-0.732422,13.7329,0.011,0.067,-64.91,-0.012558,-0.000656128,0,0,0,0,0,39.6,569.424,596093
-0.0332642,0.0510254,1.022030,0.366211,13.7329,-0.062,0.004,-65.12,-0.0125885,-0.000747681,0,0,0,0,0,39.6,569.436,596108
-0.00860596,0.0065918,1.015620.671387,0.976562,13.1226,-0.011,0.008,-65.53,-0.012619,-0.000839233,0,0,0,0,0,39.6,569.458,596139
-0.065918,-0.0437622,1.01270.549316,0.549316,13.6108,0.011,-0.064,-65.73,-0.012619,-0.000869751,0,0,0,0,0,39.6,569.476,596154
-0.00372314,0.0757446,1.002691.58691,0.671387,13.3057,-0.071,0.041,-65.93,-0.0126495,-0.000930786,0,0,0,0,0,39.6,569.496,596168
-0.0340576,0.0534058,1.006291.52588,-0.244141,13.7939,-0.063,0.004,-66.35,-0.0128479,-0.0010376,0,0,0,0,0,39.6,569.516,596199
-0.0500488,0.0236816,0.9979862.01416,-1.28174,14.5264,-0.041,-0.022,-66.57,-0.013031,-0.00109863,0,0,0,0,0,39.6,569.537,596214
-0.041748,-0.0067749,1.080141.40381,-1.09863,16.2964,-0.009,-0.026,-66.8,-0.0132599,-0.00120544,0,0,0,0,0,39.6,569.556,596229
-0.00738525,0.0472412,0.9755861.0376,-1.89209,16.8457,-0.045,0.023,-67.29,-0.0132751,-0.00141907,0,0,0,0,0,39.6,569.576,596259
0.00592041,0.0656128,1.059750.183105,-1.28174,18.3716,-0.057,0.043,-67.57,-0.0133667,-0.00146484,0,0,0,0,0,39.6,569.596,596274
0.00518799,0.0450439,1.012270.366211,-0.244141,16.6016,-0.038,0.033,-67.82,-0.0135345,-0.00146484,0,0,0,0,0,39.6,569.617,596289
0.0324097,0.0561523,1.02740.976562,-0.305176,17.9443,-0.039,0.062,-68.09,-0.0137482,-0.00138855,0,0,0,0,0,39.6,569.636,596304
-0.0136719,0.0357666,1.013790.854492,0.671387,15.9302,-0.037,0.011,-68.59,-0.0142059,-0.0012207,0,0,0,0,0,39.6,569.658,596334
0.017395,0.0043335,1.00482-0.12207,-0.671387,17.0898,0.003,0.029,-68.84,-0.0144653,-0.00111389,0,0,0,0,0,39.6,569.676,596349
-0.0268555,0.0299072,1.020812.19727,0.244141,15.7471,-0.036,-0.003,-69.33,-0.0149384,-0.000915527,0,0,0,0,0,39.6,569.696,596379
-0.0213623,-0.0314331,1.002441.0376,-1.09863,16.7847,0.024,-0.02,-69.58,-0.0151672,-0.000839233,0,0,0,0,0,39.6,569.718,596394
-0.0633545,-0.168152,1.100161.09863,0.793457,15.8081,0.138,-0.105,-69.81,-0.0153046,-0.000839233,0,0,0,0,0,39.6,569.736,596409
-0.0055542,-0.0366211,1.02081-0.244141,-1.52588,16.6016,0.034,-0.006,-70.31,-0.0153198,-0.000915527,0,0,0,0,0,39.6,569.759,596439
-0.079895,0.0224609,1.02960.671387,0,16.2964,-0.045,-0.057,-70.56,-0.0153198,-0.000961304,0,0,0,0,0,39.6,569.776,596454
0.0340576,-0.0148315,1.008480.0610352,-1.46484,18.6157,0.027,0.037,-70.82,-0.0153198,-0.00102234,0,0,0,0,0,39.6,569.797,596469
-0.022522,0.0387573,0.995850.671387,-0.732422,16.2964,-0.041,0,-71.32,-0.0154572,-0.00100708,0,0,0,0,0,39.6,569.817,596499
0.00134277,-0.00286865,1.057190.0610352,-0.549316,17.4561,0.005,0.01,-71.58,-0.0155792,-0.000976562,0,0,0,0,0,39.6,569.837,596514
-0.0324707,0.00775146,1.016970,0.732422,15.8081,-0.014,-0.019,-71.83,-0.0157013,-0.000976562,0,0,0,0,0,39.6,569.856,596529
0.0148315,0.0209961,1.00909-0.366211,-0.183105,17.7612,-0.012,0.029,-72.33,-0.0158844,-0.000961304,0,0,0,0,0,39.6,569.877,596559
-0.043457,-0.0402832,1.027890.305176,-0.549316,17.0288,0.028,-0.044,-72.59,-0.0159454,-0.000961304,0,0,0,0,0,39.6,569.897,596574
-0.0148926,-0.0592651,1.00305-0.305176,-1.09863,18.9209,0.055,-0.022,-72.87,-0.0159454,-0.00100708,0,0,0,0,0,39.6,569.917,596589
-0.0289307,-0.0113525,1.046140.0610352,-1.64795,17.6392,0.005,-0.021,-73.4,-0.0159149,-0.00109863,0,0,0,0,0,39.6,569.936,596619
-0.0470581,-0.00836182,1.04749-0.427246,-1.0376,17.8833,-0.002,-0.038,-73.68,-0.0159149,-0.00117493,0,0,0,0,0,39.6,569.957,596634
0.0291748,-0.0496216,0.981873-0.488281,-0.854492,17.0288,0.058,0.022,-73.93,-0.0158844,-0.00126648,0,0,0,0,0,39.6,569.979,596649
-0.0531006,0.0107422,1.063350.976562,-0.610352,17.0288,-0.022,-0.039,-74.44,-0.0157776,-0.00140381,0,0,0,0,0,39.6,569.998,596679
0.00817871,-0.0473633,1.046080,0.610352,15.8691,0.05,0.003,-74.69,-0.0157318,-0.00151062,0,0,0,0,0,39.6,570.018,596694
0.0316772,0.0111694,0.960266-0.732422,-0.549316,16.6626,0,0.04,-74.93,-0.0156403,-0.00158691,0,0,0,0,0,39.6,570.035,596709
-0.00634766,0.0304565,1.01312-0.366211,-0.793457,16.0522,-0.028,0.009,-75.18,-0.0155792,-0.00163269,0,0,0,0,0,39.6,570.056,596724
0.00830078,0.0361328,0.996094-0.366211,0,18.8599,-0.031,0.025,-75.7,-0.0156097,-0.00178528,0,0,0,0,0,39.6,570.076,596754
-0.00610352,-0.0126953,1.041990,0.366211,18.0664,0.013,0,-75.99,-0.0156555,-0.00186157,0,0,0,0,0,39.6,570.095,596769
-0.059082,-0.0425415,1.02814-0.549316,-0.305176,18.6157,0.029,-0.059,-76.26,-0.015686,-0.00196838,0,0,0,0,0,39.6,570.116,596784
-0.00628662,-0.0618896,1.01898-0.488281,-1.0376,17.6392,0.061,-0.012,-76.8,-0.0157471,-0.0022583,0,0,0,0,0,39.6,570.136,596814
-0.0316772,-0.057373,1.04102-0.671387,-0.915527,17.2119,0.05,-0.035,-77.06,-0.0157013,-0.00244141,0,0,0,0,0,39.63,570.156,596829
0.0310669,0.0267944,0.999573-0.366211,-1.40381,17.4561,-0.017,0.043,-77.58,-0.015625,-0.00280762,0,0,0,0,0,39.63,570.176,596859
-0.0497437,0.00726318,1.04431-0.244141,0.183105,17.1509,-0.016,-0.039,-77.84,-0.015625,-0.00296021,0,0,0,0,0,39.63,570.197,596874
0.0148926,-0.0598145,1.03754-0.671387,-0.12207,16.9067,0.063,0.009,-78.1,-0.0155945,-0.00314331,0,0,0,0,0,39.63,570.217,596889
-0.020874,0.0322266,0.998169-0.549316,-0.427246,15.7471,-0.034,-0.007,-78.59,-0.0153656,-0.00314331,0,0,0,0,0,39.63,570.236,596919
0.0055542,-6.10352e-05,0.981384-1.0376,-0.366211,16.6016,0.001,0.012,-78.83,-0.015274,-0.00314331,0,0,0,0,0,39.63,570.256,596934
-0.0137939,0.0324097,1.035890.549316,0.610352,16.4185,-0.033,0,-79.08,-0.0151978,-0.00314331,0,0,0,0,0,39.63,570.277,596949
-0.0189819,0.0215454,1.022640.183105,-0.366211,16.2964,-0.023,-0.007,-79.32,-0.015152,-0.00314331,0,0,0,0,0,39.63,570.296,596964
0.017395,0.0622559,1.023860.366211,-0.427246,15.8691,-0.057,0.035,-79.83,-0.0151825,-0.00317383,0,0,0,0,0,39.63,570.316,596994
-0.0327148,-0.00262451,1.060120.12207,-0.854492,14.9536,-0.002,-0.025,-80.05,-0.0152588,-0.00317383,0,0,0,0,0,39.63,570.336,597009
0.0540771,-0.00195312,0.974792-0.732422,-0.671387,17.0898,0.011,0.059,-80.54,-0.0152283,-0.00341797,0,0,0,0,0,39.63,570.358,597039
0.00439453,0.0125122,1.00604-0.244141,-0.488281,16.0522,-0.011,0.012,-80.78,-0.0151672,-0.00350952,0,0,0,0,0,39.63,570.378,597054
-0.0684814,0.0170288,1.04181-0.671387,-0.366211,16.9067,-0.027,-0.058,-81.02,-0.0151367,-0.00364685,0,0,0,0,0,39.63,570.396,597069
0.0177612,-0.0604248,1.0174-0.427246,0.183105,17.1509,0.062,0.014,-81.54,-0.0149994,-0.00389099,0,0,0,0,0,39.63,570.416,597100
-0.0489502,0.00250244,1.03455-0.0610352,-0.183105,17.395,-0.009,-0.042,-81.81,-0.0148468,-0.00401306,0,0,0,0,0,39.63,570.436,597114
-0.0305176,-0.0114746,1.01648-0.549316,0.305176,18.6768,0.007,-0.025,-82.08,-0.0147095,-0.00418091,0,0,0,0,0,39.63,570.456,597129
-0.0263062,0.0305176,1.01202-0.305176,-0.793457,19.4092,-0.033,-0.016,-82.65,-0.014389,-0.00450134,0,0,0,0,0,39.63,570.477,597160
-0.0231934,-0.0106201,1.02039-0.549316,-1.2207,19.2261,0.007,-0.018,-82.94,-0.0142517,-0.00466919,0,0,0,0,0,39.63,570.496,597174
-0.0388184,0.00622559,0.99707-1.0376,-0.488281,19.6533,-0.011,-0.031,-83.24,-0.0142517,-0.00488281,0,0,0,0,0,39.63,570.516,597189
0.0109863,0.0352783,0.996948-0.610352,-1.28174,18.9209,-0.034,0.02,-83.53,-0.0142822,-0.00509644,0,0,0,0,0,39.63,570.536,597204
-0.00506592,0.148132,0.981934-0.915527,-1.2207,18.9209,-0.149,0.015,-84.1,-0.0144806,-0.00531006,0,0,0,0,0,39.63,570.556,597234
0.045166,-0.0356445,0.999695-1.40381,-1.09863,17.8223,0.038,0.046,-84.37,-0.0147095,-0.00526428,0,0,0,0,0,39.63,570.576,597249
0.0280151,-0.0479126,1.00598-1.09863,-0.610352,16.6016,0.048,0.028,-84.9,-0.0150757,-0.00511169,0,0,0,0,0,39.63,570.597,597280
-0.0283203,0.00402832,0.994934-0.976562,-0.0610352,16.9678,-0.008,-0.022,-85.15,-0.015213,-0.0050354,0,0,0,0,0,39.63,570.618,597294
0.0184326,0.0967407,0.991333-0.12207,-0.549316,16.1133,-0.097,0.031,-85.4,-0.0154114,-0.00494385,0,0,0,0,0,39.63,570.636,597309
-0.0274048,0.0636597,1.032040.610352,0,17.0288,-0.068,-0.017,-85.88,-0.0159454,-0.00476074,0,0,0,0,0,39.61,570.656,597340
-0.00695801,-0.0493774,1.01093-0.671387,-0.610352,17.6392,0.046,-0.004,-86.14,-0.0162354,-0.00476074,0,0,0,0,0,39.61,570.676,597354
-0.00219727,0.108215,1.017523.17383,-0.671387,17.0288,-0.11,0.009,-86.41,-0.016571,-0.00476074,0,0,0,0,0,39.61,570.696,597369
-0.0341187,0.0120239,0.9692380.244141,-0.0610352,17.395,-0.015,-0.028,-86.94,-0.017334,-0.004776,0,0,0,0,0,39.61,570.717,597400
0.0319214,-0.0137939,1.08905-0.732422,-0.549316,18.0054,0.013,0.036,-87.2,-0.017334,-0.00479126,0,0,0,0,0,39.61,570.736,597414
-0.0255737,0.0241089,1.03412-3.05176,-1.34277,17.6392,-0.027,-0.019,-87.48,-0.0173492,-0.00479126,0,0,0,0,0,39.61,570.756,597429
0.00714111,-0.0256958,1.09363-3.41797,0.183105,18.4937,0.021,0.01,-88.01,-0.0174408,-0.00479126,0,0,0,0,0,39.61,570.776,597460
0.0615845,0.0562744,1.03998-2.38037,-0.427246,16.8457,-0.058,0.067,-88.28,-0.0175171,-0.00473022,0,0,0,0,0,39.61,570.796,597474
-0.0846558,-0.00585938,1.006590.671387,0.488281,13.7329,0,-0.081,-88.5,-0.0176392,-0.00469971,0,0,0,0,0,39.61,570.818,597489
0.00787354,-0.0358887,1.001220.366211,0.671387,15.2588,0.032,0.01,-88.96,-0.0177002,-0.00466919,0,0,0,0,0,39.61,570.838,597520
-0.0388184,0.0526733,0.980774-0.183105,-0.244141,15.1978,-0.057,-0.034,-89.19,-0.0177307,-0.00465393,0,0,0,0,0,39.61,570.856,597534
-0.0323486,-0.00811768,1.00995-0.854492,-0.793457,16.4185,0.003,-0.027,-89.43,-0.0177765,-0.00468445,0,0,0,0,0,39.61,570.876,597549
-0.0444946,0.031311,1.03943-1.09863,-1.58691,17.1509,-0.036,-0.04,-89.95,-0.0178375,-0.00479126,0,0,0,0,0,39.61,570.896,597580
-0.00415039,0.0458984,0.980042-1.83105,-2.50244,17.6392,-0.051,0,-90.22,-0.0179138,-0.00488281,0,0,0,0,0,39.61,570.917,597594
0.0183105,0.0209961,1.08551-0.0610352,-1.2207,18.7378,-0.026,0.021,-90.76,-0.0182495,-0.00508118,0,0,0,0,0,39.61,570.94,597624
0.0183105,0.0209961,1.08551-0.0610352,-1.2207,18.7378,-0.026,0.021,-90.76,-0.0182495,-0.00508118,0,0,0,0,0,39.61,570.956,597624
0.0289307,-0.0330811,0.94342-1.46484,-1.34277,19.4092,0.027,0.032,-91.32,-0.0185699,-0.00527954,0,0,0,0,0,39.61,570.976,597654
0.0499268,0.0326538,1.01782-1.95312,-1.46484,18.3716,-0.039,0.051,-91.61,-0.0187225,-0.00531006,0,0,0,0,0,39.61,570.996,597670
0.0222778,0.0374146,1.00824-1.83105,-0.793457,16.7236,-0.044,0.023,-92.11,-0.0191193,-0.00538635,0,0,0,0,0,39.61,571.017,597700
0.0291748,-0.0438843,0.984497-0.854492,-0.183105,15.686,0.036,0.032,-92.36,-0.0193176,-0.00538635,0,0,0,0,0,39.61,571.036,597715
-0.0231934,0.0146484,0.9818120.244141,-0.549316,15.1367,-0.019,-0.022,-92.59,-0.0195312,-0.00537109,0,0,0,0,0,39.61,571.056,597730
-0.0164795,-0.110535,1.02118-0.976562,-0.427246,16.1133,0.104,-0.008,-93.04,-0.0199585,-0.00549316,0,0,0,0,0,39.61,571.077,597760
0.0223389,0.00280762,0.99646-1.15967,-0.732422,14.8926,-0.01,0.023,-93.27,-0.0200806,-0.00556946,0,0,0,0,0,39.61,571.096,597775
-0.0379028,0.046814,1.01642-0.915527,-1.09863,13.4888,-0.051,-0.038,-93.48,-0.0202484,-0.00564575,0,0,0,0,0,39.61,571.117,597790
0.0490112,0.0388794,0.960266-0.183105,-0.915527,15.0757,-0.049,0.047,-93.94,-0.0207367,-0.00585938,0,0,0,0,0,39.61,571.137,597820
-0.0429077,-0.0473633,1.059331.15967,-0.305176,14.4653,0.042,-0.037,-94.17,-0.0210114,-0.00595093,0,0,0,0,0,39.61,571.158,597835
-0.0239868,-0.076355,1.076780.732422,0.12207,15.625,0.07,-0.016,-94.39,-0.0211945,-0.006073,0,0,0,0,0,39.61,571.177,597850
-0.00421143,-0.112488,1.039550.244141,0.305176,14.7095,0.105,0.006,-94.84,-0.0214691,-0.006073,0,0,0,0,0,39.61,571.198,597880
-0.0183105,-0.0509033,1.07123-0.671387,0.976562,15.9912,0.045,-0.012,-95.07,-0.0214844,-0.006073,0,0,0,0,0,39.61,571.217,597895
-0.0249634,-0.0846558,1.02789-0.549316,0.915527,15.1367,0.079,-0.015,-95.31,-0.0214081,-0.006073,0,0,0,0,0,39.61,571.237,597910
-0.0437012,-0.0394897,0.993835-0.0610352,0.427246,15.4419,0.036,-0.038,-95.53,-0.0212555,-0.00610352,0,0,0,0,0,39.61,571.255,597925
-0.0127563,0.00750732,1.04950.854492,0.366211,15.8081,-0.013,-0.011,-96.01,-0.020813,-0.0062561,0,0,0,0,0,39.61,571.276,597955
-0.0490112,-0.0010376,0.999146-0.671387,-1.28174,16.2964,0,-0.046,-96.26,-0.0205841,-0.00639343,0,0,0,0,0,39.61,571.296,597970
0.0153809,0.0457764,1.00171-0.427246,-1.28174,16.6016,-0.054,0.012,-96.51,-0.0203857,-0.00653076,0,0,0,0,0,39.61,571.316,597985
-0.045166,-0.00469971,1.023070.244141,-1.15967,16.7847,0.002,-0.043,-97.01,-0.0200653,-0.00683594,0,0,0,0,0,39.61,571.336,598015
0.00549316,-0.0574951,1.030090.0610352,-0.0610352,18.0054,0.049,0.014,-97.28,-0.0198517,-0.00701904,0,0,0,0,0,39.61,571.356,598030
0.0141602,-0.0119019,1.00385-0.854492,-0.305176,16.4185,0.002,0.016,-97.79,-0.0193787,-0.00721741,0,0,0,0,0,39.61,571.376,598060
-0.0480347,0.0335083,1.0343-1.28174,0.12207,15.8691,-0.034,-0.051,-98.03,-0.0191498,-0.00732422,0,0,0,0,0,39.61,571.396,598075
0.0183105,0.0158691,0.94873-1.52588,0.427246,16.7236,-0.025,0.016,-98.27,-0.0189667,-0.00744629,0,0,0,0,0,39.61,571.416,598090
-0.0603638,-0.0455933,1.04584-0.366211,1.09863,16.9067,0.046,-0.051,-98.77,-0.0185394,-0.00765991,0,0,0,0,0,39.61,571.438,598120
0.00927734,0.0128784,0.967285-0.976562,-0.915527,17.5171,-0.021,0.008,-99.03,-0.0182648,-0.0078125,0,0,0,0,0,39.61,571.456,598135
-0.0283813,-0.0324707,0.977661-1.40381,0.244141,15.3809,0.028,-0.02,-99.27,-0.0179901,-0.00798035,0,0,0,0,0,39.61,571.476,598150
-0.0352783,0.0661011,1.00787-0.854492,-0.793457,15.564,-0.067,-0.043,-99.5,-0.017746,-0.00817871,0,0,0,0,0,39.61,571.496,598165
0.00970459,-0.0536499,1.055240.0610352,0.427246,17.0288,0.042,0.021,-99.98,-0.0171814,-0.00866699,0,0,0,0,0,39.61,571.527,598195
-0.0505981,-0.126587,1.071111.64795,0.671387,17.4561,0.125,-0.024,-100.49,-0.0163269,-0.00917053,0,0,0,0,0,39.61,571.556,598225
0.029541,-0.0248413,0.955994-1.28174,-0.183105,18.0054,0.01,0.035,-101.05,-0.0151825,-0.00970459,0,0,0,0,0,39.61,571.576,598255
-0.0401611,0.0438232,0.994629-0.610352,0.12207,18.0664,-0.043,-0.046,-101.32,-0.0146332,-0.00994873,0,0,0,0,0,39.61,571.596,598270
0.0211182,-0.00805664,1.024290.732422,0.488281,18.3105,-0.004,0.024,-101.86,-0.0136566,-0.0105286,0,0,0,0,0,39.61,571.616,598300
-0.0465088,0.0206909,0.987366-0.0610352,-0.549316,19.165,-0.018,-0.047,-102.15,-0.0136566,-0.0108185,0,0,0,0,0,39.61,571.638,598315
0.00421143,0.0134277,0.9660030,-0.976562,18.1274,-0.021,0.003,-102.44,-0.0136871,-0.0111542,0,0,0,0,0,39.61,571.656,598330
-0.0396729,-0.00299072,1.05109-0.183105,-0.12207,17.7002,0.003,-0.035,-102.7,-0.0137329,-0.0115051,0,0,0,0,0,39.61,571.676,598345
0.0585327,-0.0932007,1.00049-1.89209,-0.366211,18.1885,0.068,0.08,-103.25,-0.0136414,-0.0122528,0,0,0,0,0,39.59,571.696,598375
-0.0510864,0.0180054,0.9949950,-0.732422,17.0288,-0.014,-0.052,-103.51,-0.0135193,-0.0126038,0,0,0,0,0,39.59,571.716,598390
-0.0306396,0.0532837,0.9707031.28174,-1.83105,17.8223,-0.052,-0.04,-103.77,-0.013443,-0.0130005,0,0,0,0,0,39.59,571.736,598405
0.0617065,0.0734253,1.021910.915527,-0.0610352,15.8691,-0.094,0.043,-104.29,-0.013382,-0.0137482,0,0,0,0,0,39.59,571.76,598435
-0.0232544,-0.0687256,1.03888-1.46484,-0.305176,15.0757,0.064,-0.003,-104.51,-0.0133972,-0.0140686,0,0,0,0,0,39.59,571.776,598450
-0.000549316,0.0159912,1.00537-0.915527,0.244141,15.3198,-0.023,-0.002,-104.75,-0.013382,-0.0144043,0,0,0,0,0,39.59,571.797,598465
-0.00402832,0.0119629,0.9789430.366211,0.427246,13.3667,-0.018,-0.005,-105.18,-0.0133514,-0.0149384,0,0,0,0,0,39.59,571.816,598495
-0.0440063,0.0457764,1.016541.34277,0.183105,14.5874,-0.04,-0.052,-105.39,-0.0133667,-0.0152283,0,0,0,0,0,39.59,571.836,598510
0.0153809,-0.00891113,1.001461.28174,0.12207,14.6484,-0.003,0.019,-105.61,-0.0134125,-0.0155487,0,0,0,0,0,39.59,571.856,598525
-0.0428467,-0.00286865,1.009950.244141,-1.09863,16.7847,0.006,-0.037,-106.06,-0.0136566,-0.0162659,0,0,0,0,0,39.59,571.876,598555
-0.038147,0.0258179,1.05902-0.0610352,-0.305176,18.4326,-0.021,-0.04,-106.33,-0.0138092,-0.0167084,0,0,0,0,0,39.59,571.896,598570
0.0373535,-0.0231934,0.996582-1.2207,-0.732422,19.5312,0.004,0.045,-106.62,-0.0139771,-0.0171356,0,0,0,0,0,39.59,571.916,598585
-0.0216675,0.0383301,1.02399-0.915527,-1.0376,19.4702,-0.037,-0.029,-107.21,-0.0143738,-0.0179596,0,0,0,0,0,39.59,571.945,598615
0.00177002,-0.0341797,1.01593-0.244141,-0.854492,18.9209,0.024,0.014,-107.49,-0.0146179,-0.0183868,0,0,0,0,0,39.59,571.956,598630
0.00219727,-0.0116577,1.01691-0.732422,-1.0376,18.9209,0.003,0.007,-108.06,-0.0149689,-0.0191345,0,0,0,0,0,39.59,571.983,598661
-0.00891113,0.0477295,0.983276-0.183105,-0.854492,19.2871,-0.049,-0.021,-108.35,-0.015152,-0.0195007,0,0,0,0,0,39.59,571.996,598675
0.0366211,0.0464478,0.994263-0.244141,-0.854492,20.1416,-0.062,0.021,-108.64,-0.0154114,-0.0198822,0,0,0,0,0,39.59,572.018,598690
-0.0105591,0.0619507,0.994568-0.488281,-0.610352,19.104,-0.062,-0.028,-108.94,-0.0157623,-0.0202484,0,0,0,0,0,39.59,572.036,598705
-0.0256958,-0.00524902,1.01697-0.0610352,-0.427246,18.5547,0.006,-0.02,-109.5,-0.016571,-0.0211334,0,0,0,0,0,39.59,572.056,598735
0.0045166,-0.0210571,0.97290.366211,-0.610352,18.0054,0.011,0.013,-109.77,-0.016571,-0.0216064,0,0,0,0,0,39.59,572.076,598750
-0.00805664,-0.131592,1.052920.183105,0.0610352,17.8223,0.119,0.039,-110.04,-0.0164948,-0.0220337,0,0,0,0,0,39.59,572.096,598765
0.0375977,-0.0057373,0.975464-0.671387,-1.15967,17.4561,-0.014,0.038,-110.59,-0.016098,-0.0228271,0,0,0,0,0,39.59,572.116,598795
-0.00506592,0.0856323,0.944885-0.732422,-1.28174,15.8081,-0.084,-0.033,-110.84,-0.0159607,-0.0232239,0,0,0,0,0,39.59,572.136,598810
0.0153809,0.0336304,1.01691-1.58691,-1.40381,16.9678,-0.044,0.003,-111.08,-0.0158997,-0.0236359,0,0,0,0,0,39.59,572.156,598825
0.0273438,0.0905151,0.9572140.610352,-1.58691,16.9678,-0.1,-0.006,-111.59,-0.0158386,-0.0244904,0,0,0,0,0,39.59,572.176,598855
-0.020752,-0.0894165,1.019230.0610352,-1.0376,16.8457,0.084,0.015,-111.84,-0.0158386,-0.0249329,0,0,0,0,0,39.63,572.197,598870
0.0333862,0.0183716,0.9998170.12207,-1.89209,17.8833,-0.035,0.025,-112.39,-0.0158691,-0.0249176,0,0,0,0,0,39.63,572.218,598901
-0.0137939,-0.00933838,1.00293-1.15967,-1.2207,17.395,0.007,-0.008,-112.65,-0.0159302,-0.0248871,0,0,0,0,0,39.63,572.236,598915
-0.0304565,0.00982666,1.00769-1.28174,-1.64795,18.1274,-0.003,-0.031,-112.92,-0.0159912,-0.0248871,0,0,0,0,0,39.63,572.257,598930
0.0285034,-0.00622559,1.004880.12207,-0.427246,17.334,-0.011,0.029,-113.44,-0.0162201,-0.0249481,0,0,0,0,0,39.63,572.278,598961
0.026001,0.0391235,0.9788820.976562,-1.40381,17.9443,-0.051,0.008,-113.7,-0.0164032,-0.0249481,0,0,0,0,0,39.63,572.296,598975
-0.00250244,-0.0497437,1.041930.610352,-0.12207,16.7236,0.041,0.018,-113.97,-0.016571,-0.0249329,0,0,0,0,0,39.63,572.317,598990
-0.0135498,0.00427246,1.041260.427246,-0.183105,16.9678,-0.003,-0.013,-114.22,-0.0167389,-0.0249329,0,0,0,0,0,39.63,572.337,599005
-0.0462646,-0.0388794,0.994141-0.549316,-0.0610352,17.334,0.049,-0.025,-114.75,-0.016861,-0.0248871,0,0,0,0,0,39.63,572.357,599035
-0.0275269,0.034729,1.027830.183105,-0.488281,17.7612,-0.025,-0.039,-115,-0.0168762,-0.0249176,0,0,0,0,0,39.63,572.377,599050
-0.0147095,0.0488892,1.02673-0.366211,-0.854492,19.043,-0.043,-0.033,-115.29,-0.0169373,-0.0249786,0,0,0,0,0,39.63,572.397,599065
-0.0112915,0.00946045,1.056091.0376,-0.610352,16.7236,-0.008,-0.014,-115.81,-0.0170135,-0.0250702,0,0,0,0,0,39.63,572.417,599095
-0.0371704,-0.0769653,1.00916-1.09863,-1.2207,17.8223,0.081,0,-116.07,-0.0169525,-0.0250702,0,0,0,0,0,39.63,572.435,599111
0.0101318,-0.00189209,0.990295-0.610352,-0.610352,17.7002,-0.007,0.008,-116.62,-0.0168304,-0.0250702,0,0,0,0,0,39.63,572.459,599141
-0.0109253,-0.00231934,1.068480.976562,-0.305176,18.1274,0.001,-0.01,-116.89,-0.0168304,-0.0250702,0,0,0,0,0,39.63,572.476,599156
-0.010498,-0.0176392,1.0816-0.793457,0.549316,18.7988,0.015,-0.002,-117.17,-0.0168304,-0.0250702,0,0,0,0,0,39.63,572.497,599171
-0.0271606,-0.0413208,1.03699-0.732422,-0.183105,15.9912,0.044,-0.006,-117.66,-0.0168915,-0.0250702,0,0,0,0,0,39.63,572.517,599201
-0.0112305,0.0280762,1.01562-1.09863,-0.488281,16.5405,-0.024,-0.024,-117.91,-0.0169067,-0.0251007,0,0,0,0,0,39.63,572.536,599216
0.0391846,0.0736084,0.99115-0.0610352,-0.732422,15.8081,-0.088,-0.001,-118.15,-0.016983,-0.0251312,0,0,0,0,0,39.63,572.555,599231
-0.0413208,-0.046814,0.981201-0.854492,-0.671387,16.1743,0.055,-0.015,-118.39,-0.0171051,-0.025177,0,0,0,0,0,39.63,572.578,599246
0.0506592,0.0237427,1.029850.305176,-1.2207,15.8081,-0.05,0.031,-118.89,-0.0172729,-0.0253296,0,0,0,0,0,39.63,572.597,599276
-0.0376587,0.00177002,0.998657-0.854492,-1.58691,15.9302,0.011,-0.035,-119.12,-0.0174103,-0.0254059,0,0,0,0,0,39.63,572.616,599291
0.0227661,0.036499,1.033690.732422,-1.34277,16.2964,-0.047,0,-119.62,-0.017807,-0.0256805,0,0,0,0,0,39.63,572.64,599321
-0.0115967,-0.0487671,1.101620,0.0610352,16.1743,0.043,0.012,-119.86,-0.0180359,-0.0256805,0,0,0,0,0,39.63,572.656,599336
0.0323486,0.0250244,0.9861450,-0.671387,15.1367,-0.041,0.012,-120.35,-0.0184937,-0.0256042,0,0,0,0,0,39.63,572.696,599366
-0.0577393,-0.00396729,1.03418-1.58691,0.671387,16.1743,0.028,-0.05,-120.81,-0.019165,-0.025589,0,0,0,0,0,39.59,572.716,599396
0.0361328,0.0159302,0.9953610.366211,1.09863,14.8926,-0.036,0.019,-121.05,-0.019516,-0.0256195,0,0,0,0,0,39.59,572.74,599411
-0.039856,-0.0791016,1.041630.671387,0.549316,15.0146,0.084,0.004,-121.27,-0.0198364,-0.0256195,0,0,0,0,0,39.59,572.756,599426
0.0371094,-0.0307007,0.98645-0.305176,-0.183105,16.2354,0.002,0.045,-121.76,-0.0202026,-0.0256042,0,0,0,0,0,39.59,572.776,599456
-0.0203857,-0.0111694,1.01709-0.427246,-0.549316,15.3198,0.015,-0.013,-122,-0.0202026,-0.0255737,0,0,0,0,0,39.59,572.796,599471
-0.0459595,0.0499878,1.01447-0.915527,-1.2207,16.9067,-0.022,-0.068,-122.25,-0.0202026,-0.025589,0,0,0,0,0,39.59,572.816,599486
-0.0108643,-0.0583496,1.02795-0.671387,-0.0610352,15.8081,0.05,0.019,-122.75,-0.0204315,-0.0257263,0,0,0,0,0,39.59,572.837,599516
-0.0250854,-0.0588379,1.065980.183105,0.366211,16.3574,0.057,0.007,-122.99,-0.0204773,-0.0257263,0,0,0,0,0,39.59,572.856,599531
0.0463867,-0.0321655,1.03961-0.854492,-1.0376,16.6626,-0.003,0.053,-123.24,-0.0204926,-0.0256805,0,0,0,0,0,39.59,572.876,599546
0.00201416,0.071167,0.960999-0.244141,-0.854492,16.4185,-0.065,-0.041,-123.71,-0.0205383,-0.0255432,0,0,0,0,0,39.59,572.896,599576
0.0255737,0.0514526,1.049131.15967,-0.427246,16.7847,-0.061,-0.011,-123.97,-0.0206757,-0.0255127,0,0,0,0,0,39.59,572.915,599591
-0.0368652,-0.0620728,1.051331.0376,0.549316,17.5171,0.067,0,-124.23,-0.0207977,-0.0254974,0,0,0,0,0,39.59,572.936,599606
0.0159912,0.0621948,0.9809570.488281,-0.976562,17.0898,-0.064,-0.025,-124.77,-0.0210266,-0.025528,0,0,0,0,0,39.59,572.956,599636
-0.0560913,0.0161743,1.059690.244141,-0.488281,18.5547,0.014,-0.058,-125.04,-0.0212097,-0.0256195,0,0,0,0,0,39.59,572.976,599651
0.0454712,0.0285034,1.01849-0.0610352,-0.793457,19.4092,-0.053,0.017,-125.33,-0.0214233,-0.0257263,0,0,0,0,0,39.59,572.996,599666
-0.0402222,-0.0020752,1.058531.2207,-0.488281,18.2495,0.021,-0.035,-125.88,-0.0216522,-0.0259094,0,0,0,0,0,39.59,573.017,599696
-0.0441284,-0.0421143,1.072141.0376,-0.0610352,18.7988,0.056,-0.014,-126.16,-0.0216522,-0.0260315,0,0,0,0,0,39.59,573.037,599711
0.0482788,-0.0480347,1.01447-0.0610352,0.0610352,17.8223,0.007,0.063,-126.43,-0.0216217,-0.0261078,0,0,0,0,0,39.59,573.056,599726
-0.0569458,-0.00012207,1.0545-0.183105,-0.488281,17.4561,0.031,-0.049,-126.93,-0.0216217,-0.0262756,0,0,0,0,0,39.59,573.076,599756
0.0581665,0.0307617,1.019470,0.488281,18.1274,-0.062,0.023,-127.2,-0.021637,-0.0263977,0,0,0,0,0,39.59,573.096,599771
-0.0122681,-0.00964355,0.9765620.854492,0.549316,17.6392,0.012,-0.008,-127.47,-0.021698,-0.0265198,0,0,0,0,0,39.59,573.116,599786
0.0133667,-0.0402832,1.035640.305176,0.183105,20.2026,0.021,0.031,-128.04,-0.0216827,-0.0267792,0,0,0,0,0,39.59,573.136,599816
-0.0137329,-0.0415039,1.0047-0.183105,-0.12207,18.7378,0.039,0.01,-128.33,-0.0216217,-0.026886,0,0,0,0,0,39.59,573.156,599831
-0.027771,-0.0078125,1.0119-0.427246,-1.64795,19.8975,0.021,-0.021,-128.61,-0.0214996,-0.0269928,0,0,0,0,0,39.59,573.177,599846
0.0344849,-0.0406494,1.049870.0610352,-0.244141,20.3857,0.007,0.048,-129.23,-0.0211182,-0.0272217,0,0,0,0,0,39.59,573.196,599876
-0.0359497,-0.0566406,1.02148-0.610352,-1.2207,21.1792,0.065,0.003,-129.54,-0.0208435,-0.027298,0,0,0,0,0,39.61,573.216,599891
0.019043,0.0305786,1.00513-0.671387,-1.70898,20.9961,-0.037,-0.009,-129.86,-0.0205536,-0.0273743,0,0,0,0,0,39.61,573.236,599906
-0.0131226,0.00531006,1.02087-0.244141,-0.976562,18.2495,0.003,-0.019,-130.43,-0.0200653,-0.0276337,0,0,0,0,0,39.61,573.257,599936
0.0307617,-0.0253296,1.06903-0.610352,-0.0610352,17.5171,-0.002,0.033,-130.7,-0.0198364,-0.0277557,0,0,0,0,0,39.61,573.276,599951
0.00927734,-0.022583,1.021670.244141,-0.488281,17.4561,0.01,0.015,-130.96,-0.0198364,-0.0278625,0,0,0,0,0,39.61,573.296,599966
-0.00476074,0.0232544,0.9631350.305176,-0.732422,18.4326,-0.015,-0.024,-131.5,-0.0196991,-0.0279846,0,0,0,0,0,39.61,573.316,599996
0.0131226,0.0592651,1.024110.244141,-0.854492,17.2119,-0.053,-0.035,-131.75,-0.0196533,-0.0280914,0,0,0,0,0,39.61,573.336,600011
-0.0316772,-0.0189819,1.02209-0.732422,-0.610352,17.1509,0.034,-0.016,-132.01,-0.0196381,-0.0282288,0,0,0,0,0,39.61,573.356,600026
0.0286255,-0.0209961,0.987122-0.305176,-0.427246,16.1743,-0.004,0.029,-132.52,-0.0196075,-0.0285492,0,0,0,0,0,39.61,573.378,600056
-0.0180664,0.0263672,1.026860.305176,-1.09863,17.4561,-0.007,-0.037,-132.77,-0.0196075,-0.0287018,0,0,0,0,0,39.61,573.398,600071
0.0307007,0.0219116,1.02167-0.0610352,-0.610352,17.0898,-0.037,0.001,-133.03,-0.0196381,-0.0289001,0,0,0,0,0,39.61,573.417,600086
-0.0205688,-0.0340576,1.06189-0.0610352,-0.549316,16.0522,0.038,0.002,-133.51,-0.0197601,-0.0289001,0,0,0,0,0,39.61,573.437,600116
0.0186157,-0.0280151,1.03906-0.549316,-0.427246,17.334,0.007,0.026,-133.77,-0.0197906,-0.0288696,0,0,0,0,0,39.61,573.456,600131
-0.0170288,-0.00738525,0.9656980.793457,-0.244141,15.7471,0.017,-0.013,-134.01,-0.0198059,-0.0288391,0,0,0,0,0,39.61,573.476,600146
-0.0351562,-0.0167847,1.04254-0.12207,-0.793457,18.0054,0.037,-0.019,-134.52,-0.0196838,-0.0288239,0,0,0,0,0,39.61,573.5,600176
0.0174561,0.0270386,0.9796140.183105,-0.671387,15.9912,-0.03,-0.012,-134.77,-0.019577,-0.0288239,0,0,0,0,0,39.61,573.518,600191
0.0174561,0.0270386,0.9796140.183105,-0.671387,15.9912,-0.03,-0.012,-134.77,-0.019577,-0.0288239,0,0,0,0,0,39.61,573.536,600191
0.0174561,0.0270386,0.9796140.183105,-0.671387,15.9912,-0.03,-0.012,-134.77,-0.019577,-0.0288239,0,0,0,0,0,39.61,573.558,600191
0.00219727,0.0452881,0.995972-0.427246,-1.77002,15.9912,-0.032,-0.036,-135.01,-0.0195312,-0.0288544,0,0,0,0,0,39.61,573.577,600206
-0.00939941,-0.053894,0.949097-0.976562,-1.34277,16.6016,0.046,0.026,-135.75,-0.0194092,-0.0290833,0,0,0,0,0,39.61,573.596,600266
-0.017395,0.0115967,1.00909-1.28174,-0.854492,15.564,0.006,-0.027,-136.48,-0.0195312,-0.02948,0,0,0,0,0,39.61,573.616,600296
0.0132446,0.0373535,0.974304-0.488281,-0.305176,15.564,-0.033,-0.024,-136.72,-0.0196533,-0.0296936,0,0,0,0,0,39.61,573.636,600311
0.0239258,-0.0222168,1.024660.427246,-0.366211,15.5029,0,0.025,-136.95,-0.0198059,-0.029892,0,0,0,0,0,39.61,573.657,600326
-0.0288086,-0.0357666,0.995789-0.854492,-0.915527,17.2729,0.047,0,-137.45,-0.0200195,-0.0300751,0,0,0,0,0,39.61,573.677,600356
0.0154419,0.0206299,0.930603-1.15967,-1.46484,15.9912,-0.024,-0.011,-137.69,-0.0200958,-0.0300751,0,0,0,0,0,39.61,573.696,600371
-0.0248413,0.0250854,1.05408-0.610352,-1.0376,15.686,0.003,-0.042,-137.93,-0.0201874,-0.0301056,0,0,0,0,0,39.61,573.716,600386
0.0110474,0.0591431,0.9604490.610352,-0.671387,16.2354,-0.046,-0.044,-138.42,-0.0202179,-0.0301971,0,0,0,0,0,39.57,573.736,600416
-0.00506592,-0.154114,1.071411.2207,0.366211,16.1743,0.107,0.104,-138.66,-0.0202026,-0.0302124,0,0,0,0,0,39.57,573.756,600431
-0.0576172,-0.102234,1.081180.610352,0.854492,17.8223,0.113,0.031,-138.92,-0.0200348,-0.0301361,0,0,0,0,0,39.57,573.776,600446
0.0496826,0.03302,0.949036-1.89209,-0.976562,16.2354,-0.057,0,-139.42,-0.019577,-0.0299072,0,0,0,0,0,39.57,573.796,600476
-0.020813,0.0303955,1.04028-0.732422,-0.183105,17.1509,-0.002,-0.044,-139.68,-0.0194244,-0.0298157,0,0,0,0,0,39.57,573.816,600491
-0.0281982,-0.114075,1.07538-0.305176,0.305176,17.334,0.097,0.06,-139.93,-0.0191956,-0.0297241,0,0,0,0,0,39.57,573.836,600506
0.000183105,0.022644,0.965210.610352,-1.0376,18.1274,-0.012,-0.024,-140.48,-0.0184937,-0.0294037,0,0,0,0,0,39.57,573.857,600536
-0.00366211,0.140625,0.9932250.854492,-1.64795,17.5171,-0.084,-0.118,-140.75,-0.0181885,-0.0293274,0,0,0,0,0,39.57,573.876,600551
-0.0221558,0.0704956,1.00635-0.305176,-1.28174,17.7612,-0.025,-0.076,-141.02,-0.0179749,-0.0294037,0,0,0,0,0,39.57,573.897,600567
-0.00665283,-0.0450439,1.07166-0.976562,-0.854492,18.0054,0.035,0.022,-141.56,-0.0176239,-0.0295105,0,0,0,0,0,39.57,573.916,600597
-0.020813,-0.0272217,1.03748-1.2207,-0.488281,18.8599,0.035,0,-141.83,-0.0174103,-0.0295258,0,0,0,0,0,39.57,573.936,600612
0.0471191,0.0545044,0.95575-0.12207,-1.34277,18.9819,-0.068,-0.021,-142.12,-0.0172272,-0.0295563,0,0,0,0,0,39.57,573.956,600627
0.0100098,-0.0668335,1.10822-0.183105,0.610352,17.8833,0.035,0.049,-142.67,-0.0169983,-0.0296021,0,0,0,0,0,39.57,573.976,600657
0.019104,-0.00994873,1.00409-1.70898,0,17.5171,-0.006,0.01,-142.94,-0.0168762,-0.0295563,0,0,0,0,0,39.57,574,600672
0.00274658,0.0198975,1.00665-0.732422,0.793457,15.2588,-0.011,-0.023,-143.41,-0.0168762,-0.0294647,0,0,0,0,0,39.57,574.031,600702
0.0200195,-0.0361328,1.04865-0.0610352,0.244141,15.8691,0.007,0.031,-143.65,-0.0168762,-0.0294189,0,0,0,0,0,39.57,574.041,600717
-0.0443726,-0.0905151,1.024110.183105,0.671387,14.2212,0.09,0.038,-144.09,-0.0166779,-0.0292053,0,0,0,0,0,39.57,574.074,600747
-0.0570679,-0.0574341,1.04010.732422,0.427246,14.5264,0.081,0.004,-144.31,-0.0164185,-0.0290527,0,0,0,0,0,39.57,574.084,600762
-0.0332642,0.0671997,0.960388-1.28174,-0.854492,16.2964,-0.01,-0.082,-144.77,-0.0157776,-0.0290985,0,0,0,0,0,39.57,574.109,600792
-0.0332642,0.0671997,0.960388-1.28174,-0.854492,16.2964,-0.01,-0.082,-144.77,-0.0157776,-0.0290985,0,0,0,0,0,39.57,574.12,600792
0.0022583,0.0549927,0.980042-0.671387,-0.793457,16.7847,-0.032,-0.052,-145.02,-0.0154877,-0.0292511,0,0,0,0,0,39.57,574.136,600807
-0.0100708,-0.00848389,1.04895-0.549316,-0.793457,18.4326,0.014,-0.007,-145.57,-0.0149536,-0.0294342,0,0,0,0,0,39.57,574.157,600837
0.0371094,-0.0326538,0.9392090.12207,-0.793457,18.0664,-0.01,0.039,-145.84,-0.0149536,-0.0294189,0,0,0,0,0,39.57,574.176,600852
0.0188599,0.0353394,1.009280.671387,-1.0376,19.9585,-0.033,-0.027,-146.13,-0.0149841,-0.0293884,0,0,0,0,0,39.57,574.198,600867
0.0238037,-0.0151978,0.985901-0.976562,-0.488281,20.6299,-0.009,0.016,-146.74,-0.0150757,-0.0292969,0,0,0,0,0,39.57,574.217,600897
0.00439453,0.0010376,0.993225-0.488281,-0.610352,19.5312,-0.001,-0.007,-147.04,-0.0150757,-0.0292358,0,0,0,0,0,39.6,574.236,600912
0.0386353,0.0324097,1.03009-1.0376,-0.854492,20.1416,-0.048,-0.016,-147.34,-0.0151062,-0.0292358,0,0,0,0,0,39.6,574.257,600927
0.00366211,-0.0385742,0.926636-1.64795,-0.366211,18.9209,0.019,0.025,-147.91,-0.0150452,-0.0292206,0,0,0,0,0,39.6,574.276,600957
0.0457153,0.113098,0.9464110.671387,-1.89209,18.1274,-0.096,-0.081,-148.19,-0.0150452,-0.0292358,0,0,0,0,0,39.6,574.297,600972
0.00457764,-0.0249634,0.992188-0.0610352,-0.366211,18.9819,0.011,0.014,-148.75,-0.0150299,-0.0292969,0,0,0,0,0,39.6,574.319,601002
0.0422363,-0.00500488,1.00385-0.610352,-1.09863,16.8457,-0.03,0.016,-149.01,-0.0150146,-0.0292816,0,0,0,0,0,39.6,574.336,601017
-0.0460815,0.0502319,1.00659-1.64795,-1.46484,17.5781,0.016,-0.076,-149.27,-0.0149994,-0.0292969,0,0,0,0,0,39.6,574.357,601032
0.0107422,0.0579834,1.0368-0.854492,-1.0376,18.5547,-0.036,-0.055,-149.55,-0.0150146,-0.0294189,0,0,0,0,0,39.6,574.378,601047
-0.0128784,-0.0704346,1.04468-0.244141,-1.09863,18.9209,0.049,0.043,-150.09,-0.0151978,-0.0297699,0,0,0,0,0,39.6,574.396,601077
0.00317383,-0.0118408,1.04688-0.305176,-0.671387,19.3481,0.006,0,-150.38,-0.0152435,-0.0299072,0,0,0,0,0,39.6,574.422,601092
0.0310059,0.0123901,0.956665-0.549316,-1.15967,17.2119,-0.029,-0.005,-150.65,-0.0153198,-0.0299072,0,0,0,0,0,39.6,574.437,601107
-0.0108643,0.0578613,1.01575-1.89209,-0.732422,17.1509,-0.015,-0.067,-151.16,-0.0156555,-0.0301056,0,0,0,0,0,39.6,574.456,601137
0.0593262,0.0178833,1.01556-1.2207,-0.549316,16.7236,-0.057,0,-151.43,-0.0158844,-0.0302887,0,0,0,0,0,39.6,574.477,601152
-0.0101318,-0.00512695,1.01343-0.12207,-0.244141,16.0522,0.014,-0.012,-151.67,-0.0161591,-0.0302887,0,0,0,0,0,39.6,574.499,601167
0.0246582,-0.0631714,1.056950.366211,0.305176,16.1133,0.011,0.055,-152.17,-0.0164337,-0.030426,0,0,0,0,0,39.6,574.516,601197
0.00592041,-0.0307007,1.00189-0.183105,-0.427246,16.4185,0.012,0.018,-152.42,-0.0164337,-0.0304413,0,0,0,0,0,39.6,574.537,601212
-0.00482178,0.0223999,0.973206-0.732422,-1.52588,17.395,-0.002,-0.033,-152.67,-0.0164337,-0.0304718,0,0,0,0,0,39.6,574.556,601227
-0.00262451,0.0719604,1.01379-1.15967,-1.28174,18.0054,-0.026,-0.078,-153.22,-0.0165405,-0.0307159,0,0,0,0,0,39.6,574.578,601257
-0.0115356,0.0193481,0.997131-0.793457,-1.58691,19.043,0.004,-0.034,-153.49,-0.0166321,-0.0309601,0,0,0,0,0,39.6,574.597,601272
-0.00579834,-0.0302734,1.042180,-0.732422,17.5171,0.022,0.011,-153.77,-0.0167084,-0.0312195,0,0,0,0,0,39.6,574.617,601287
0.0101929,0.0065918,0.980042-0.915527,-1.46484,17.7612,-0.008,-0.014,-154.3,-0.0168152,-0.0316772,0,0,0,0,0,39.6,574.637,601317
0.0559692,-0.00750732,1.0282-0.427246,-0.671387,17.5171,-0.043,0.017,-154.56,-0.0168915,-0.0319061,0,0,0,0,0,39.6,574.657,601332
-0.0161743,-0.00714111,0.997192-1.0376,-0.915527,18.8599,0.021,-0.013,-154.83,-0.016983,-0.0319061,0,0,0,0,0,39.6,574.675,601347
-0.0175781,0.0126343,0.982788-0.976562,-0.12207,18.0054,0.014,-0.032,-155.39,-0.0172577,-0.0320587,0,0,0,0,0,39.6,574.696,601377
0.0196533,0.0390625,1.02594-0.854492,-0.793457,18.4326,-0.029,-0.041,-155.67,-0.0174103,-0.0322113,0,0,0,0,0,39.6,574.716,601392
0.0247803,0.0267944,1.01062-0.0610352,-1.2207,18.4326,-0.029,-0.028,-155.95,-0.0176086,-0.0324249,0,0,0,0,0,39.6,574.735,601407
-0.0263672,-0.14032,1.051090.610352,0.12207,17.8833,0.084,0.104,-156.47,-0.017868,-0.0328979,0,0,0,0,0,39.61,574.756,601437
0.00622559,-0.050293,1.054320.549316,-0.732422,17.7612,0.018,0.034,-156.74,-0.0178986,-0.0330048,0,0,0,0,0,39.61,574.778,601452
-0.00457764,-0.036499,1.01929-0.610352,-1.34277,16.6626,0.023,0.018,-156.99,-0.0178833,-0.0330963,0,0,0,0,0,39.61,574.799,601467
0.0354614,0.072876,1.01471-0.793457,-1.52588,16.8457,-0.055,-0.068,-157.5,-0.0178375,-0.0332642,0,0,0,0,0,39.61,574.821,601497
-0.00189209,-0.0078125,1.065250.610352,0.183105,16.0522,0.01,-0.008,-157.75,-0.017868,-0.0334167,0,0,0,0,0,39.61,574.836,601512
0.0180664,-0.00134277,0.9915770.244141,-0.183105,17.2119,-0.01,-0.005,-158,-0.0178833,-0.0335693,0,0,0,0,0,39.61,574.856,601527
-0.0067749,-0.0444946,1.0105-0.12207,0.12207,16.7236,0.028,0.025,-158.5,-0.0178833,-0.0335693,0,0,0,0,0,39.61,574.876,601557
0.0297241,0.0541992,1.02698-1.64795,-0.793457,16.9678,-0.041,-0.054,-158.76,-0.0178833,-0.0335846,0,0,0,0,0,39.61,574.9,601572
-0.0065918,0.0305176,0.975281-1.0376,-0.732422,15.7471,0,-0.044,-159,-0.0178986,-0.0336609,0,0,0,0,0,39.61,574.917,601587
0.038147,0.0101929,1.04071-0.244141,-0.793457,16.3574,-0.033,-0.011,-159.48,-0.0178986,-0.0338898,0,0,0,0,0,39.61,574.935,601617
-0.0408325,0.0057373,0.9586180.366211,-1.40381,16.4795,0.041,-0.033,-159.73,-0.0178986,-0.0340271,0,0,0,0,0,39.61,574.956,601632
0.0350952,0.0395508,1.000490.427246,-1.28174,14.9536,-0.04,-0.039,-159.97,-0.0178986,-0.0342255,0,0,0,0,0,39.61,574.976,601647
0.0170288,-0.0377197,0.999146-1.34277,-1.34277,15.1978,0.003,0.026,-160.41,-0.0179291,-0.034729,0,0,0,0,0,39.61,574.996,601677
0.0333252,-0.0268555,1.01733-1.09863,-0.671387,15.1367,-0.016,0.02,-160.64,-0.0179291,-0.0349426,0,0,0,0,0,39.61,575.017,601692
-0.0192261,-0.036377,1.03821-0.244141,0.671387,15.5029,0.036,0.011,-160.87,-0.0179138,-0.035141,0,0,0,0,0,39.61,575.036,601707
-0.0568237,-0.0549316,0.9921880.305176,0.549316,16.6626,0.078,0.018,-161.38,-0.0179138,-0.0353394,0,0,0,0,0,39.61,575.056,601737
0.0284424,-0.0933838,1.041870.244141,0.732422,15.5029,0.009,0.081,-161.61,-0.0178375,-0.0352783,0,0,0,0,0,39.61,575.076,601752
0.0272217,-0.0145264,1.01624-0.915527,-0.305176,16.3574,-0.014,0.006,-161.86,-0.0177765,-0.035141,0,0,0,0,0,39.61,575.097,601767
0.0380859,-0.0195312,0.981262-0.793457,-0.732422,16.7236,-0.024,0.014,-162.34,-0.0175476,-0.0349121,0,0,0,0,0,39.61,575.116,601797
-0.0550537,-0.0742188,1.035830.427246,0.183105,16.2964,0.081,0.037,-162.58,-0.0173798,-0.0347595,0,0,0,0,0,39.61,575.139,601812
-0.013855,0.0212402,1.048770.549316,-0.610352,16.9678,0.013,-0.04,-162.84,-0.0171509,-0.0346222,0,0,0,0,0,39.61,575.156,601827
-0.00805664,-0.0267944,0.977112-0.366211,-0.915527,16.6016,0.021,0.007,-163.33,-0.0166779,-0.0345154,0,0,0,0,0,39.61,575.177,601857
0.0155029,0.00848389,1.04669-1.15967,-1.09863,17.8223,-0.01,-0.02,-163.59,-0.0164337,-0.0345154,0,0,0,0,0,39.61,575.197,601872
-0.0158081,-0.0245972,1.03326-0.427246,-0.12207,17.2119,0.029,0.002,-163.85,-0.0161896,-0.0345459,0,0,0,0,0,39.61,575.217,601887
0.0426636,0.0100098,0.998413-0.793457,-0.12207,16.3574,-0.036,-0.014,-164.38,-0.0157013,-0.0345306,0,0,0,0,0,39.61,575.241,601917
0.0297852,-0.000305176,1.01721-0.793457,-0.366211,15.3809,-0.02,-0.008,-164.62,-0.0155334,-0.0345459,0,0,0,0,0,39.6,575.257,601932
-0.0288696,-0.0186157,1.03046-1.2207,0.305176,15.564,0.039,-0.006,-164.86,-0.0153351,-0.0345459,0,0,0,0,0,39.6,575.277,601947
-0.00408936,0.0369873,1.040710.976562,0.366211,15.8691,0.002,-0.053,-165.31,-0.0149536,-0.0345459,0,0,0,0,0,39.6,575.296,601977
-0.0107422,-0.0550537,1.04236-1.2207,0.244141,17.0288,0.031,0.033,-165.56,-0.0147552,-0.0345612,0,0,0,0,0,39.6,575.317,601992
0.00866699,-0.00860596,0.96051-1.64795,0.12207,16.6626,0,-0.005,-165.81,-0.0145264,-0.0345764,0,0,0,0,0,39.6,575.337,602007
0.00189209,-0.00109863,1.03027-0.793457,-1.15967,17.334,0.004,-0.015,-166.32,-0.0142822,-0.0346985,0,0,0,0,0,39.6,575.358,602038
-0.0170288,0.0339355,0.996216-1.40381,-0.671387,18.7378,0.014,-0.054,-166.59,-0.0142822,-0.0348206,0,0,0,0,0,39.6,575.377,602053
0.0189209,0.0439453,0.965942-0.0610352,-1.28174,17.6392,-0.022,-0.055,-166.87,-0.0142975,-0.0350189,0,0,0,0,0,39.6,575.397,602068
-0.00372314,-0.0266724,1.06097-0.671387,-0.793457,18.6768,0.016,0.006,-167.42,-0.0143127,-0.0352631,0,0,0,0,0,39.6,575.415,602098
0.0482788,0.0167236,0.926575-1.2207,-1.58691,16.9067,-0.044,-0.022,-167.69,-0.0143433,-0.0352631,0,0,0,0,0,39.6,575.436,602113
0.00543213,-0.0241699,1.02747-0.549316,-0.305176,16.0522,0.006,0.005,-167.94,-0.014389,-0.0352936,0,0,0,0,0,39.6,575.456,602128
0.0444946,-0.0619507,1.0116-0.0610352,-0.12207,17.395,-0.023,0.051,-168.45,-0.0144958,-0.0352783,0,0,0,0,0,39.6,575.478,602158
0.010498,-0.0265503,1.000550.183105,-0.183105,17.0898,0.001,0.009,-168.71,-0.0145721,-0.0352173,0,0,0,0,0,39.6,575.495,602173
-0.00134277,0.00585938,0.9844360.12207,-0.305176,15.9302,0.007,-0.023,-168.95,-0.0146332,-0.0351562,0,0,0,0,0,39.6,575.516,602188
-0.0266113,0.0321045,0.991821-1.34277,-0.915527,16.2354,0.026,-0.055,-169.45,-0.0146179,-0.0350189,0,0,0,0,0,39.6,575.536,602218
0.0465698,0.0375366,0.9877930.305176,-1.2207,15.3198,-0.045,-0.047,-169.68,-0.0146179,-0.0350189,0,0,0,0,0,39.6,575.556,602233
-0.0202637,0.0358887,1.028560.610352,-1.0376,16.0522,0.02,-0.058,-169.92,-0.0146332,-0.0350952,0,0,0,0,0,39.6,575.578,602248
0.0725708,0.0227661,0.9497680.732422,-0.732422,15.0757,-0.068,-0.027,-170.41,-0.0145874,-0.0352936,0,0,0,0,0,39.6,575.597,602278
0.0140991,0.0738525,1.030821.77002,-1.2207,14.4043,-0.018,-0.089,-170.62,-0.0146179,-0.0354767,0,0,0,0,0,39.6,575.618,602293
-0.0522461,-0.0261841,1.0235-0.732422,-0.549316,17.334,0.062,0,-170.87,-0.0146332,-0.0357208,0,0,0,0,0,39.6,575.636,602308
0.00195312,0.046875,0.9931030.0610352,-0.793457,16.6626,-0.001,-0.064,-171.4,-0.0148163,-0.0357819,0,0,0,0,0,39.6,575.658,602338
-0.0623779,-0.0386353,1.0531-0.0610352,-0.366211,19.7754,0.075,0.01,-171.68,-0.0149078,-0.0358582,0,0,0,0,0,39.6,575.676,602353
0.0411987,0.00543213,0.986023-0.854492,-0.183105,19.2261,-0.034,-0.017,-171.98,-0.0149536,-0.035965,0,0,0,0,0,39.6,575.696,602368
-0.0358276,-0.00292969,1.01074-0.793457,-0.976562,18.6157,0.043,-0.02,-172.52,-0.0150452,-0.0359802,0,0,0,0,0,39.6,575.716,602398
0.0506592,0.0337524,1.031370.549316,-1.09863,18.5547,-0.046,-0.045,-172.8,-0.0150757,-0.0360413,0,0,0,0,0,39.6,575.736,602413
0.0128174,-0.0653076,0.992737-0.366211,-1.28174,19.2871,0.003,0.048,-173.09,-0.0151215,-0.0361023,0,0,0,0,0,39.6,575.757,602428
0.0230713,0.0389404,0.99884-0.732422,-0.915527,18.7378,-0.018,-0.054,-173.66,-0.0151825,-0.0361786,0,0,0,0,0,39.59,575.776,602458
0.0482178,-0.0707397,1.0675-1.2207,-0.366211,17.395,-0.031,0.055,-173.93,-0.0152588,-0.0362244,0,0,0,0,0,39.59,575.796,602473
-0.0124512,-0.0304565,0.993835-1.0376,0.0610352,16.7847,0.024,0.01,-174.18,-0.0153198,-0.0362244,0,0,0,0,0,39.59,575.816,602488
-0.00561523,-0.0728149,1.036070.915527,-0.244141,16.7236,0.021,0.053,-174.69,-0.0154724,-0.0362244,0,0,0,0,0,39.59,575.836,602518
-0.0559082,-0.0043335,1.019231.0376,-0.0610352,17.8223,0.065,-0.018,-174.95,-0.0155029,-0.0361938,0,0,0,0,0,39.59,575.857,602533
0.0289917,0.0117798,1.005860.244141,-0.366211,16.3574,-0.02,-0.027,-175.21,-0.0154877,-0.0361938,0,0,0,0,0,39.59,575.876,602548
-0.0437622,-0.109619,0.994873-2.01416,-0.793457,16.6626,0.06,0.088,-175.69,-0.0154266,-0.0362091,0,0,0,0,0,39.59,575.896,602578
0.0367432,0.0588989,1.004641.2207,0.244141,15.8081,-0.031,-0.075,-175.94,-0.0153656,-0.0361938,0,0,0,0,0,39.59,575.916,602593
0.00616455,-0.0181274,1.044010.0610352,-0.488281,16.2354,0.004,0,-176.18,-0.0153046,-0.0362244,0,0,0,0,0,39.59,575.938,602608
0.0371094,0.0396729,1.010440,0.0610352,16.7236,-0.029,-0.055,-176.69,-0.015152,-0.0362549,0,0,0,0,0,39.59,575.958,602638
0.0280762,-0.0530396,1.01733-0.854492,-0.854492,15.686,-0.015,0.036,-176.93,-0.0151062,-0.0362854,0,0,0,0,0,39.59,575.976,602653
-0.0144653,0.00592041,1.01147-0.0610352,-0.366211,17.6392,0.023,-0.025,-177.18,-0.0150604,-0.0363159,0,0,0,0,0,39.59,575.996,602668
0.0112915,-0.0217896,1.013430.244141,-0.732422,16.9678,0,0.004,-177.71,-0.0149689,-0.0365143,0,0,0,0,0,39.59,576.016,602698
-0.0147095,0.02948,0.9919430.610352,-1.28174,19.2261,0.023,-0.047,-177.98,-0.0149078,-0.0366669,0,0,0,0,0,39.59,576.036,602713
-0.0223999,-0.0384521,0.97699-1.40381,-1.15967,18.4937,0.033,0.02,-178.54,-0.0147552,-0.0370789,0,0,0,0,0,39.59,576.06,602743
0.019104,0.0336304,0.993408-0.976562,-2.0752,19.043,-0.009,-0.05,-178.82,-0.0146637,-0.0373077,0,0,0,0,0,39.59,576.076,602758
0.0548096,0.0596924,1.030580.0610352,-1.70898,18.2495,-0.044,-0.076,-179.1,-0.0146027,-0.0376282,0,0,0,0,0,39.59,576.096,602773
-0.0144043,-0.0170898,1.01825-0.0610352,-0.793457,18.3716,0.025,0,-179.38,-0.0145569,-0.0380096,0,0,0,0,0,39.59,576.116,602788
0.039917,0.0022583,1.003480,-0.549316,16.6626,-0.028,-0.019,-179.92,-0.0145416,-0.0388489,0,0,0,0,0,39.59,576.137,602818
0.00860596,-0.00427246,1.06567-0.305176,-0.366211,16.1743,0.003,-0.013,179.83,-0.0145721,-0.0393066,0,0,0,0,0,39.59,576.156,602833
-0.0270386,-0.0809326,1.02557-1.15967,0.732422,15.564,0.038,0.063,179.59,-0.0145721,-0.0397491,0,0,0,0,0,39.59,576.176,602848
0.00909424,-0.0258789,1.036321.15967,0,14.3433,0.002,0.008,179.15,-0.0145721,-0.0404053,0,0,0,0,0,39.59,576.197,602878
-0.0637817,-0.0614624,1.022951.15967,0.366211,16.0522,0.074,0.045,178.92,-0.0145416,-0.0406647,0,0,0,0,0,39.59,576.216,602893
0.0608521,-0.0621948,1.02936-0.0610352,-0.305176,15.1978,-0.05,0.043,178.68,-0.0144958,-0.0408783,0,0,0,0,0,39.59,576.237,602908
-0.0170288,-0.0541382,1.02368-0.488281,-1.34277,16.1743,0.026,0.037,178.24,-0.014389,-0.0412598,0,0,0,0,0,39.59,576.256,602938
0.0230103,0.0513306,1.00641-0.976562,-1.09863,16.8457,-0.009,-0.069,177.98,-0.0143127,-0.0414581,0,0,0,0,0,39.62,576.276,602953
-0.0238647,-0.0383911,0.985596-0.244141,-0.427246,15.625,0.034,0.022,177.74,-0.0142365,-0.0417023,0,0,0,0,0,39.62,576.296,602968
0.0195312,0.0600586,0.99884-0.610352,-1.2207,16.7847,-0.004,-0.077,177.24,-0.0139923,-0.0422058,0,0,0,0,0,39.62,576.318,602998
0.029541,-0.0119629,0.966980,-0.976562,15.3198,-0.018,-0.005,177,-0.0139923,-0.0425262,0,0,0,0,0,39.62,576.336,603013
-0.00128174,-0.00537109,1.034910.0610352,0.0610352,16.6626,0.013,-0.012,176.76,-0.0139923,-0.0428772,0,0,0,0,0,39.62,576.358,603028
-0.000244141,-0.0869751,1.01477-0.305176,-0.183105,18.4937,0.007,0.069,176.22,-0.0139923,-0.0428162,0,0,0,0,0,39.62,576.377,603058
0.00408936,-0.0181885,0.9791870.0610352,-0.793457,18.6157,0.007,0.001,175.94,-0.0139923,-0.0427094,0,0,0,0,0,39.62,576.397,603073
0.0114746,-0.034668,1.05414-0.0610352,-0.976562,18.1885,0,0.016,175.67,-0.0139923,-0.0426025,0,0,0,0,0,39.62,576.416,603088
0.038208,-0.0523682,0.986145-0.793457,-1.40381,18.3716,-0.029,0.032,175.12,-0.0138702,-0.0422363,0,0,0,0,0,39.62,576.437,603118
0.0280151,-0.0751343,1.029170.244141,-1.0376,17.2119,-0.02,0.055,174.86,-0.0138245,-0.0419617,0,0,0,0,0,39.62,576.457,603133
-0.0310059,-0.0183716,1.018980.549316,-0.854492,16.7847,0.043,0.005,174.6,-0.0137787,-0.0416565,0,0,0,0,0,39.62,576.479,603148
0.0579834,0.0078125,1.02014-0.305176,-0.549316,16.1133,-0.042,-0.03,174.08,-0.0136719,-0.0410614,0,0,0,0,0,39.62,576.496,603178
0.00354004,0.0202026,1.05981-0.305176,-0.671387,16.4795,0.013,-0.038,173.84,-0.0136566,-0.0408173,0,0,0,0,0,39.62,576.515,603193
-0.0296021,0.00421143,1.04248-1.46484,-0.183105,19.104,0.044,-0.018,173.56,-0.0136108,-0.0406036,0,0,0,0,0,39.62,576.537,603208
0.057373,-0.0661621,0.969849-0.854492,0.183105,17.4561,-0.051,0.042,173.29,-0.0135498,-0.04039,0,0,0,0,0,39.62,576.556,603224
0.00213623,0.00939941,1.038210.427246,-1.09863,19.9585,0.013,-0.026,172.73,-0.0135345,-0.0398865,0,0,0,0,0,39.62,576.575,603253
0.038147,-0.0252075,1.00311-0.427246,-0.366211,19.2261,-0.027,0.003,172.44,-0.0135345,-0.0396423,0,0,0,0,0,39.62,576.595,603268
-0.0189209,-0.0136719,1.03766-1.52588,-1.15967,19.4092,0.031,-0.001,171.88,-0.0135498,-0.0393982,0,0,0,0,0,39.62,576.616,603298
-0.00982666,0.00341797,1.0025-1.40381,-0.12207,19.104,0.024,-0.019,171.59,-0.0134888,-0.0393982,0,0,0,0,0,39.62,576.636,603313
0.0410767,0.00909424,0.9920040.12207,-0.976562,17.7612,-0.024,-0.032,171.31,-0.013443,-0.0394287,0,0,0,0,0,39.62,576.656,603328
0.0178833,-0.0126343,1.015750.0610352,-1.0376,18.0054,-0.004,-0.007,170.77,-0.0133362,-0.0394135,0,0,0,0,0,39.62,576.676,603358
0.0114136,-0.0284424,0.97406-0.244141,-1.2207,16.2354,-0.001,0.009,170.52,-0.0133362,-0.0394135,0,0,0,0,0,39.62,576.696,603373
-0.00335693,-0.0115356,1.01178-0.12207,-0.976562,16.9678,0.016,-0.005,170.27,-0.0133362,-0.0394135,0,0,0,0,0,39.62,576.716,603388
-0.00970459,-0.0228882,1.06128-0.0610352,0.0610352,17.5781,0.021,0.006,170.01,-0.0133057,-0.0394135,0,0,0,0,0,39.62,576.736,603404
-0.0256348,-0.0177612,0.975769-0.915527,-0.976562,18.4326,0.037,0.005,169.46,-0.0133057,-0.0392303,0,0,0,0,0,39.62,576.758,603433
0.00366211,-0.0599976,1.07458-0.671387,-1.64795,18.8599,0.001,0.039,168.91,-0.0132141,-0.0390625,0,0,0,0,0,39.61,576.783,603464
-0.0182495,0.0349121,0.956909-0.549316,-1.46484,18.6768,0.04,-0.047,168.62,-0.0131378,-0.0390015,0,0,0,0,0,39.61,576.796,603479
0.0269775,0.0168457,1.012391.09863,-0.915527,19.165,-0.006,-0.039,168.34,-0.013031,-0.0389862,0,0,0,0,0,39.61,576.816,603494
-0.0267334,0.0170288,1.040160.244141,-0.610352,19.7144,0.047,-0.028,167.75,-0.0128326,-0.0391388,0,0,0,0,0,39.61,576.843,603524
0.0338135,-0.00317383,0.996704-0.305176,-1.15967,18.6768,-0.016,-0.021,167.46,-0.0126953,-0.0392761,0,0,0,0,0,39.61,576.862,603539
0.050293,-0.00317383,1.02527-0.549316,-1.15967,17.0288,-0.031,-0.025,167.19,-0.0125885,-0.0394592,0,0,0,0,0,39.61,576.88,603554
-0.0205688,-0.0270996,1.03235-0.610352,-1.28174,17.7612,0.032,0.013,166.93,-0.0124969,-0.0396423,0,0,0,0,0,39.61,576.896,603569
0.000915527,-0.0634766,1.005311.0376,-0.12207,16.5405,0.002,0.044,166.4,-0.0123138,-0.0400543,0,0,0,0,0,39.61,576.916,603599
-0.0304565,-0.0487061,1.065250.488281,-0.549316,18.3716,0.037,0.036,166.14,-0.012207,-0.0402069,0,0,0,0,0,39.61,576.936,603614
0.0263062,-0.0477295,1.04126-0.0610352,-0.305176,17.334,-0.018,0.022,165.87,-0.0121002,-0.040329,0,0,0,0,0,39.61,576.956,603629
-0.0129395,0.0278931,1.02686-0.488281,-1.40381,17.2729,0.038,-0.04,165.37,-0.0119171,-0.040451,0,0,0,0,0,39.61,576.976,603659
0.0144043,-0.0400391,1.01825-0.427246,-0.915527,17.395,-0.005,0.018,165.1,-0.011795,-0.0405273,0,0,0,0,0,39.61,576.997,603674
0.0111084,-0.00531006,1.001220.427246,-0.915527,17.5171,0.006,-0.013,164.84,-0.011795,-0.0405273,0,0,0,0,0,39.61,577.015,603689
0.0231934,-0.0288696,1.01886-0.183105,-0.793457,18.4326,-0.01,0.005,164.31,-0.011795,-0.0403748,0,0,0,0,0,39.61,577.038,603719
0.0740967,0.034668,1.01581-0.12207,-1.46484,16.9067,-0.041,-0.069,164.04,-0.0118256,-0.0403137,0,0,0,0,0,39.61,577.056,603734
-0.0402222,-0.0529785,0.972351-1.28174,-1.58691,17.8833,0.043,0.046,163.78,-0.0118713,-0.0402679,0,0,0,0,0,39.61,577.077,603749
0.0380859,-0.0823975,1.065-0.305176,-0.671387,18.3716,-0.038,0.051,163.23,-0.0118408,-0.0402069,0,0,0,0,0,39.61,577.097,603779
-0.0419312,-0.086792,1.01672-0.427246,-1.0376,18.9819,0.035,0.079,162.95,-0.0118408,-0.0401001,0,0,0,0,0,39.61,577.116,603794
0.0372314,-0.0253906,0.9996340.793457,-0.915527,17.5781,-0.022,-0.002,162.68,-0.0118408,-0.0399323,0,0,0,0,0,39.61,577.137,603809
-0.0289307,-0.00634766,1.00165-0.854492,-0.671387,17.5171,0.046,0,162.18,-0.0118713,-0.0394745,0,0,0,0,0,39.61,577.156,603839
0.0696411,0.0938721,0.940552-0.244141,-1.34277,16.2964,-0.017,-0.125,161.92,-0.0118713,-0.0392914,0,0,0,0,0,39.61,577.176,603854
-0.0123901,-0.000976562,1.05566-0.12207,-0.671387,16.7236,0.033,-0.011,161.68,-0.0118561,-0.0392151,0,0,0,0,0,39.61,577.196,603869
0.0483398,-0.0361328,0.9989620,-0.244141,16.4795,-0.035,0.003,161.16,-0.0117493,-0.0390167,0,0,0,0,0,39.61,577.216,603899
0.0211792,-0.0484009,0.9977420.244141,-0.793457,15.9912,-0.014,0.023,160.92,-0.011734,-0.0388947,0,0,0,0,0,39.61,577.236,603914
0.0259399,-0.107361,1.0426-0.244141,-0.915527,16.9678,-0.037,0.076,160.67,-0.0117493,-0.0386963,0,0,0,0,0,39.61,577.257,603929
0.00177002,-0.0844116,1.007021.34277,-0.854492,16.6626,-0.008,0.063,160.17,-0.011795,-0.0381317,0,0,0,0,0,39.61,577.276,603959
0.00604248,-0.0698853,1.060551.0376,-0.854492,17.7002,-0.006,0.048,159.91,-0.011795,-0.037735,0,0,0,0,0,39.6,577.297,603974
0.00457764,-0.0167236,1.04651-0.12207,-1.09863,16.2964,0.013,0,159.66,-0.011795,-0.0373077,0,0,0,0,0,39.6,577.317,603989
0.0491943,-0.00518799,1.01965-1.34277,-2.2583,16.6626,-0.024,-0.027,159.17,-0.0118103,-0.0365753,0,0,0,0,0,39.6,577.337,604019
-0.00640869,-0.0129395,1.05933-0.305176,-0.793457,16.2964,0.025,0,158.92,-0.0118256,-0.0362549,0,0,0,0,0,39.6,577.356,604034
0.00769043,-0.0142212,0.993286-0.488281,-1.77002,16.7236,0.01,-0.003,158.67,-0.0118103,-0.0362549,0,0,0,0,0,39.6,577.376,604049
-0.00970459,-0.100952,1.021730.427246,0.244141,15.9302,-0.004,0.083,158.17,-0.0118713,-0.0363007,0,0,0,0,0,39.6,577.396,604079
-0.00195312,0.00488281,1.053770.427246,-0.610352,15.625,0.028,-0.017,157.93,-0.0119019,-0.0362549,0,0,0,0,0,39.6,577.417,604094
0.0183105,-0.0280762,0.963501-0.366211,-0.366211,15.8691,-0.005,0.006,157.7,-0.0119171,-0.0362549,0,0,0,0,0,39.6,577.436,604109
-0.0192871,-0.0117798,1.06970.610352,-0.244141,17.4561,0.038,0.004,157.2,-0.0119629,-0.0363464,0,0,0,0,0,39.6,577.457,604139
-0.0045166,-0.0609131,1.00739-0.0610352,-0.427246,18.7988,0.003,0.044,156.92,-0.0119476,-0.0363617,0,0,0,0,0,39.6,577.477,604154
-0.0167236,-0.0994873,1.03754-0.732422,0.305176,18.0664,0,0.084,156.65,-0.0119171,-0.0363007,0,0,0,0,0,39.6,577.497,604169
0.0304565,0.00506592,1.02203-0.366211,-1.34277,19.7144,-0.001,-0.03,156.09,-0.011795,-0.0361023,0,0,0,0,0,39.6,577.52,604199
0.0123901,-0.00488281,0.976929-0.488281,-0.671387,18.2495,0.009,-0.013,155.81,-0.0117188,-0.0360413,0,0,0,0,0,39.6,577.537,604214
-0.00140381,0.0477295,0.9892580.244141,-1.15967,17.5781,0.044,-0.055,155.55,-0.0116119,-0.036026,0,0,0,0,0,39.6,577.556,604229
0.0065918,-0.0272217,1.01233-1.09863,-0.12207,16.4185,0.006,0.009,155.02,-0.0113525,-0.0361481,0,0,0,0,0,39.6,577.577,604259
0.0228882,0.03479,0.971863-0.183105,-0.610352,15.1978,0.018,-0.053,154.78,-0.0113525,-0.0362396,0,0,0,0,0,39.6,577.596,604274
0.0322266,-0.069519,1.05243-0.976562,-0.12207,16.0522,-0.033,0.035,154.55,-0.0113678,-0.0363617,0,0,0,0,0,39.6,577.616,604289
0.020813,-0.0297241,0.955444-0.12207,-0.427246,16.5405,-0.008,0.005,154.05,-0.0114288,-0.0364838,0,0,0,0,0,39.6,577.637,604319
-0.0145874,-0.0476685,1.033750.671387,0,16.6016,0.017,0.035,153.81,-0.0114288,-0.036499,0,0,0,0,0,39.6,577.656,604334
0.0249023,-0.0239258,1.048650.183105,-0.366211,17.4561,-0.007,-0.003,153.54,-0.0114288,-0.036499,0,0,0,0,0,39.6,577.676,604349
0.0491943,-0.000610352,0.992859-0.610352,-1.15967,17.1509,-0.019,-0.035,153.04,-0.0113983,-0.036438,0,0,0,0,0,39.6,577.699,604379
0.0298462,0.0672607,1.02240.427246,-1.28174,16.5405,0.029,-0.086,152.79,-0.0113831,-0.0364838,0,0,0,0,0,39.6,577.716,604394
-0.0713501,-0.0887451,1.048830.549316,0.427246,16.8457,0.047,0.098,152.54,-0.0113068,-0.0365143,0,0,0,0,0,39.6,577.735,604409
0.0615234,-0.0557251,1.0152-0.366211,-0.610352,17.7002,-0.055,0.007,152.27,-0.0112305,-0.0364838,0,0,0,0,0,39.6,577.756,604425
-0.0379028,0.0217285,1.05768-0.854492,0.12207,15.8081,0.069,-0.014,151.8,-0.0112,-0.0364838,0,0,0,0,0,39.6,577.776,604454
0.0653076,0.0802002,0.94873-1.28174,-0.671387,16.6626,0.004,-0.114,151.55,-0.0111237,-0.0365753,0,0,0,0,0,39.6,577.795,604469
-0.0853882,0.0162964,1.083861.0376,1.2207,15.9912,0.109,0.013,151.08,-0.0109711,-0.0369873,0,0,0,0,0,39.6,577.816,604499
0.036377,-0.043396,1.044070.12207,0.793457,17.395,-0.027,0.006,150.83,-0.0108185,-0.0369873,0,0,0,0,0,39.6,577.836,604514
0.00311279,-0.0646973,0.988342-0.793457,0.854492,15.2588,-0.01,0.042,150.59,-0.0106812,-0.0369568,0,0,0,0,0,39.6,577.858,604529
0.0103149,-0.0461426,1.00989-1.95312,-1.2207,17.4561,-0.007,0.02,150.12,-0.0103302,-0.0369263,0,0,0,0,0,39.6,577.878,604559
0.0231934,0.0010376,1.01477-0.793457,-0.732422,16.7847,0.004,-0.026,149.86,-0.0101318,-0.0369263,0,0,0,0,0,39.6,577.896,604574
0.00909424,-0.0420532,0.958191-0.183105,-1.28174,15.4419,-0.006,0.018,149.62,-0.0101318,-0.0369263,0,0,0,0,0,39.6,577.916,604589
0.0316162,0.0213013,1.00891-1.09863,-0.915527,16.5405,0.008,-0.048,149.13,-0.0101318,-0.036972,0,0,0,0,0,39.6,577.936,604619
0.0120239,-0.0115356,0.950928-0.549316,-0.793457,15.5029,0.007,-0.009,148.9,-0.0101318,-0.0370483,0,0,0,0,0,39.6,577.957,604634
0.00170898,-0.0130005,1.039310.244141,0.244141,17.0898,0.017,-0.003,148.64,-0.0101318,-0.0371399,0,0,0,0,0,39.6,577.976,604649
0.0280151,-0.0574341,1.04156-0.183105,-0.0610352,17.5171,-0.028,0.02,148.38,-0.0101471,-0.0372162,0,0,0,0,0,39.6,577.996,604665
0.0387573,0.0105591,0.984070.12207,0.0610352,16.9067,-0.003,-0.042,147.84,-0.0101624,-0.0373383,0,0,0,0,0,39.6,578.017,604694
-0.02771,-0.0470581,1.077210.12207,0.854492,16.7236,0.024,0.04,147.61,-0.0101471,-0.0374146,0,0,0,0,0,39.6,578.036,604709
0.0283203,-0.0216675,0.9755860,-0.12207,17.0898,-0.012,-0.01,147.08,-0.010025,-0.0374603,0,0,0,0,0,39.6,578.057,604739
-0.00482178,0.003479,1.02021.46484,-0.244141,17.5171,0.03,-0.013,146.82,-0.00993347,-0.0374908,0,0,0,0,0,39.6,578.076,604754
-0.00109863,-0.038208,1.037350.732422,-0.976562,18.1274,0.004,0.018,146.55,-0.00982666,-0.0374908,0,0,0,0,0,39.6,578.095,604769
0.0169067,-0.145386,1.05389-1.15967,0.0610352,16.5405,-0.07,0.097,146.03,-0.00970459,-0.0374603,0,0,0,0,0,39.6,578.116,604799
-0.0360718,-0.0335083,1.03992-0.427246,0.183105,18.3105,0.036,0.034,145.77,-0.00968933,-0.037323,0,0,0,0,0,39.6,578.136,604814
0.0294189,-0.130859,1.030270,0.305176,17.7002,-0.073,0.077,145.5,-0.00970459,-0.0371094,0,0,0,0,0,39.6,578.157,604829
0.0193481,-0.0286255,0.9896850.549316,-0.0610352,17.395,-0.008,0,145.23,-0.00978088,-0.03685,0,0,0,0,0,39.6,578.176,604845
0.00854492,-0.0262451,1.076350.183105,-0.0610352,18.5547,0.002,0.002,144.68,-0.00997925,-0.0361633,0,0,0,0,0,39.6,578.196,604874
0.0224609,0.00274658,0.963989-1.2207,-1.09863,17.8223,0.006,-0.027,144.41,-0.0100861,-0.0358276,0,0,0,0,0,39.6,578.216,604889
0.010437,0.0136719,0.978577-0.976562,-1.77002,19.7144,0.023,-0.03,144.13,-0.0101624,-0.0355072,0,0,0,0,0,39.6,578.236,604905
0.0212402,-0.041748,0.9908450.0610352,-0.549316,20.5688,-0.018,0.008,143.54,-0.0102692,-0.03479,0,0,0,0,0,39.6,578.256,604934
0.024231,-0.0443726,0.995850.854492,-0.854492,19.8364,-0.022,0.008,143.23,-0.0103607,-0.0343781,0,0,0,0,0,39.6,578.276,604950
0.0437622,-0.00482178,1.054930,-0.854492,18.6768,-0.012,-0.035,142.66,-0.0105133,-0.0344086,0,0,0,0,0,39.6,578.3,604980
0.00415039,-0.0171509,1.00732-0.427246,-0.305176,18.2495,0.01,-0.001,142.38,-0.0105133,-0.0344543,0,0,0,0,0,39.61,578.316,604995
0.027832,-0.0571899,0.992493-0.671387,-0.244141,17.5781,-0.032,0.016,142.11,-0.0105286,-0.0344849,0,0,0,0,0,39.61,578.336,605010
0.0106201,-0.0403442,1.055110.976562,-0.244141,17.395,-0.007,0.012,141.59,-0.0105896,-0.0344849,0,0,0,0,0,39.61,578.356,605040
0.00671387,-0.0540161,0.9831540.976562,0.12207,15.8081,-0.015,0.026,141.33,-0.0105896,-0.0344696,0,0,0,0,0,39.61,578.377,605055
-0.0513916,-0.00219727,1.038331.0376,0.732422,15.1978,0.063,0.022,141.11,-0.0105591,-0.0344086,0,0,0,0,0,39.61,578.398,605070
0.0338745,-0.0421143,1.04395-0.183105,-0.366211,16.2964,-0.028,0,140.87,-0.0105133,-0.0343323,0,0,0,0,0,39.61,578.416,605085
-0.0245972,-0.00146484,0.943237-0.549316,-0.549316,16.2354,0.04,0.006,140.4,-0.0103912,-0.0341187,0,0,0,0,0,39.61,578.436,605115
0.0154419,-0.0498047,1.025090.671387,-1.40381,16.9067,-0.019,0.016,140.14,-0.0102997,-0.0339966,0,0,0,0,0,39.61,578.456,605130
0.0012207,-0.0510864,1.10388-0.305176,-0.12207,16.9678,-0.008,0.025,139.88,-0.0102234,-0.0338287,0,0,0,0,0,39.61,578.476,605145
-0.000488281,-0.0194702,1.015620.793457,-0.732422,18.1885,0.011,0.004,139.38,-0.0102234,-0.0333862,0,0,0,0,0,39.61,578.498,605175
0.0057373,0.029541,1.008360.366211,-0.854492,18.6157,0.038,-0.036,139.09,-0.0101929,-0.0331726,0,0,0,0,0,39.61,578.518,605190
-0.0213013,0.0010376,0.9977421.2207,-0.427246,18.3716,0.04,0.003,138.82,-0.0101013,-0.0329742,0,0,0,0,0,39.61,578.536,605205
0.010498,-0.0529175,1.02380.12207,-1.0376,18.8599,-0.019,0.022,138.23,-0.00993347,-0.032547,0,0,0,0,0,39.61,578.557,605235
-0.027832,-0.0472412,0.986755-0.0610352,-0.305176,18.6768,0.012,0.044,137.96,-0.00985718,-0.0322723,0,0,0,0,0,39.61,578.576,605250
-0.0109253,0.00463867,1.016781.28174,0,18.1885,0.035,-0.004,137.38,-0.00976562,-0.0317078,0,0,0,0,0,39.61,578.597,605280
-0.0245361,-0.0230713,1.033751.34277,0,19.8975,0.026,0.024,137.09,-0.00967407,-0.0314331,0,0,0,0,0,39.61,578.618,605295
0.0540161,-0.00897217,0.985229-0.0610352,-0.610352,18.8599,-0.022,-0.038,136.8,-0.00958252,-0.0311584,0,0,0,0,0,39.61,578.638,605310
-0.0583496,-0.0804443,1.08429-0.915527,-0.427246,18.1885,0.011,0.089,136.28,-0.00932312,-0.0307312,0,0,0,0,0,39.61,578.66,605340
0.029541,-0.0367432,0.958923-0.671387,-0.610352,18.1274,-0.024,-0.001,136,-0.00918579,-0.0304413,0,0,0,0,0,39.61,578.679,605355
0.0437012,-0.0123291,1.007390.366211,-0.793457,17.7002,-0.016,-0.029,135.72,-0.00909424,-0.0301819,0,0,0,0,0,39.61,578.696,605370
-0.0222168,-0.0032959,1.00189-0.488281,-1.09863,18.7378,0.036,0.01,135.19,-0.00878906,-0.0297394,0,0,0,0,0,39.61,578.716,605400
0.0612793,0.0325317,0.9836430.610352,-0.976562,17.0898,0.002,-0.073,134.92,-0.0085907,-0.0295715,0,0,0,0,0,39.61,578.738,605415
-0.0330811,-0.00860596,1.05170.366211,-0.305176,15.5029,0.041,0.022,134.68,-0.00834656,-0.0294342,0,0,0,0,0,39.61,578.756,605430
0.0458984,0.0177002,0.958862-0.305176,-0.0610352,16.1133,0.003,-0.052,134.17,-0.00779724,-0.0291138,0,0,0,0,0,39.61,578.776,605460
0.0418091,-0.0098877,0.9818121.0376,-0.305176,15.0757,-0.012,-0.029,133.94,-0.00779724,-0.0290222,0,0,0,0,0,39.61,578.799,605475
-0.000610352,0.0129395,1.052730.549316,-0.671387,16.4795,0.034,-0.015,133.7,-0.00778198,-0.0289612,0,0,0,0,0,39.61,578.817,605490
0.0217896,-0.0161133,0.979919-0.12207,-0.671387,14.4043,-0.003,-0.011,133.25,-0.00764465,-0.0289764,0,0,0,0,0,39.61,578.84,605520
-0.0377808,-0.0332642,1.04993-0.183105,0.183105,16.1133,0.025,0.043,133.01,-0.0075531,-0.0289917,0,0,0,0,0,39.61,578.858,605535
0.00408936,-0.110107,1.07239-0.0610352,0.12207,16.3574,-0.059,0.064,132.77,-0.00749207,-0.0289307,0,0,0,0,0,39.61,578.878,605550
-0.00537109,-0.06073,0.9922490.183105,-0.854492,16.5405,-0.018,0.038,132.26,-0.00746155,-0.0286713,0,0,0,0,0,39.61,578.896,605580
-0.010437,0.0484619,1.038820.549316,-1.0376,17.5781,0.067,-0.031,132,-0.00743103,-0.0285187,0,0,0,0,0,39.61,578.917,605595
0.0175781,-0.00378418,1.01733-0.0610352,-1.77002,17.5781,0.008,-0.017,131.73,-0.00733948,-0.0283966,0,0,0,0,0,39.61,578.937,605610
0.0327148,0.0102539,1.018010,-1.2207,18.1274,0.009,-0.037,131.19,-0.00723267,-0.0284424,0,0,0,0,0,39.61,578.957,605640
0.00524902,-0.0335083,1.04987-0.0610352,-0.610352,18.6768,-0.004,0.012,130.92,-0.00723267,-0.0284882,0,0,0,0,0,39.61,578.977,605655
0.0732422,0.0154419,0.964783-0.427246,-1.15967,17.6392,-0.013,-0.07,130.64,-0.00723267,-0.028595,0,0,0,0,0,39.61,578.995,605670
0.0159302,0.0582886,0.9871830.305176,-0.671387,15.7471,0.057,-0.054,130.4,-0.00720215,-0.0287628,0,0,0,0,0,39.61,579.015,605685
0.0418701,-0.0213623,1.02551-1.15967,0.671387,17.7002,-0.019,-0.023,129.88,-0.00704956,-0.0291595,0,0,0,0,0,39.61,579.036,605715
0.0102539,-0.00390625,0.9627691.46484,0.427246,15.625,0.012,-0.01,129.64,-0.00704956,-0.0293579,0,0,0,0,0,39.61,579.058,605730
-0.0482788,0.003479,1.051210.732422,0.366211,17.5781,0.057,0.029,129.39,-0.00700378,-0.0295715,0,0,0,0,0,39.61,579.076,605745
-0.00189209,0.00244141,0.971191-0.305176,-0.305176,16.5405,0.025,-0.005,128.86,-0.00674438,-0.0299988,0,0,0,0,0,39.61,579.095,605775
-0.0186768,-0.0272217,1.01837-0.244141,-0.915527,17.5171,0.013,0.025,128.6,-0.00657654,-0.0302124,0,0,0,0,0,39.61,579.116,605790
0.0267944,0.00317383,0.9800420.0610352,-1.28174,18.6768,0.008,-0.028,128.02,-0.00639343,-0.0306091,0,0,0,0,0,39.61,579.136,605820
-0.0142212,-0.0583496,1.006290.183105,-0.732422,18.2495,-0.013,0.041,127.76,-0.00639343,-0.0308075,0,0,0,0,0,39.61,579.156,605835
0.0545044,0.0384521,1.02820.244141,-1.0376,19.4092,0.021,-0.072,127.46,-0.00639343,-0.0310211,0,0,0,0,0,39.61,579.176,605850
-0.0181885,-0.0698242,0.99823-1.58691,-0.183105,18.0664,-0.021,0.051,126.91,-0.00645447,-0.0314636,0,0,0,0,0,39.61,579.196,605880
0.0393677,0.013855,0.939575-0.183105,-0.976562,18.1885,0.01,-0.044,126.63,-0.00650024,-0.031662,0,0,0,0,0,39.61,579.216,605895
-0.000549316,0.0118408,1.030641.09863,-0.610352,17.6392,0.034,-0.011,126.37,-0.00653076,-0.0318756,0,0,0,0,0,39.61,579.236,605910
-0.0101318,-0.052002,1.000730.0610352,0.793457,15.8691,-0.012,0.034,125.86,-0.00653076,-0.0318451,0,0,0,0,0,39.61,579.256,605940
0.00860596,0.00823975,1.007390.366211,-1.15967,16.4795,0.025,-0.016,125.61,-0.00653076,-0.0317993,0,0,0,0,0,39.61,579.276,605955
0.00299072,-0.0522461,1.02551-1.40381,-0.793457,17.2119,-0.019,0.022,125.35,-0.0065155,-0.0317383,0,0,0,0,0,39.61,579.296,605970
-0.0043335,0.0544434,0.9782710,-0.0610352,16.6016,0.07,-0.032,125.11,-0.00646973,-0.0316925,0,0,0,0,0,39.61,579.317,605986
-0.0449829,-0.0293579,1.060240.793457,0,17.8223,0.026,0.048,124.58,-0.00627136,-0.0316925,0,0,0,0,0,39.61,579.337,606015
0.036438,0.010498,0.9963990.915527,-0.671387,16.5405,0.011,-0.04,124.32,-0.00613403,-0.0316925,0,0,0,0,0,39.61,579.356,606030
0.00396729,-0.137878,1.036560.0610352,-0.488281,15.1367,-0.091,0.07,124.09,-0.00604248,-0.031662,0,0,0,0,0,39.61,579.376,606046
0.112305,0.0983276,0.9786990.244141,-1.52588,16.3574,0.043,-0.151,123.59,-0.00596619,-0.0315247,0,0,0,0,0,39.61,579.396,606075
-0.0549316,-0.0561523,1.007020.549316,0.427246,15.4419,0.007,0.073,123.35,-0.00588989,-0.0315552,0,0,0,0,0,39.61,579.416,606090
-0.00109863,0.0169067,0.977112-0.0610352,-0.0610352,16.5405,0.038,-0.011,122.84,-0.00567627,-0.0315094,0,0,0,0,0,39.61,579.439,606120
0.012207,-0.00354004,0.9902340.854492,-0.915527,16.2354,0.014,-0.011,122.6,-0.00552368,-0.0315094,0,0,0,0,0,39.61,579.456,606135
-0.00518799,-0.0385132,1.07892-0.0610352,-0.366211,18.3716,-0.004,0.021,122.33,-0.00537109,-0.0315094,0,0,0,0,0,39.61,579.476,606150
-0.00830078,-0.0377197,1.007450.0610352,-0.427246,17.5171,-0.004,0.024,122.06,-0.00537109,-0.0314636,0,0,0,0,0,39.61,579.496,606166
0.00921631,0.0281372,0.99292-0.610352,-1.15967,17.8223,0.043,-0.025,121.51,-0.00531006,-0.0314636,0,0,0,0,0,39.61,579.516,606195
0.00793457,0.0203857,1.039550.12207,-0.610352,17.5781,0.038,-0.02,121.24,-0.00520325,-0.0315094,0,0,0,0,0,39.61,579.536,606210
0.0506592,-0.0727539,0.9718630.488281,-0.244141,18.3716,-0.064,-0.008,120.71,-0.00495911,-0.0316315,0,0,0,0,0,39.61,579.556,606240
-0.039978,-0.0369873,1.041081.64795,0.183105,17.7612,0.013,0.051,120.44,-0.00488281,-0.0316467,0,0,0,0,0,39.61,579.576,606255
0.0354614,-0.0258789,0.997681-0.488281,-0.488281,19.5312,-0.016,-0.019,119.86,-0.00483704,-0.0315704,0,0,0,0,0,39.61,579.611,606286
-0.0274658,0.0257568,1.00848-0.305176,-0.549316,18.7378,0.06,0.009,119.57,-0.00480652,-0.0315704,0,0,0,0,0,39.61,579.621,606300
-0.0285645,-0.0140991,1.03882-0.366211,-0.671387,20.0195,0.026,0.029,119.27,-0.00469971,-0.0315399,0,0,0,0,0,39.61,579.637,606315
0.0483398,0.0352173,1.006040.183105,-0.671387,19.4702,0.031,-0.061,118.98,-0.00457764,-0.0315399,0,0,0,0,0,39.61,579.657,606330
0.0661621,-0.000183105,1.01642-0.915527,-0.976562,16.9067,-0.006,-0.059,118.15,-0.00405884,-0.0315247,0,0,0,0,0,39.61,579.695,606375
-0.00634766,-0.0141602,0.99292-0.854492,-0.976562,16.1133,0.014,0.011,117.91,-0.00386047,-0.0315857,0,0,0,0,0,39.61,579.716,606390
0.0130615,-0.0229492,1.03625-0.488281,-0.488281,16.6016,0,-0.002,117.66,-0.00386047,-0.0316315,0,0,0,0,0,39.61,579.737,606406
-0.00531006,-0.0411377,0.9773561.77002,-0.854492,16.8457,-0.01,0.022,116.91,-0.0040741,-0.0314941,0,0,0,0,0,39.61,579.769,606451
-0.00531006,-0.0411377,0.9773561.77002,-0.854492,16.8457,-0.01,0.022,116.91,-0.0040741,-0.0314941,0,0,0,0,0,39.61,579.78,606451
-0.0337524,-0.0370483,1.03564-0.793457,-0.366211,16.2354,0.006,0.046,116.41,-0.00418091,-0.0312347,0,0,0,0,0,39.61,579.801,606481
0.0759277,0.0687866,0.97644-0.0610352,-1.52588,15.8081,0.052,-0.099,116.17,-0.00416565,-0.0311432,0,0,0,0,0,39.61,579.816,606496
-0.00878906,0.0333862,1.031621.40381,-0.793457,15.8691,0.059,-0.006,115.93,-0.00408936,-0.0311127,0,0,0,0,0,39.61,579.836,606511
0.0608521,0.00921631,0.991760.427246,-0.244141,16.1743,0.006,-0.058,115.45,-0.00398254,-0.0308533,0,0,0,0,0,39.64,579.858,606541
0.0239258,-0.0205078,1.043520.305176,-0.366211,15.0146,-0.003,-0.012,115.22,-0.00395203,-0.0307465,0,0,0,0,0,39.64,579.876,606556
-0.0740967,-0.0772705,1.06329-0.183105,0.427246,16.7236,-0.013,0.101,114.98,-0.00395203,-0.0305786,0,0,0,0,0,39.64,579.898,606571
0.0774536,0.0568237,0.942261-0.0610352,-0.793457,17.7002,0.041,-0.093,114.71,-0.00392151,-0.0304108,0,0,0,0,0,39.64,579.917,606586
-0.0253906,0.0596924,1.049930.244141,-0.793457,19.4702,0.089,0,114.16,-0.00364685,-0.0302582,0,0,0,0,0,39.64,579.937,606616
0.00701904,-0.0204468,1.01099-0.305176,-0.671387,20.2637,0.002,0.003,113.86,-0.00340271,-0.0301819,0,0,0,0,0,39.64,579.958,606631
0.00238037,0.00445557,0.989075-0.976562,-1.15967,19.2261,0.026,-0.002,113.57,-0.00314331,-0.0301819,0,0,0,0,0,39.64,579.976,606646
0.0280762,-0.0135498,1.01788-0.610352,-1.09863,20.813,0,-0.019,112.98,-0.0025177,-0.0301819,0,0,0,0,0,39.64,579.997,606676
0.00177002,0.0396118,1.01801-0.0610352,-0.854492,19.3481,0.06,-0.015,112.67,-0.00216675,-0.0301819,0,0,0,0,0,39.64,580.018,606691
0.0114136,-0.0141602,0.9915770.305176,-0.610352,19.4092,0.006,-0.003,112.39,-0.00177002,-0.0301819,0,0,0,0,0,39.64,580.037,606706
0.0333862,-0.0515137,1.02051-0.854492,-0.244141,17.7002,-0.035,-0.009,111.82,-0.000854492,-0.0303345,0,0,0,0,0,39.64,580.057,606736
-0.0177612,-0.0527954,1.04645-1.2207,0.12207,16.4795,-0.017,0.038,111.57,-0.000427246,-0.030426,0,0,0,0,0,39.64,580.076,606751
0.0368042,0.0145874,1.012880.488281,-0.427246,16.2964,0.025,-0.037,111.09,0.000442505,-0.0306396,0,0,0,0,0,39.64,580.097,606781
-0.0200195,0.0228271,0.974060,-0.305176,16.4185,0.052,0.012,110.84,0.000961304,-0.030777,0,0,0,0,0,39.64,580.117,606796
