raw_accel_x,raw_accel_y,raw_accel_z,world_accel_x,world_accel_y,yaw,left_encoder_rate,right_encoder_rate,fpga time,navx time
0.00799561,0.0122681,1.01404,-0.001,0.001,156.37,0,0,710.732,8943936,
0.00549316,0.0135498,1.01428,0.001,0,156.37,0,0,710.76,8943966,
0.00714111,0.0140991,1.01971,0,0,156.37,0,0,710.772,8943981,
0.00732422,0.0143433,1.01038,0,0,156.37,0,0,710.794,8943996,
0.00756836,0.0167847,1.01617,0,-0.002,156.37,0,0,710.815,8944026,
0.00866699,0.0142212,1.02045,-0.001,0,156.37,0,0,710.833,8944041,
0.00744629,0.0166626,1.0177,0,-0.002,156.37,0,0,710.852,8944056,
0.00592041,0.0126953,1.01587,0,0.001,156.37,0,0,710.873,8944086,
0.00775146,0.0158081,1.01379,0,-0.002,156.37,0,0,710.893,8944101,
0.00732422,0.0166626,1.0188,0.001,-0.002,156.37,0,0,710.913,8944116,
0.00994873,0.0137329,1.01868,-0.002,-0.001,156.37,0,0,710.932,8944146,
0.00537109,0.0131836,1.01874,0.001,0.001,156.37,0,0,710.952,8944161,
0.00701904,0.012085,1.01813,0,0.001,156.37,0,0,710.972,8944176,
0.00408936,0.0118408,1.013,0.002,0.003,156.37,0,0,710.992,8944206,
0.0088501,0.0131836,1.02057,-0.001,0,156.37,0,0,711.013,8944221,
0.0065918,0.0142212,1.01691,0,0,156.37,0,0,711.032,8944236,
0.00683594,0.0140381,1.01874,0,0,156.37,0,0,711.053,8944266,
0.00842285,0.0119629,1.0199,-0.002,0.001,156.37,0,0,711.072,8944281,
0.00726318,0.0129395,1.01514,0,0,156.37,0,0,711.092,8944296,
0.0098877,0.0158691,1.01953,-0.001,-0.002,156.37,0,0,711.116,8944326,
0.00762939,0.0165405,1.01636,0,-0.002,156.37,0,0,711.132,8944341,
0.00476074,0.0134888,1.01788,0.002,0.001,156.37,0,0,711.153,8944356,
0.00854492,0.015625,1.01538,0,-0.002,156.37,0,0,711.173,8944386,
0.0101318,0.0136719,1.01154,-0.002,-0.001,156.37,0,0,711.192,8944401,
0.00744629,0.012207,1.01965,0,0.001,156.37,0,0,711.213,8944416,
0.00872803,0.013916,1.02234,-0.001,0,156.37,0,0,711.232,8944446,
0.00830078,0.0165405,1.01788,0,-0.002,156.37,0,0,711.252,8944461,
0.0057373,0.0158081,1.01776,0.002,-0.001,156.37,0,0,711.272,8944476,
0.00549316,0.0171509,1.01782,0.002,-0.002,156.37,0,0,711.292,8944507,
0.00653076,0.012207,1.01886,0,0.001,156.37,0,0,711.313,8944522,
0.00506592,0.0140991,1.01373,0.002,0,156.37,0,0,711.333,8944537,
0.0090332,0.012207,1.01471,-0.002,0,156.37,0,0,711.353,8944567,
0.00762939,0.0141602,1.01556,0,0,156.36,0,0,711.373,8944582,
0.00665283,0.0100098,1.01758,-0.001,0.003,156.36,0,0,711.393,8944597,
0.00799561,0.0126343,1.01959,-0.001,0,156.36,0,0,711.412,8944627,
0.00604248,0.0142212,1.013,0.001,0,156.36,0,0,711.432,8944642,
0.00592041,0.0131226,1.01685,0,0.001,156.36,0,0,711.452,8944657,
0.00628662,0.0128174,1.01782,0,0.001,156.36,0,0,711.472,8944687,
0.00585938,0.0150146,1.01465,0.001,0,156.36,0,0,711.492,8944702,
0.00848389,0.015686,1.01727,0,-0.002,156.37,0,0,711.512,8944717,
0.00549316,0.0163574,1.01093,0.002,-0.001,156.36,0,0,711.533,8944747,
0.00848389,0.0123901,1.01819,-0.001,0,156.36,0,0,711.552,8944762,
0.00622559,0.0158691,1.01471,0.001,-0.001,156.36,0,0,711.572,8944777,
0.00872803,0.0167236,1.01355,0,-0.003,156.36,0,0,711.593,8944807,
0.00769043,0.0155029,1.01538,0,-0.001,156.36,0,0,711.614,8944822,
0.00714111,0.0133057,1.0163,0,0,156.36,0,0,711.635,8944837,
0.00958252,0.0118408,1.0191,-0.003,0,156.36,0,0,711.655,8944867,
0.00592041,0.0147705,1.01843,0.001,0,156.36,0,0,711.672,8944882,
0.00714111,0.0131836,1.0166,0,0,156.36,0,0,711.692,8944897,
0.00219727,0.0133667,1.01941,0.004,0.002,156.36,0,0,711.712,8944927,
0.00866699,0.0134888,1.01801,-0.001,0,156.36,0,0,711.732,8944942,
0.0103149,0.0134277,1.02313,-0.003,0,156.36,0,0,711.755,8944972,
0.00744629,0.0134888,1.00909,0,0,156.36,0,0,711.772,8944987,
0.00793457,0.0161133,1.01721,0,-0.002,156.36,0,0,711.793,8945002,
0.00854492,0.0140381,1.01361,-0.001,0,156.36,0,0,711.813,8945017,
0.00805664,0.0128784,1.01648,-0.001,0,156.36,0,0,711.833,8945047,
0.00775146,0.0134277,1.01587,0,0,156.37,0,0,711.86,8945077,
0.00775146,0.0134277,1.01587,0,0,156.37,0,0,711.873,8945077,
0.0057373,0.0125122,1.01996,0,0.002,156.37,0,0,711.892,8945107,
0.00531006,0.0150146,1.01501,0.002,0,156.37,0,0,711.912,8945122,
0.00817871,0.012207,1.01849,-0.001,0.001,156.37,0,0,711.934,8945137,
0.00970459,0.0146484,1.0213,-0.002,-0.001,156.36,0,0,711.954,8945167,
0.00531006,0.0113525,1.01514,0,0.003,156.36,0,0,711.973,8945182,
0.00500488,0.0152588,1.02063,0.002,0,156.37,0,0,711.992,8945197,
0.00891113,0.0153809,1.01508,-0.001,-0.001,156.37,0,0,712.012,8945227,
0.00579834,0.0140381,1.00806,0.001,0,156.37,0,0,712.04,8945257,
0.00579834,0.0140381,1.00806,0.001,0,156.37,0,0,712.052,8945257,
0.0100708,0.0137939,1.01581,-0.002,0,156.36,0,0,712.072,8945287,
0.00531006,0.013916,1.01727,0.001,0,156.36,0,0,712.092,8945302,
0.0108643,0.0142822,1.01294,-0.003,-0.001,156.36,0,0,712.112,8945317,
0.00860596,0.0150757,1.01898,0,-0.001,156.36,0,0,712.133,8945347,
0.00805664,0.0170898,1.01038,0,-0.003,156.36,0,0,712.152,8945362,
0.00524902,0.013855,1.01581,0.001,0,156.36,0,0,712.172,8945377,
0.00665283,0.0126343,1.02094,0,0.001,156.36,0,0,712.193,8945407,
0.00817871,0.0147095,1.01233,0,-0.001,156.36,0,0,712.212,8945422,
0.00506592,0.0167236,1.01965,0.003,-0.001,156.36,0,0,712.232,8945437,
0.00482178,0.0143433,1.02014,0.002,0,156.36,0,0,712.252,8945467,
0.00665283,0.0108643,1.0191,0,0.003,156.36,0,0,712.272,8945482,
0.00311279,0.0119629,1.0097,0.002,0.003,156.36,0,0,712.295,8945497,
0.0100708,0.0119019,1.01233,-0.003,0,156.36,0,0,712.312,8945527,
0.00939941,0.0123291,1.01794,-0.002,0,156.36,0,0,712.332,8945542,
0.00756836,0.0162964,1.01337,0,-0.002,156.36,0,0,712.353,8945557,
0.00646973,0.0119019,1.01483,0,0.002,156.36,0,0,712.372,8945587,
0.00579834,0.0170898,1.01233,0.002,-0.002,156.36,0,0,712.392,8945602,
0.00427246,0.0167847,1.01733,0.003,-0.001,156.36,0,0,712.412,8945617,
0.00897217,0.0115356,1.01807,-0.002,0.001,156.36,0,0,712.432,8945647,
0.00842285,0.0131226,1.01532,-0.001,0,156.36,0,0,712.454,8945662,
0.00671387,0.0158691,1.01947,0.001,-0.001,156.36,0,0,712.472,8945677,
0.00689697,0.0127563,1.01904,0,0.001,156.36,0,0,712.492,8945707,
0.00891113,0.0151978,1.02191,-0.001,-0.001,156.36,0,0,712.512,8945722,
0.00457764,0.0150146,1.01562,0.002,0,156.36,0,0,712.532,8945737,
0.00854492,0.0136719,1.01251,-0.001,0,156.36,0,0,712.556,8945767,
0.00537109,0.0150757,1.01831,0.001,0,156.36,0,0,712.574,8945782,
0.00640869,0.0142212,1.01208,0,0,156.36,0,0,712.592,8945797,
0.00897217,0.0150757,1.01459,-0.001,-0.001,156.36,0,0,712.619,8945827,
0.00408936,0.0135498,1.01721,0.002,0.001,156.36,0,0,712.632,8945842,
0.00793457,0.0128174,1.01459,-0.001,0,156.36,0,0,712.652,8945857,
0.00756836,0.0155029,1.013,0,-0.001,156.36,0,0,712.672,8945887,
0.00769043,0.012207,1.01764,-0.001,0.001,156.36,0,0,712.692,8945902,
0.00543213,0.0108032,1.01172,0,0.003,156.36,0,0,712.712,8945917,
0.003479,0.013855,1.01733,0.003,0.001,156.36,0,0,712.732,8945947,
0.00708008,0.0175171,1.01746,0.001,-0.003,156.36,0,0,712.752,8945962,
0.00634766,0.0128784,1.01678,0,0.001,156.36,0,0,712.775,8945977,
0.0065918,0.0136108,1.01392,0,0,156.36,0,0,712.792,8946007,
0.00738525,0.0100098,1.01965,-0.002,0.003,156.36,0,0,712.813,8946022,
0.00732422,0.0134888,1.01111,0,0,156.35,0,0,712.832,8946037,
0.0065918,0.0137329,1.0177,0,0,156.35,0,0,712.855,8946067,
0.00866699,0.0152588,1.01813,-0.001,-0.001,156.35,0,0,712.873,8946082,
0.00646973,0.0137939,1.01917,0,0,156.35,0,0,712.892,8946097,
0.00585938,0.0125122,1.01099,0,0.001,156.35,0,0,712.913,8946128,
0.00952148,0.0101318,1.01514,-0.003,0.002,156.35,0,0,712.933,8946143,
0.00744629,0.0131836,1.01947,0,0,156.35,0,0,712.952,8946158,
0.00384521,0.0134277,1.01855,0.002,0.001,156.35,0,0,712.972,8946188,
0.0078125,0.0154419,1.01642,0,-0.001,156.35,0,0,712.992,8946203,
0.00689697,0.0153198,1.01709,0,-0.001,156.35,0,0,713.013,8946218,
0.00421143,0.0144653,1.01678,0.002,0,156.35,0,0,713.032,8946248,
0.00872803,0.0168457,1.0141,0,-0.003,156.35,0,0,713.052,8946263,
0.00744629,0.0107422,1.01086,-0.001,0.002,156.35,0,0,713.072,8946278,
0.00646973,0.0137329,1.01929,0,0,156.35,0,0,713.092,8946293,
0.00518799,0.0122681,1.01611,0,0.002,156.35,0,0,713.114,8946323,
0.00567627,0.0131836,1.01605,0,0.001,156.35,0,0,713.132,8946338,
0.0078125,0.0116577,1.01843,-0.001,0.001,156.35,0,0,713.152,8946368,
0.00457764,0.0164795,1.01453,0.002,-0.001,156.35,0,0,713.173,8946383,
0.00860596,0.0126953,1.01453,-0.002,0,156.34,0,0,713.192,8946398,
0.00848389,0.0135498,1.01575,-0.001,0,156.34,0,0,713.213,8946428,
0.00915527,0.0133667,1.01538,-0.002,0,156.34,0,0,713.233,8946443,
0.00585938,0.0147095,1.01208,0.001,0,156.34,0,0,713.252,8946458,
0.00598145,0.012207,1.01886,0,0.002,156.34,0,0,713.273,8946488,
0.00836182,0.017334,1.01575,0,-0.003,156.34,0,0,713.292,8946503,
0.0043335,0.0126953,1.01849,0.001,0.002,156.34,0,0,713.324,8946533,
0.00683594,0.0126953,1.00983,0,0.001,156.34,0,0,713.332,8946548,
0.00616455,0.0144043,1.01868,0,0,156.34,0,0,713.354,8946563,
0.00701904,0.0139771,1.01263,0,0,156.34,0,0,713.373,8946578,
0.0098877,0.0144653,1.01654,-0.002,-0.001,156.34,0,0,713.393,8946608,
0.00518799,0.0162354,1.01343,0.002,-0.001,156.34,0,0,713.413,8946623,
0.00805664,0.017334,1.01123,0,-0.003,156.34,0,0,713.432,8946638,
0.00744629,0.0126343,1.02039,-0.001,0.001,156.34,0,0,713.453,8946668,
0.00836182,0.0125122,1.01361,-0.001,0,156.34,0,0,713.472,8946683,
0.00604248,0.0136719,1.02032,0,0,156.34,0,0,713.492,8946698,
0.00866699,0.0141602,1.01385,-0.001,0,156.35,0,0,713.512,8946728,
0.00964355,0.013855,1.01666,-0.002,0,156.34,0,0,713.533,8946743,
0.00695801,0.0151367,1.01233,0,0,156.35,0,0,713.553,8946758,
0.0055542,0.0123901,1.01556,0,0.002,156.34,0,0,713.572,8946788,
0.0057373,0.0161743,1.01703,0.001,-0.001,156.34,0,0,713.593,8946803,
0.0043335,0.0166626,1.01343,0.003,-0.001,156.34,0,0,713.613,8946818,
0.00634766,0.0139771,1.01282,0,0,156.34,0,0,713.632,8946848,
0.00561523,0.0159302,1.02118,0.001,0,156.34,0,0,713.652,8946863,
0.00836182,0.0144043,1.01587,-0.001,0,156.34,0,0,713.674,8946878,
0.00610352,0.0140991,1.01538,0,0,156.34,0,0,713.692,8946908,
0.0067749,0.0167236,1.0174,0.001,-0.002,156.34,0,0,713.712,8946923,
0.00531006,0.013855,1.02173,0.001,0.001,156.35,0,0,713.732,8946938,
0.0067749,0.0154419,1.01904,0,-0.001,156.34,0,0,713.752,8946968,
0.00720215,0.0135498,1.02057,0,0,156.34,0,0,713.779,8946983,
0.00805664,0.013916,1.01746,-0.001,0,156.34,0,0,713.793,8946998,
0.00488281,0.0150146,1.01495,0.002,0,156.34,0,0,713.812,8947028,
0.0088501,0.0140991,1.01941,-0.001,0,156.34,0,0,713.832,8947043,
0.00726318,0.013855,1.01459,0,0,156.34,0,0,713.852,8947058,
0.00665283,0.0161133,1.01599,0.001,-0.001,156.34,0,0,713.872,8947088,
0.0117188,0.0144043,1.02234,-0.004,-0.001,156.34,0,0,713.892,8947103,
0.00494385,0.0134277,1.01453,0.001,0.001,156.34,0,0,713.912,8947118,
0.00518799,0.0119019,1.01947,0,0.003,156.34,0,0,713.933,8947148,
0.0102539,0.0123901,1.01093,-0.003,0,156.34,0,0,713.952,8947163,
0.00543213,0.0141602,1.02094,0.001,0,156.34,0,0,713.973,8947178,
0.00592041,0.0146484,1.0105,0.001,0,156.34,0,0,713.992,8947194,
0.00616455,0.0126953,1.01288,0,0.001,156.34,0,0,714.019,8947223,
0.00787354,0.0165405,1.01428,0,-0.002,156.34,0,0,714.036,8947238,
0.00604248,0.0139771,1.01904,0,0,156.34,0,0,714.053,8947268,
0.00714111,0.010376,1.01855,-0.001,0.003,156.34,0,0,714.073,8947283,
0.00891113,0.0131836,1.01685,-0.002,0,156.34,0,0,714.093,8947298,
0.00689697,0.0170898,1.01318,0.001,-0.002,156.34,0,0,714.112,8947328,
0.00567627,0.0175781,1.01575,0.002,-0.002,156.34,0,0,714.131,8947343,
0.00646973,0.0145874,1.01508,0,0,156.34,0,0,714.152,8947358,
0.0055542,0.0155029,1.01819,0.001,0,156.34,0,0,714.172,8947374,
0.00823975,0.0160522,1.01562,0,-0.002,156.34,0,0,714.194,8947403,
0.00512695,0.0140381,1.0202,0.001,0.001,156.34,0,0,714.214,8947418,
0.00561523,0.0134888,1.01959,0,0.001,156.34,0,0,714.233,8947448,
0.00994873,0.0139771,1.01813,-0.002,0,156.34,0,0,714.253,8947463,
0.000793457,0.00799561,1.01599,0.003,0.008,156.34,0,0,714.272,8947478,
0.00897217,0.0124512,1.01929,-0.002,0,156.34,0,0,714.293,8947508,
0.00701904,0.0142822,1.013,0,0,156.34,0,0,714.312,8947523,
0.00744629,-0.0304565,1.02429,-0.018,0.04,156.33,-38.149,0,714.332,8947538,
0.0202637,-0.0524292,1.01337,-0.038,0.055,156.33,-38.214,0,714.353,8947568,
-0.0369263,-0.0460815,1.01044,0.016,0.071,156.32,-30.9771,0,714.372,8947583,
0.0153198,0.00311279,1.00989,-0.012,0.004,156.32,-19.7195,0,714.393,8947598,
-0.00164795,0.0270996,1.02466,0.013,-0.01,156.32,-20.0564,0,714.413,8947628,
-0.0161743,0.0609741,0.988953,0.04,-0.035,156.31,-21.7914,0,714.432,8947643,
0.0298462,0.0768433,1.01868,0.004,-0.067,156.3,-16.8534,0,714.453,8947658,
0.00378418,-0.0114136,1.01727,-0.007,0.024,156.3,-14.8521,0,714.473,8947688,
-0.032959,-0.0109863,1.02472,0.026,0.038,156.29,-12.2356,0,714.493,8947703,
0.0168457,0.0178223,1.01282,-0.007,-0.008,156.27,-11.322,0,714.512,8947718,
-0.00286865,0.0140991,1.01672,0.008,0.003,156.25,-10.0034,0,714.633,8947839,
0.00695801,0.00952148,1.01501,-0.002,0.004,156.25,-10.0034,0,714.652,8947869,
0.00823975,0.0113525,1.0257,-0.002,0.002,156.25,-4.74849,0,714.692,8947899,
0.0413208,-0.0109253,1.0191,-0.041,0.008,156.22,-35.862,0,714.732,8947944,
0.0344238,-0.00836182,1.01526,-0.033,0.008,156.21,-46.5663,0,714.755,8947959,
0.0375366,-0.0403442,1.00256,-0.047,0.035,156.12,-43.2399,0,714.792,8948004,
0.0962524,-0.0334473,1.0166,-0.097,0.005,155.98,-75.2482,0,714.832,8948049,
0.031311,-0.0318604,1.02191,-0.036,0.029,155.82,-72.2985,0,714.873,8948079,
0.0452881,-0.00585938,1.01178,-0.037,0,155.65,-65.0218,0,714.893,8948109,
0.0458374,-0.0130005,0.990967,-0.04,0.005,155.43,-96.1802,0,714.932,8948139,
0.114441,0.00280762,1.02649,-0.094,-0.037,155.03,-118.941,0,714.972,8948184,
0.0726929,0.0110474,1.0332,-0.052,-0.027,154.88,-141.917,0,714.994,8948199,
0.0518188,-0.0516357,1.06726,-0.057,0.038,154.36,-158.816,0,715.035,8948244,
0.0506592,-0.0167236,1.04718,-0.039,0.006,153.94,-192.132,0,715.073,8948274,
0.142517,-0.0307007,0.989685,-0.127,-0.023,153.45,-224.052,0,715.095,8948304,
0.135376,0.0161133,1.06049,-0.09,-0.066,150.38,-248.982,0,715.242,8948454,
0.0596924,0.024231,1.11005,-0.017,-0.034,149.3,-252.627,0,715.293,8948499,
0.00567627,0.0378418,0.855591,0.03,-0.022,148.57,-277.177,0,715.314,8948529,
0.0836182,0.0524902,1.06946,-0.023,-0.072,147.82,-228.376,0,715.353,8948559,
0.0706177,0.0383911,1.06274,-0.017,-0.052,146.29,-203.347,0,715.405,8948619,
0.12439,0.0405273,1.02399,-0.059,-0.084,145.48,-219.039,0,715.434,8948649,
0.00634766,0.0648804,0.996155,0.051,-0.037,145.07,-245.035,0,715.454,8948664,
0.0388184,0.0585938,1.06476,0.024,-0.048,143.8,-249.293,-1.57125,715.496,8948709,
0.130493,0.0377808,0.98407,-0.062,-0.087,142.92,-285.067,-18.6678,715.533,8948739,
0.112427,0.0532227,0.922607,-0.037,-0.09,141.57,-259.865,-44.4098,715.573,8948784,
0.0304565,0.0192871,1.06519,0.007,-0.008,140.19,-231.524,-44.8085,715.612,8948829,
-0.0944824,-0.067688,1.01917,0.044,0.136,139.35,-252.912,-44.8085,715.652,8948859,
-0.0548096,0.0756226,0.939941,0.105,0,138.15,-224.899,4.60335,715.692,8948904,
-0.050354,0.0397949,1.0517,0.078,0.026,137.79,-246.904,48.1555,715.713,8948919,
-0.145752,0.02948,0.974976,0.137,0.096,136.82,-216.603,60.1388,715.753,8948964,
-0.125244,0.0128784,1.02417,0.108,0.095,136.29,-223.889,81.4936,715.792,8948995,
-0.0657349,0.046875,1.03381,0.086,0.028,135.62,-175.336,100.844,715.838,8949039,
-0.0993652,-0.0119019,0.972351,0.065,0.091,135.14,-191.058,111.638,715.872,8949084,
-0.0699463,0.00848389,1.04999,0.058,0.056,135.02,-138.126,134.568,715.893,8949099,
-0.0745239,0.0602417,0.969604,0.095,0.02,134.8,-142.351,164.638,715.933,8949144,
-0.0926514,-0.026123,0.959167,0.045,0.092,134.75,-167.709,174.401,715.972,8949175,
0.0821533,0.0333252,0.965698,-0.034,-0.073,134.76,-186.619,171.706,715.993,8949204,
-0.0234985,0.0118408,0.999695,0.024,0.016,134.75,-280.733,181.122,716.032,8949235,
-0.0341797,-0.0176392,1.05505,0.011,0.044,134.73,-201.142,195.366,716.072,8949279,
0.0377197,-0.083374,0.987549,-0.084,0.038,134.73,-236.521,212.818,716.112,8949324,
0.0513916,-0.0230713,0.934387,-0.05,-0.014,134.71,-222.126,202.155,716.133,8949339,
-0.0742798,-0.0449219,1.06573,0.023,0.089,134.69,-278.734,258.128,716.172,8949385,
-0.0508423,-0.0292969,1.08942,0.02,0.061,134.66,-306.115,262.484,716.213,8949430,
-0.0718384,0.0100708,1.06964,0.063,0.048,134.65,-285.89,274.975,716.235,8949445,
0.0595093,-0.0352173,1.03418,-0.059,-0.013,134.64,-297.292,287.575,716.273,8949490,
0.00567627,0.00219727,1.06055,0.006,-0.001,134.61,-307.314,343.861,716.314,8949520,
0.0336914,-0.072998,0.867065,-0.067,0.03,134.59,-277.17,340.258,716.353,8949565,
0.0115356,-0.0131226,1.06976,-0.007,0.004,134.56,-367.202,298.023,716.392,8949595,
-0.0350342,-0.0344849,1.09686,0.01,0.052,134.56,-314.139,359.279,716.414,8949625,
-0.0373535,-0.024353,1.16815,0.02,0.047,134.54,-289.91,374.23,716.452,8949655,
-0.0479736,0.0187988,1.08246,0.059,0.023,134.52,-423.783,354.887,716.494,8949700,
0.0612793,-0.0651855,0.962952,-0.077,0.004,134.5,-395.75,368.507,716.521,8949730,
0.013855,0.0172729,0.994995,0.015,-0.02,134.48,-366.334,378.86,716.554,8949760,
0.0723877,-0.0305176,1.20294,-0.056,-0.029,134.46,-434.915,409.719,716.596,8949805,
-0.0792847,-0.0903931,1.11151,0.006,0.121,134.45,-341.828,379.291,716.632,8949835,
0.0170288,-0.00653076,1.0036,-0.002,-0.006,134.44,-476.44,445.643,716.654,8949865,
0.122192,-0.0421143,1.03021,-0.099,-0.057,134.41,-510.947,417.232,716.692,8949895,
-0.0630493,-0.0820312,1.09821,0.002,0.101,134.38,-280.3,433.266,716.732,8949940,
0.00482178,-0.0706177,0.81897,-0.041,0.045,134.35,-466.081,453.659,716.754,8949970,
0.24292,0.0662231,0.873779,-0.108,-0.221,134.33,-519.994,501.115,716.793,8950000,
0.0280151,-0.0383911,0.967163,-0.031,0.005,134.32,-571.282,423.119,716.814,8950015,
0.126221,-0.055481,1.02405,-0.111,-0.052,134.29,-447.037,462.513,716.852,8950060,
0.0666504,-0.0725708,1.17126,-0.079,0.001,134.26,-438.702,418.156,716.892,8950105,
0.461243,-0.0648804,0.252441,-0.364,-0.285,134.23,-607.644,447.437,716.914,8950120,
-0.184448,0.132996,0.97467,0.239,0.038,134.19,-540.672,479.214,716.952,8950165,
-0.0758057,0.0186157,0.891907,0.08,0.041,134.17,-423.343,495.05,716.992,8950195,
0.0915527,-0.00628662,0.983582,-0.052,-0.06,134.16,-512.216,506.586,717.016,8950225,
-0.0338135,0.0296021,1.12622,0.062,0.003,134.13,-518.323,555.494,717.053,8950255,
0.166626,0.0446777,1.04663,-0.066,-0.15,134.08,-488.269,308.923,717.092,8950300,
-0.332825,0.0922241,0.830078,0.311,0.177,133.96,-527.691,260.637,717.114,8950330,
-0.0558472,0.103821,1.03204,0.131,-0.026,133.76,-594.866,189.86,717.152,8950360,
0.0949707,0.129517,1.45233,0.053,-0.146,133.31,-464.457,109.842,717.192,8950405,
-0.0911865,-0.00164795,1.09509,0.08,0.079,132.91,-518.256,45.9551,717.232,8950436,
0.24939,0.0990601,0.988831,-0.076,-0.237,132.4,-312.339,45.9551,717.253,8950465,
-0.0705566,0.0678101,0.829407,0.113,0.02,131.83,-661.419,23.1925,717.292,8950496,
0.163879,0.0536499,0.717651,-0.053,-0.144,130.85,-489.728,23.1925,717.333,8950540,
0.150269,0.0788574,1.01733,-0.017,-0.142,130.09,-669.434,23.1925,717.353,8950570,
0.193176,0.100647,1.0766,-0.023,-0.186,129.26,-423.11,23.1925,717.392,8950600,
0.270264,0.0147095,1.15344,-0.134,-0.189,128.4,-531.844,23.1925,717.417,8950630,
0.149048,0.0334473,0.987244,-0.045,-0.109,127.51,-521.037,23.1925,717.453,8950660,
0.0128784,0.104004,1.06189,0.096,-0.036,126.04,-519.386,23.1925,717.492,8950705,
0.165161,0.137329,1.12732,0.037,-0.175,125.52,-519.036,23.1925,717.512,8950720,
0.186157,0.0714111,1.14313,-0.023,-0.151,123.85,-548.682,23.1925,717.552,8950765,
0.145569,0.0341187,0.884888,-0.034,-0.106,122.7,-601.016,23.1925,717.592,8950796,
0.0370483,-0.000915527,0.889099,-0.004,0.005,121.49,-466.059,1.33359,717.613,8950825,
0.0606079,0.0307617,1.03918,0.013,-0.022,119.58,-548.531,1.33359,717.652,8950870,
0.0120239,0.000854492,0.850708,0.008,0.027,118.25,-500.238,1.33359,717.692,8950900,
0.0309448,0.122192,0.752014,0.105,-0.048,116.9,-570.028,1.33359,717.714,8950930,
0.130066,0.0171509,0.925354,-0.029,-0.08,115.52,-508.997,1.33359,717.753,8950960,
0.170898,0.0723267,1.00812,0.008,-0.134,113.39,-481.904,0,717.792,8951005,
0.0900269,0.0742188,0.922607,0.042,-0.063,112.67,-467.946,0,717.814,8951021,
0.0704956,0.0696411,0.862305,0.046,-0.044,110.45,-441.462,-3.21696,717.852,8951066,
0.0889893,0.112488,1.07068,0.083,-0.06,108.17,-521.853,-3.21696,717.893,8951111,
0.06427,0.0687866,1.07819,0.05,-0.021,107.41,-458.831,-3.21696,717.914,8951126,
0.146423,0.0481567,0.832947,0.007,-0.107,105.88,-534.416,-3.21696,717.952,8951156,
0.173706,0.0548706,0.908325,0.011,-0.132,103.59,-569.233,-3.21696,717.992,8951201,
-0.159058,0.0576782,0.855591,0.09,0.188,102.82,-488.484,-3.21696,718.013,8951216,
0.164429,0.0938721,1.14758,0.057,-0.117,100.56,-540.628,-3.21696,718.052,8951261,
0.0224609,0.0853882,1.11792,0.073,0.023,99.06,-586.115,-3.21696,718.077,8951291,
0.0740356,0.0549927,1.13733,0.035,-0.02,97.56,-563.38,-5.31845,718.114,8951321,
-0.241638,0.0480347,0.841553,0.061,0.279,95.32,-563.984,-5.31845,718.152,8951366,
-0.143799,0.0370483,1.12103,0.033,0.199,93.84,-537.866,-5.31845,718.192,8951396,
0.0275879,0.0567017,0.985413,0.042,0.02,92.36,-516.116,-5.31845,718.214,8951426,
0.071167,0.0792236,0.945374,0.063,-0.024,90.9,-522.521,-5.31845,718.252,8951456,
0.0985718,0.0761108,0.986938,0.06,-0.048,89.44,-538.909,-5.31845,718.283,8951486,
0.155212,0.0869141,0.816833,0.079,-0.109,86.58,-613.855,-5.31845,718.332,8951546,
-0.09375,-0.0109253,0.931335,-0.037,0.139,85.86,-635.486,-5.31845,718.354,8951561,
-0.00634766,0.03125,1.1264,0.003,0.067,83.68,-637.653,0,718.393,8951606,
0.0626831,0.0367432,1.20544,0.015,0.006,81.47,-505.165,0,718.44,8951651,
0.0878906,0.0202026,0.713562,0.015,-0.045,80.72,-558.347,0,718.453,8951666,
0.219482,-0.0376587,0.794434,-0.017,-0.18,79.21,-485.26,0,718.492,8951696,
0.0714111,0.0712891,0.986938,0.054,0.01,68.41,-554.939,3.55721,718.695,8951906,
0.152771,0.0149536,1.01471,0.033,-0.082,66.88,-445.772,3.55721,718.732,8951936,
0.205994,-0.050354,1.1264,-0.003,-0.15,64.58,-524.742,3.55721,718.772,8951981,
0.22345,0.0576782,0.975281,0.11,-0.123,63.02,-532.396,3.55721,718.796,8952011,
0.0618896,0.0534668,0.989441,0.032,0.02,61.47,-537.389,3.55721,718.833,8952041,
0.00750732,0.0726318,1.09436,0.016,0.084,59.16,-631.612,3.55721,718.872,8952086,
0.0949707,0.0323486,1.12494,0.03,-0.003,49.41,-525.5,3.52398,719.073,8952281,
-0.155334,0.104309,1.17297,-0.114,0.221,40.38,-584.471,3.52398,719.272,8952477,
-0.0117188,0.038147,1.00531,-0.04,0.071,39.05,-485.956,3.52398,719.293,8952506,
-0.000793457,0.124939,1.07544,0.015,0.134,37.74,-558.363,2.38419,719.332,8952537,
0.104004,0.13446,1.28979,0.09,0.086,36.48,-494.939,3.79733,719.354,8952566,
0.139221,0.16156,1.22742,0.138,0.087,35.21,-553.143,27.0124,719.393,8952597,
0.15802,0.0393677,0.952637,0.101,-0.028,33.39,-529.857,93.9527,719.435,8952642,
-0.0496216,0.0352173,0.971619,-0.075,0.08,32.23,-545.316,104.676,719.454,8952672,
0.266785,-0.0078125,0.849243,0.178,-0.123,31.13,-506.765,264.012,719.492,8952702,
-0.215454,0.0879517,1.80182,-0.239,0.214,25.69,-805.38,231.927,719.652,8952867,
0.168823,-0.0925903,0.755981,0.077,-0.138,25.27,-515.584,315.786,719.673,8952882,
0.32373,0.0172119,1.13818,0.254,-0.089,23.77,-562.003,361.069,719.724,8952942,
0.0374756,-0.0563965,0.848206,-0.024,-0.048,23.45,-577.667,365.057,719.752,8952957,
-0.0523682,-0.184265,0.542847,-0.14,-0.138,22.59,-527.663,379.651,719.793,8953002,
0.373352,-0.0534058,1.03259,0.288,-0.166,21.88,-536.222,486.417,719.832,8953047,
-0.192993,0.0182495,1.34412,-0.221,0.117,21.67,-545.881,406.57,719.857,8953062,
0.0925903,-0.129883,0.988586,0.008,-0.134,21.03,-514.748,431.919,719.913,8953122,
0.0395508,0.0020752,1.15149,0.003,0.011,20.75,-573.74,497.413,719.952,8953167,
-0.126221,0.197205,1.14386,-0.081,0.252,20.68,-479.076,508.35,719.975,8953182,
-0.163696,-0.0841675,1.2923,-0.217,0.003,20.59,-585.72,518.565,720.012,8953227,
0.150208,-0.0159912,1.25708,0.102,-0.043,20.56,-587.061,494.927,720.052,8953257,
0.0373535,0.0252686,0.800781,0.023,0.026,20.55,-557.476,467.508,720.074,8953287,
0.078186,-0.0310059,1.12146,0.032,-0.033,20.52,-614.779,480.1,720.112,8953317,
0.110962,0.0742188,0.526306,0.115,0.041,20.47,-344.715,548.893,720.153,8953362,
-0.0690308,-0.0235596,0.954651,-0.097,0.021,20.46,-566.091,449.61,720.173,8953377,
0.212952,0.0754395,1.32013,0.188,0.022,20.37,-602.809,273.381,720.212,8953422,
0.139282,0.106934,0.920837,0.137,0.069,20.03,-499.102,163.427,720.256,8953467,
0.0437012,0.145691,1.15625,0.051,0.141,19.86,-619.502,213.104,720.274,8953482,
0.0438232,0.0969849,1.03326,0.033,0.092,19.18,-504.159,158.599,720.312,8953527,
-0.0772705,0.06073,0.794861,-0.095,0.086,16.37,-576.651,56.2803,720.432,8953647,
0.0239868,0.102417,0.953308,0.003,0.099,15.54,-600.817,37.5514,720.473,8953678,
0.102295,0.00140381,0.944031,0.051,-0.018,14.68,-527.732,35.738,720.493,8953707,
0.216248,0.0839233,1.24011,0.163,0.035,13.8,-581.734,25.9792,720.535,8953738,
0.0582886,0.0884399,1.07642,0.016,0.076,12.4,-585.806,15.2838,720.572,8953782,
0.184814,0.122864,0.945374,0.15,0.085,10.92,-445.792,15.2838,720.612,8953827,
0.0130005,0.0568848,0.962585,-0.032,0.052,10.41,-506.56,15.2838,720.634,8953842,
0.118958,0.0794067,1.04535,0.066,0.057,8.86,-499.575,15.2838,720.673,8953887,
0.149536,0.119934,1.12286,0.096,0.093,7.81,-625.802,15.2838,720.712,8953918,
0.319946,0.0145874,1.1015,0.251,-0.025,6.18,-415.584,15.2838,720.752,8953962,
-0.0865479,0.0507812,1.10938,-0.15,0.052,5.63,-518.108,15.2838,720.772,8953978,
0.0712891,0.0254517,1.25342,-0.008,0.011,3.94,-448.632,15.2838,720.813,8954022,
0.0213013,0.0152588,0.896912,-0.037,0.007,2.18,-488.938,15.2838,720.852,8954067,
0.189697,0.0215454,0.867676,0.131,0.008,1.57,-444.543,15.2838,720.873,8954082,
0.184875,0.0452271,0.959473,0.094,0.073,-16.25,-591.751,0,721.254,8954458,
0.138794,0.0701294,0.670593,0.058,0.094,-18.72,-519.534,0,721.293,8954503,
0.378906,-0.0656738,0.781921,0.319,0.055,-21.2,-545.152,0,721.332,8954548,
0.0154419,0.0928955,0.852417,-0.083,0.069,-22.04,-510.412,8.11864,721.354,8954563,
-0.153503,-0.00256348,0.826294,-0.198,-0.09,-24.54,-564.589,8.11864,721.392,8954608,
0.136841,0.0800781,1.29291,-0.005,0.091,-25.38,-626.822,8.11864,721.414,8954623,
0.242554,0.00238037,0.634338,0.166,0.094,-27.94,-473.597,8.11864,721.454,8954668,
0.0563354,0.0807495,0.802063,-0.049,0.07,-29.69,-521.458,8.11864,721.492,8954698,
-0.0279541,0.0305176,1.20337,-0.128,-0.033,-31.45,-455.218,8.11864,721.514,8954728,
-0.0526733,0.0534058,1.15582,-0.157,-0.028,-33.23,-584.368,0,721.553,8954758,
-0.0463867,0.11676,1.06512,-0.18,0.024,-35.93,-545.45,0,721.593,8954803,
0.0963745,0.0700073,1.198,-0.047,0.063,-36.84,-464.706,0,721.614,8954818,
-0.0296631,0.0649414,0.828796,-0.119,-0.004,-39.53,-530.602,0,721.652,8954863,
0.0362549,0.100586,1.04608,-0.108,0.051,-42.23,-482.87,0,721.692,8954908,
-0.0736084,-0.015625,0.843567,-0.096,-0.099,-43.13,-495.712,0,721.714,8954923,
0.315125,0.117432,1.08765,0.068,0.255,-45.84,-537.953,0,721.752,8954968,
0.214233,0.104187,1.12872,0,0.173,-47.65,-638.121,0,721.792,8954998,
0.394348,0.0808105,1.17975,0.127,0.292,-49.43,-680.573,0,721.814,8955028,
0.291443,0.151001,1.37756,-0.01,0.251,-51.21,-541.096,0,721.853,8955058,
0.394226,0.0501099,1.1911,0.134,0.283,-52.97,-787.433,0,721.875,8955088,
-0.107117,0.0507202,0.925476,-0.15,-0.105,-54.72,-664.319,0,721.914,8955118,
0.122131,0.072937,0.975708,-0.041,0.091,-57.31,-651.126,0,721.952,8955163,
-0.163391,-0.0022583,0.65979,-0.109,-0.178,-59.88,-535.031,0,721.993,8955208,
0.403809,0.106628,1.29999,0.046,0.332,-60.74,-517.157,0,722.013,8955223,
-0.0397949,0.00830078,0.863831,-0.06,-0.08,-63.3,-541.492,0,722.053,8955268,
0.109558,0.0363159,0.989441,-0.026,0.057,-65.03,-624.317,0,722.092,8955299,
-0.277649,0.0325928,0.886047,-0.169,-0.295,-67.58,-544.41,0,722.132,8955343,
0.231995,0.0234375,1.25116,0.013,0.15,-70.14,-751.625,0,722.173,8955388,
-0.09021,0.0413208,1.15607,-0.107,-0.14,-71,-675.79,0,722.195,8955403,
-0.208069,-0.0345459,0.824707,-0.051,-0.26,-73.58,-580.198,0,722.233,8955448,
-0.0913696,0.0662842,0.411072,-0.099,-0.096,-75.31,-471.91,0,722.272,8955479,
0.00714111,-0.0229492,0.801025,0.002,-0.048,-77.05,-575.971,0,722.292,8955508,
-0.0372314,-0.0146484,1.03278,-0.018,-0.104,-78.82,-504.363,0,722.332,8955539,
-0.0356445,0.00213623,1.06537,-0.031,-0.104,-81.47,-556.715,0,722.372,8955583,
-0.012207,0.0856934,1.31128,-0.113,-0.089,-83.27,-499.027,0,722.406,8955613,
0.0251465,0.0350342,1.22571,-0.055,-0.056,-85.09,-528.485,0,722.433,8955643,
-0.0410767,0.0806885,1.10291,-0.101,-0.112,-86.94,-477.145,0,722.472,8955673,
-0.0675049,0.0559692,0.865173,-0.069,-0.126,-88.8,-545.405,0,722.493,8955703,
0.170471,0.0758667,1.03253,-0.091,0.094,-91.64,-600.655,0,722.536,8955748,
0.209229,0.0283813,1.1485,-0.05,0.124,-93.55,-609.905,0,722.573,8955779,
0.145447,0.0633545,1.17914,-0.083,0.052,-95.49,-577.367,0,722.594,8955808,
0.249084,0.155212,1.39142,-0.19,0.123,-97.45,-663.306,0,722.632,8955839,
0.0151367,0.0440063,0.94281,-0.044,-0.063,-100.42,-613.685,-44.524,722.672,8955883,
0.266357,0.0715332,0.771729,-0.12,0.188,-101.42,-463.22,-44.524,722.695,8955899,
0.232666,0.0894775,0.92041,-0.138,0.133,-104.43,-568.004,0,722.732,8955944,
-0.0115356,0.10614,1.2334,-0.084,-0.134,-107.46,-660.96,0,722.775,8955989,
-0.0794678,-0.00360107,0.753662,0.038,-0.13,-108.48,-557.818,0,722.794,8956004,
0.309631,0.130859,0.804504,-0.222,0.18,-111.58,-606.097,0,722.833,8956049,
0.152649,0.0535889,0.870178,-0.093,0.054,-113.65,-634.699,0,722.872,8956079,
0.0354614,0.167175,1.13562,-0.139,-0.123,-115.75,-600.907,0,722.894,8956109,
0.145508,0.0651245,1.05475,-0.097,0.024,-116.8,-540.424,0,722.922,8956124,
0.0502319,0.128662,0.54541,-0.12,-0.06,-120.97,-657.83,0,722.972,8956184,
0.208801,0.0776367,1.15155,-0.141,0.058,-121.99,-707.689,0,722.992,8956199,
-0.012085,0.0801392,1.07257,-0.021,-0.124,-125.04,-518.914,0,723.032,8956244,
-0.000610352,0.0500488,0.948792,-0.005,-0.09,-126.04,-628.239,0,723.056,8956259,
0.251587,0.0150757,0.891663,-0.135,0.132,-129.01,-542.888,0,723.095,8956304,
0.130188,0.151672,1.4671,-0.14,-0.087,-131.99,-546.001,0,723.132,8956349,
0.172668,-0.0352173,1.13562,-0.043,0.085,-132.98,-574.944,0,723.152,8956364,
-0.081543,0.0618896,0.717529,0.046,-0.138,-135.96,-661.923,0,723.197,8956409,
-0.34613,0.038269,1.27673,0.29,-0.325,-137.95,-641.437,0,723.233,8956439,
-0.525818,0.172119,1.09088,0.337,-0.532,-138.97,-669.053,0,723.252,8956454,
-0.223816,0.0995483,0.885559,0.16,-0.258,-141.99,-560.208,0,723.292,8956499,
0.147278,0.0708008,0.890686,-0.113,-0.012,-144.02,-603.336,0,723.324,8956529,
0.241333,0.0532227,1.04431,-0.172,0.043,-146.05,-607.718,0,723.356,8956559,
0.146362,0.0475464,0.841675,-0.098,-0.015,-158.33,-736.675,0,723.533,8956739,
0.0783081,0.055603,0.984131,-0.024,-0.053,-161.4,-644.849,0,723.572,8956784,
-0.194031,0.0935669,0.77417,0.213,-0.158,-164.46,-729.581,0,723.612,8956829,
0.00280762,0.179077,0.93042,0.019,-0.191,-166.48,-609.961,0,723.652,8956859,
0.151123,0.109436,1.06049,-0.096,-0.094,-168.49,-526.787,0,723.673,8956889,
0.0741577,0.0308838,1.08215,-0.003,-0.032,-170.48,-530.251,0,723.712,8956920,
-0.00524902,0.144531,1.03625,0.061,-0.153,-173.47,-437.809,0,723.752,8956964,
0.204163,0.060791,0.903687,-0.146,-0.047,-174.48,-488.436,0,723.773,8956980,
0.194092,0.0563965,1.04016,-0.123,-0.051,-177.46,-568.683,0,723.812,8957024,
0.176331,0.0118408,0.987488,-0.107,-0.01,-179.45,-584.3,0,723.852,8957054,
0.229187,-0.0012207,0.99939,-0.15,-0.037,165.07,-624.005,0,724.072,8957280,
0.0291138,0.203125,1.07733,0.103,-0.18,164.01,-579.123,0,724.092,8957294,
0.193604,0.0914307,1.08636,-0.076,-0.121,160.81,-643.066,0,724.132,8957340,
-0.0124512,0.136475,1.0484,0.133,-0.092,158.67,-615.877,0,724.154,8957369,
-0.0794067,0.213135,0.886353,0.216,-0.136,156.52,-667.69,0,724.192,8957400,
0.1922,0.0855713,1.11456,-0.061,-0.124,153.29,-661.332,0,724.232,8957444,
0.152405,0.135559,0.858948,-0.016,-0.159,152.21,-690.155,0,724.254,8957460,
0.109192,0.0751953,0.998718,0.005,-0.08,149,-545.986,-1.27459,724.292,8957504,
0.139587,0.107544,1.13849,0.009,-0.118,145.82,-579.945,-1.20738,724.333,8957550,
-0.0288086,0.0963745,0.823975,0.124,-0.025,144.78,-622.568,-25.963,724.353,8957565,
-0.208313,0.0248413,1.12769,0.144,0.247,117.49,-567.408,0,724.772,8957985,
0.210449,0.0841675,1.19147,0.013,-0.145,114.66,-656.771,0,724.813,8958030,
-0.153992,-0.036377,0.241821,0.03,0.172,112.75,-580.198,0,724.847,8958060,
0.399231,-0.0247803,0.359802,-0.153,-0.339,109.88,-515.77,0,724.892,8958105,
-0.190796,0.0113525,0.948669,0.086,0.246,108.9,-602.228,0,724.915,8958120,
-0.132385,0.133301,1.18817,0.178,0.18,105.97,-689.631,0,724.955,8958165,
-0.27002,0.175232,1.04004,0.244,0.301,104.03,-459.548,3.93904,724.993,8958195,
-0.225708,0.0679321,0.883789,0.114,0.278,101.13,-547.54,3.93904,725.033,8958240,
0.24884,0.101379,0.966736,0.064,-0.182,98.28,-508.906,3.93904,725.074,8958285,
0.0856934,0.0846558,1.1983,0.073,0.002,97.32,-527.343,3.93904,725.096,8958300,
-0.0253296,0.132446,1.24866,0.129,0.116,94.49,-611.789,3.93904,725.133,8958345,
0.263184,0.0787964,0.842163,0.065,-0.196,91.66,-675.242,3.93904,725.182,8958390,
0.0795288,0.0189209,0.963989,0.01,0,88.82,-573.23,3.93904,725.221,8958435,
0.0675049,0.0790405,1.21075,0.067,0.037,85.91,-592.61,3.93904,725.264,8958480,
-0.137756,0.181213,1.26782,0.15,0.256,84.93,-736.865,3.93904,725.282,8958495,
0.341309,0.125061,1.00397,0.153,-0.238,81.98,-618.812,3.93904,725.334,8958541,
-0.0706787,0.144653,0.894897,0.111,0.168,79.99,-730.194,3.93904,725.355,8958570,
0.0969849,0.168152,1.08051,0.159,0.029,77.99,-660.677,0,725.392,8958601,
-0.100403,0.0541382,1.13947,-0.005,0.204,74.97,-592.435,0,725.432,8958645,
0.00286865,0.112183,1.25861,0.067,0.133,71.95,-683.527,0,725.481,8958690,
-0.00195312,0.15564,1.04352,0.109,0.139,69.91,-541.272,0,725.513,8958721,
0.102539,0.107483,0.999817,0.087,0.061,45.61,-785.423,0,725.873,8959081,
0.0733643,0.0671997,0.858276,0.045,0.047,42.71,-639.877,0,725.914,8959125,
-0.0110474,0.0689697,1.17218,-0.035,0.122,41.75,-563.063,0,725.934,8959141,
0.136658,0.0163574,0.960144,0.054,-0.024,38.93,-698.91,0,725.973,8959186,
0.197021,0.0110474,0.775879,0.114,-0.07,36.14,-631.373,0,726.017,8959231,
0.0947876,0.0942993,0.988403,0.064,0.069,34.29,-687.545,0,726.053,8959261,
0.18573,0.09021,0.929932,0.138,0.02,31.53,-469.439,0,726.092,8959306,
0.0281982,0.0740967,1.20258,-0.027,0.1,29.67,-482.649,0,726.122,8959336,
-0.122864,0.0283203,0.802246,-0.155,0.114,27.81,-692.833,0,726.155,8959366,
0.328308,0.100403,1.07452,0.257,-0.007,25.02,-557.911,0,726.207,8959411,
0.637634,0.0524902,0.898804,0.536,-0.17,23.15,-545.078,3.83738,726.232,8959441,
0.24585,-0.0752563,0.9599,0.127,-0.125,20.32,-492.053,0,726.273,8959486,
-0.0264893,0.00854492,0.750183,-0.085,0.036,16.51,-491.848,0,726.332,8959546,
0.151672,0.105469,1.09344,0.083,0.089,15.56,-657.138,0,726.353,8959561,
0.00915527,0.0616455,0.883484,-0.051,0.077,12.72,-510.608,0,726.393,8959606,
-0.0693359,0.145996,0.971252,-0.122,0.175,10.83,-560.428,0,726.433,8959636,
0.245483,0.125061,0.961914,0.178,0.104,8.02,-617.036,0,726.474,8959681,
0.0116577,0.104858,1.01331,-0.061,0.117,7.09,-523.999,0,726.493,8959696,
-0.0479736,0.048584,0.898254,-0.118,0.061,4.31,-659,0,726.532,8959741,
-0.349426,0.0440063,0.967834,-0.427,0.06,1.53,-543.449,0,726.574,8959786,
-0.00830078,0.139893,1.09009,-0.096,0.147,0.61,-720.072,0,726.592,8959801,
0.0654297,0.0839233,0.895691,-0.01,0.089,-2.13,-686.648,0,726.632,8959846,
0.00842285,0.0646362,0.937927,-0.071,0.066,-3.95,-672.585,0,726.672,8959876,
0.10791,0.0210571,1.03894,0.02,0.031,-6.71,-485.154,3.75684,726.712,8959921,
0.3125,0.0205078,0.525146,0.263,0.064,-8.57,-543.67,3.75684,726.735,8959951,
-0.00140381,-0.0420532,0.626892,-0.043,-0.045,-10.45,-631.971,0,726.772,8959981,
0.0265503,0.160645,1.00385,-0.09,0.153,-13.28,-653.509,0,726.813,8960026,
-0.107239,0.0289917,0.913269,-0.182,-0.007,-14.22,-531.448,0,726.836,8960041,
0.266052,0.104126,1.02466,0.142,0.162,-17.05,-657.635,0,726.874,8960086,
0.532471,0.11676,1.27429,0.366,0.261,-18.91,-587.441,5.67994,726.912,8960116,
0.124451,0.0829468,1.25122,-0.011,0.098,-21.69,-615.574,28.2827,726.953,8960162,
0.0043335,0.105713,0.872131,-0.103,0.08,-23.49,-604.175,27.8164,726.974,8960191,
0.0213013,0.0371094,0.839661,-0.058,0.023,-25.26,-630.716,34.4334,727.013,8960222,
-0.048645,-0.0352783,1.15948,-0.11,-0.082,-27.87,-630.676,71.846,727.052,8960266,
0.024292,-0.0316772,1.32086,-0.058,-0.049,-28.72,-627.038,78.6723,727.073,8960282,
0.116516,0.0610352,1.27277,-0.018,0.08,-31.17,-648.782,91.7692,727.112,8960326,
0.0715332,0.036499,0.872986,-0.018,0.047,-32.74,-475.184,117.824,727.152,8960356,
0.0547485,0.00286865,0.940247,-0.018,0.009,-34.26,-602.973,152.678,727.174,8960386,
-0.156555,0.0518799,0.971619,-0.219,-0.072,-35.74,-624.064,149.889,727.213,8960416,
0.0601807,0.0361938,0.857178,-0.004,0.058,-50,-229.163,275.854,727.772,8960987,
0.0498047,0.0703125,1.10388,-0.039,0.066,-50,-250.913,198.073,727.813,8961032,
-0.00506592,0.0774536,0.991211,-0.066,0.022,-49.98,-22.8482,27.1003,728.112,8961317,
0.00854492,0.0301514,1.02734,-0.02,0,-49.99,-22.8482,27.1003,728.152,8961362,
0.0147095,0.00341797,1.02759,0.004,-0.011,-49.99,4.68085,0,728.192,8961407,
0.0213623,-0.0122681,1.00598,0.02,-0.016,-49.99,10.0719,-8.88324,728.213,8961422,
0.0319824,-0.0171509,1.0166,0.03,-0.01,-49.99,18.451,-17.8348,728.252,8961467,
0.0256958,-0.0239868,1.01825,0.031,-0.019,-49.99,17.7584,-15.1084,728.292,8961497,
0.0218506,-0.0266724,1.01495,0.03,-0.023,-50,15.9903,-13.7497,728.319,8961527,
0.0221558,-0.0270386,1.01978,0.029,-0.023,-50,14.2649,-11.5811,728.352,8961557,
0.0217285,-0.00592041,1.01416,0.01,-0.007,-50,14.2649,-11.5811,728.532,8961737,
0.0189209,-0.0124512,1.00909,0.013,-0.013,-50,14.2649,-11.5811,728.554,8961767,
0.0185547,-0.0106812,1.00995,0.012,-0.011,-50,14.2649,-11.5811,728.593,8961797,
0.0153198,-0.0114746,1.01575,0.01,-0.014,-50.01,14.2649,-11.5811,728.632,8961843,
0.0180664,-0.00897217,1.01593,0.009,-0.01,-50.01,14.2649,-11.5811,728.653,8961857,
0.0165405,-0.0127563,1.01453,0.011,-0.014,-50.01,14.2649,-11.5811,728.682,8961887,
0.0204468,-0.0107422,1.01672,0.012,-0.009,-50.02,14.2649,-11.5811,728.716,8961932,
0.0187988,-0.0147705,1.01685,0.013,-0.013,-50.02,0,0,728.753,8961963,
0.0183716,-0.00952148,1.0199,0.009,-0.009,-50.02,0,0,728.793,8962007,
0.0183105,-0.0127563,1.01239,0.011,-0.011,-50.02,0,0,728.813,8962023,
0.0204468,-0.012085,1.0188,0.011,-0.009,-50.02,0,0,728.852,8962067,
0.0187988,-0.0101929,1.0202,0.009,-0.009,-50.02,0,0,728.893,8962097,
0.015564,-0.0102539,1.0188,0.006,-0.011,-50.02,0,0,728.914,8962127,
0.0192261,-0.0101929,1.02045,0.008,-0.008,-50.02,0,0,728.953,8962157,
0.017334,-0.0114746,1.01178,0.008,-0.01,-50.02,0,0,728.992,8962203,
0.0180054,-0.0109863,1.01617,0.008,-0.009,-50.02,0,0,729.013,8962217,
0.020752,-0.0119629,1.01587,0.01,-0.006,-50.02,0,0,729.137,8962352,
0.0162354,-0.00994873,1.01862,0.005,-0.008,-50.02,0,0,729.173,8962383,
0.0160522,-0.0108643,1.01227,0.005,-0.009,-50.02,0,0,729.212,8962428,
0.0179443,-0.0123291,1.01379,0.007,-0.008,-50.02,0,0,729.252,8962458,
0.0166016,-0.010376,1.01208,0.005,-0.008,-50.02,0,0,729.274,8962488,
0.0172729,-0.0111694,1.01508,0.006,-0.008,-50.02,0,0,729.312,8962518,
0.0184326,-0.0105591,1.01526,0.006,-0.006,-50.02,0,0,729.353,8962563,
0.0169678,-0.0127563,1.01044,0.007,-0.008,-50.02,0,0,729.373,8962578,
0.0202637,-0.0130005,1.01141,0.009,-0.006,-50.02,0,0,729.412,8962623,
0.0206299,-0.0128784,1.01154,0.008,-0.005,-50.02,0,0,729.452,8962668,
0.0166626,-0.0100098,1.01141,0.004,-0.006,-50.02,0,0,729.474,8962683,
0.0194702,-0.012085,1.01215,0.007,-0.005,-50.02,0,0,729.512,8962728,
0.0181885,-0.00921631,1.01489,0.004,-0.004,-50.02,0,0,729.552,8962758,
0.0177612,-0.0152588,1.01251,0.008,-0.009,-50.03,0,0,729.574,8962788,
0.0170288,-0.0109863,1.01733,0.004,-0.006,-50.02,0,0,729.612,8962818,
0.0178833,-0.00927734,1.0152,0.003,-0.004,-50.03,0,0,729.652,8962863,
0.0184326,-0.00927734,1.01282,0.003,-0.004,-50.03,0,0,729.692,8962908,
0.0184326,-0.00866699,1.01477,0.003,-0.003,-50.03,0,0,729.713,8962923,
0,0,0,0,0,0,0,0,0,0,
0,0,0,0,0,0,0,0,0,0,
0,0,0,0,0,0,0,0,0,0,
0,0,0,0,0,0,0,0,0,0,
0,0,0,0,0,0,0,0,0,0,
0,0,0,0,0,0,0,0,0,0,
0,0,0,0,0,0,0,0,0,0,
0,0,0,0,0,0,0,0,0,0,
0,0,0,0,0,0,0,0,0,0,
0,0,0,0,0,0,0,0,0,0,
0,0,0,0,0,0,0,0,0,0,
0,0,0,0,0,0,0,0,0,0,
0,0,0,0,0,0,0,0,0,0,
0,0,0,0,0,0,0,0,0,0,
0,0,0,0,0,0,0,0,0,0,
0,0,0,0,0,0,0,0,0,0,
0,0,0,0,0,0,0,0,0,0,
0,0,0,0,0,0,0,0,0,0,
0,0,0,0,0,0,0,0,0,0,
0,0,0,0,0,0,0,0,0,0,
0,0,0,0,0,0,0,0,0,0,
0,0,0,0,0,0,0,0,0,0,
0,0,0,0,0,0,0,0,0,0,
0,0,0,0,0,0,0,0,0,0,
0,0,0,0,0,0,0,0,0,0,
0,0,0,0,0,0,0,0,0,0,
0,0,0,0,0,0,0,0,0,0,
0,0,0,0,0,0,0,0,0,0,
0,0,0,0,0,0,0,0,0,0,
0,0,0,0,0,0,0,0,0,0,
0,0,0,0,0,0,0,0,0,0,
0,0,0,0,0,0,0,0,0,0,
0,0,0,0,0,0,0,0,0,0,
0,0,0,0,0,0,0,0,0,0,
0,0,0,0,0,0,0,0,0,0,
0,0,0,0,0,0,0,0,0,0,
0,0,0,0,0,0,0,0,0,0,
0,0,0,0,0,0,0,0,0,0,
0,0,0,0,0,0,0,0,0,0,
0,0,0,0,0,0,0,0,0,0,
0,0,0,0,0,0,0,0,0,0,
0,0,0,0,0,0,0,0,0,0,
0,0,0,0,0,0,0,0,0,0,
0,0,0,0,0,0,0,0,0,0,
0,0,0,0,0,0,0,0,0,0,
0,0,0,0,0,0,0,0,0,0,
0,0,0,0,0,0,0,0,0,0,
0,0,0,0,0,0,0,0,0,0,
0,0,0,0,0,0,0,0,0,0,
0,0,0,0,0,0,0,0,0,0,
0,0,0,0,0,0,0,0,0,0,
0,0,0,0,0,0,0,0,0,0,
0,0,0,0,0,0,0,0,0,0,
0,0,0,0,0,0,0,0,0,0,
0,0,0,0,0,0,0,0,0,0,
0,0,0,0,0,0,0,0,0,0,
0,0,0,0,0,0,0,0,0,0,
0,0,0,0,0,0,0,0,0,0,
0,0,0,0,0,0,0,0,0,0,
0,0,0,0,0,0,0,0,0,0,