accel_x,accel_y,accel_z,gyro_x,gyro_y,gyro_z,x,y,z,left_encoder_rate,right_encoder_rate,left_input,right_input,fpga time,navx time
     0,0,0,0,0,0,0,0,0,0,0,-0.0078125,0.03125,559.869,0
     0,0,0,0,0,0,0,0,0,0,0,-0.0078125,0.03125,559.886,0
     0,0,0,0,0,0,0,0,0,0,0,-0.0078125,0.03125,559.906,0
     0,0,0,0,0,0,0,0,0,0,0,-0.0078125,0.03125,559.926,0
     0,0,0,0,0,0,0,0,0,0,0,-0.0078125,0.03125,559.946,0
     0,0,0,0,0,0,0,0,0,0,0,-0.0078125,0.03125,559.966,0
     0,0,0,0,0,0,0,0,0,0,0,-0.0078125,0.03125,559.986,0
     0,0,0,0,0,0,0,0,0,0,0,-0.0078125,0.03125,560.007,0
     0,0,0,0,0,0,0,0,0,0,0,-0.0078125,0.03125,560.027,0
     0,0,0,0,0,0,0,0,0,0,0,-0.0078125,0.03125,560.047,0
     0,0,0,0,0,0,0,0,0,0,0,-0.0078125,0.03125,560.067,0
     0,0,0,0,0,0,0,0,0,0,0,-0.0078125,0.03125,560.087,0
     0,0,0,0,0,0,0,0,0,0,0,-0.0078125,0.03125,560.107,0
     0,0,0,0,0,0,0,0,0,0,0,-0.0078125,0.03125,560.126,0
     0,0,0,0,0,0,0,0,0,0,0,-0.0078125,0.03125,560.147,0
     0,0,0,0,0,0,0,0,0,0,0,-0.0078125,0.03125,560.174,0
     0,0,0,0,0,0,0,0,0,0,0,-0.0078125,0.03125,560.191,0
     0,0,0,0,0,0,0,0,0,0,0,-0.0078125,0.03125,560.206,0
     0,0,0,0,0,0,0,0,0,0,0,-0.0078125,0.03125,560.226,0
     0,0,0,0,0,0,0,0,0,0,0,-0.0078125,0.03125,560.246,0
     0,0,0,0,0,0,0,0,0,0,0,-0.0078125,0.03125,560.266,0
     0,0,0,0,0,0,0,0,0,0,0,-0.0078125,0.03125,560.286,0
     0,0,0,0,0,0,0,0,0,0,0,-0.0078125,0.03125,560.306,0
     0,0,0,0,0,0,0,0,0,0,0,-0.0078125,0.03125,560.326,0
     0,0,0,0,0,0,0,0,0,0,0,-0.0078125,0.03125,560.346,0
     0,0,0,0,0,0,0,0,0,0,0,-0.0078125,0.03125,560.366,0
     0,0,0,0,0,0,0,0,0,0,0,-0.0078125,0.03125,560.387,0
     0,0,0,0,0,0,0,0,0,0,0,-0.0078125,0.03125,560.406,0
     0,0,0,0,0,0,0,0,0,0,0,-0.0078125,0.03125,560.426,0
     0,0,0,0,0,0,0,0,0,0,0,-0.0078125,0.03125,560.446,0
     0,0,0,0,0,0,0,0,0,0,0,-0.0078125,0.03125,560.466,0
     0,0,0,0,0,0,0,0,0,0,0,-0.0078125,0.03125,560.486,0
     0,0,0,0,0,0,0,0,0,0,0,-0.0078125,0.03125,560.527,0
     0,0,0,0,0,0,0,0,0,0,0,-0.0078125,0.03125,560.53,0
     0,0,0,0,0,0,0,0,0,0,0,-0.0078125,0.03125,560.546,0
     0,0,0,0,0,0,0,0,0,0,0,-0.0078125,0.03125,560.566,0
     0,0,0,0,0,0,0,0,0,0,0,-0.0078125,0.03125,560.587,0
     0,0,0,0,0,0,0,0,0,0,0,-0.0078125,0.03125,560.607,0
     0,0,0,0,0,0,0,0,0,0,0,-0.0078125,0.03125,560.627,0
     0,0,0,0,0,0,0,0,0,0,0,-0.0078125,0.03125,560.647,0
     0,0,0,0,0,0,0,0,0,0,0,-0.0078125,0.03125,560.667,0
     0,0,0,0,0,0,0,0,0,0,0,-0.0078125,0.03125,560.687,0
     0,0,0,0,0,0,0,0,0,0,0,-0.0078125,0.03125,560.707,0
     0,0,0,0,0,0,0,0,0,0,0,-0.0078125,0.03125,560.727,0
     0,0,0,0,0,0,0,0,0,0,0,-0.0078125,0.03125,560.747,0
     0,0,0,0,0,0,0,0,0,0,0,-0.0078125,0.03125,560.766,0
     0,0,0,0,0,0,0,0,0,0,0,-0.0078125,0.03125,560.788,0
     0,0,0,0,0,0,0,0,0,0,0,-0.0078125,0.03125,560.806,0
     0,0,0,0,0,0,0,0,0,0,0,-0.0078125,0.03125,560.826,0
     0,0,0,0,0,0,0,0,0,0,0,-0.0078125,0.03125,560.846,0
     0,0,0,0,0,0,0,0,0,0,0,-0.0078125,0.03125,560.866,0
     0,0,0,0,0,0,0,0,0,0,0,-0.0078125,0.03125,560.886,0
     0,0,0,0,0,0,0,0,0,0,0,-0.0078125,0.03125,560.906,0
     0,0,0,0,0,0,0,0,0,0,0,-0.0078125,0.03125,560.926,0
     0,0,0,0,0,0,0,0,0,0,0,-0.0078125,0.03125,560.946,0
     0,0,0,0,0,0,0,0,0,0,0,-0.0078125,0.03125,560.973,0
     0,0,0,0,0,0,0,0,0,0,0,-0.0078125,0.03125,560.986,0
     0,0,0,0,0,0,0,0,0,0,-106.64,-0.0078125,0.03125,561.007,0
     0,0,0,0,0,0,0,0,0,11.0793,-61.4855,-0.0078125,0.03125,561.026,0
     0,0,0,0,0,0,0,0,0,221.939,-86.795,-0.0078125,0.03125,561.047,0
     0,0,0,0,0,0,0,0,0,148.652,-111.922,-0.0078125,0.03125,561.066,0
     0,0,0,0,0,0,0,0,0,133.801,-212.599,-0.0078125,0.03125,561.086,0
     0,0,0,0,0,0,0,0,0,187.47,-275.531,-0.0078125,0.03125,561.107,0
     0,0,0,0,0,0,0,0,0,234.667,-204.53,-0.0078125,0.03125,561.127,0
     0,0,0,0,0,0,0,0,0,245.561,-234.368,-0.0078125,0.03125,561.146,0
     0,0,0,0,0,0,0,0,0,234.957,-243.837,-0.0078125,0.03125,561.167,0
     0,0,0,0,0,0,0,0,0,252.966,-269.96,-0.0078125,0.03125,561.186,0
     0,0,0,0,0,0,0,0,0,259.242,-332.392,-0.0078125,0.03125,561.206,0
     0,0,0,0,0,0,0,0,0,259.202,-328.737,-0.0078125,0.03125,561.227,0
     0,0,0,0,0,0,0,0,0,291.949,-257.04,-0.0078125,0.03125,561.246,0
     0,0,0,0,0,0,0,0,0,330.033,-333.806,-0.0078125,0.03125,561.268,0
     0,0,0,0,0,0,0,0,0,304.72,-308.171,-0.0078125,0.03125,561.287,0
     0,0,0,0,0,0,0,0,0,337.764,-341.419,-0.0078125,0.03125,561.312,0
     0,0,0,0,0,0,0,0,0,327.338,-369.426,-0.0078125,0.03125,561.326,0
     0,0,0,0,0,0,0,0,0,337.069,-344.139,-0.0078125,0.03125,561.347,0
     0,0,0,0,0,0,0,0,0,379.147,-400.208,-0.0078125,0.03125,561.367,0
     0,0,0,0,0,0,0,0,0,357.481,-307.934,-0.0078125,0.03125,561.387,0
     0,0,0,0,0,0,0,0,0,396.558,-440.325,-0.0078125,0.03125,561.407,0
     0,0,0,0,0,0,0,0,0,392.195,-385.661,-0.0078125,0.03125,561.426,0
     0,0,0,0,0,0,0,0,0,428.771,-375.82,-0.0078125,0.03125,561.446,0
     0,0,0,0,0,0,0,0,0,363.352,-383.23,-0.0078125,0.03125,561.467,0
     0,0,0,0,0,0,0,0,0,367.255,-402.585,-0.0078125,0.03125,561.486,0
     0,0,0,0,0,0,0,0,0,379.759,-383.539,-0.0078125,0.03125,561.506,0
     0,0,0,0,0,0,0,0,0,384.934,-346.296,-0.0078125,0.03125,561.526,0
     0,0,0,0,0,0,0,0,0,394.454,-403.796,-0.0078125,0.03125,561.546,0
     0,0,0,0,0,0,0,0,0,416.927,-313.607,-0.0078125,0.03125,561.566,0
     0,0,0,0,0,0,0,0,0,395.765,-434.358,-0.0078125,0.03125,561.586,0
     0,0,0,0,0,0,0,0,0,359.576,-379.104,-0.0078125,0.03125,561.607,0
     0,0,0,0,0,0,0,0,0,423.074,-394.4,-0.0078125,0.03125,561.626,0
     0,0,0,0,0,0,0,0,0,375.989,-402.536,-0.0078125,0.03125,561.646,0
     0,0,0,0,0,0,0,0,0,406.868,-377.031,-0.0078125,0.03125,561.666,0
     0,0,0,0,0,0,0,0,0,385.245,-411.989,-0.0078125,0.03125,561.686,0
     0,0,0,0,0,0,0,0,0,422.262,-375.115,-0.0078125,0.03125,561.706,0
     0,0,0,0,0,0,0,0,0,415.809,-416.354,-0.0078125,0.03125,561.726,0
     0,0,0,0,0,0,0,0,0,444.316,-384.867,-0.0078125,0.03125,561.746,0
     0,0,0,0,0,0,0,0,0,431.928,-277.216,-0.0078125,0.03125,561.766,0
     0,0,0,0,0,0,0,0,0,391.765,-381.811,-0.0078125,0.03125,561.786,0
     0,0,0,0,0,0,0,0,0,378.759,-433.887,-0.0078125,0.03125,561.807,0
     0,0,0,0,0,0,0,0,0,410.728,-393.082,-0.0078125,0.03125,561.826,0
     0,0,0,0,0,0,0,0,0,407.764,-425.822,-0.0078125,0.03125,561.846,0
     0,0,0,0,0,0,0,0,0,410.08,-366.22,-0.0078125,0.03125,561.866,0
     0,0,0,0,0,0,0,0,0,440.257,-446.12,-0.0078125,0.03125,561.886,0
     0,0,0,0,0,0,0,0,0,383.23,-379.341,-0.0078125,0.03125,561.906,0
     0,0,0,0,0,0,0,0,0,401.962,-409.878,-0.0078125,0.03125,561.926,0
     0,0,0,0,0,0,0,0,0,377.943,-317.294,-0.0078125,0.03125,561.946,0
     0,0,0,0,0,0,0,0,0,401.469,-416.623,-0.0078125,0.03125,561.967,0
     0,0,0,0,0,0,0,0,0,351.259,-366.946,-0.0078125,0.03125,561.987,0
     0,0,0,0,0,0,0,0,0,389.833,-381.41,-0.0078125,0.03125,562.007,0
     0,0,0,0,0,0,0,0,0,411.607,-354.862,-0.0078125,0.03125,562.029,0
     0,0,0,0,0,0,0,0,0,405.622,-394.586,-0.0078125,0.03125,562.046,0
     0,0,0,0,0,0,0,0,0,392.85,-386.391,-0.0078125,0.03125,562.066,0
     0,0,0,0,0,0,0,0,0,424.989,-371.561,-0.0078125,0.03125,562.086,0
     0,0,0,0,0,0,0,0,0,368.08,-356.125,-0.0078125,0.03125,562.106,0
     0,0,0,0,0,0,0,0,0,373.336,-406.166,-0.0078125,0.03125,562.126,0
     0,0,0,0,0,0,0,0,0,381.628,-397.67,-0.0078125,0.03125,562.146,0
     0,0,0,0,0,0,0,0,0,402.674,-378.365,-0.0078125,0.03125,562.166,0
     0,0,0,0,0,0,0,0,0,409.123,-469.671,-0.0078125,0.03125,562.186,0
     0,0,0,0,0,0,0,0,0,402.196,-392.241,-0.0078125,0.03125,562.206,0
     0,0,0,0,0,0,0,0,0,400.416,-480.596,-0.0078125,0.03125,562.227,0
     0,0,0,0,0,0,0,0,0,359.906,-418.962,-0.0078125,0.03125,562.246,0
     0,0,0,0,0,0,0,0,0,423.298,-475.715,-0.0078125,0.03125,562.267,0
     0,0,0,0,0,0,0,0,0,387.169,-413.556,-0.0078125,0.03125,562.287,0
     0,0,0,0,0,0,0,0,0,453.186,-432.302,-0.0078125,0.03125,562.308,0
     0,0,0,0,0,0,0,0,0,436.167,-431.611,-0.0078125,0.03125,562.327,0
     0,0,0,0,0,0,0,0,0,477.943,-399.864,-0.0078125,0.03125,562.347,0
     0,0,0,0,0,0,0,0,0,416.693,-410.998,-0.0078125,0.03125,562.367,0
     0,0,0,0,0,0,0,0,0,401.647,-314.747,-0.0078125,0.03125,562.387,0
     0,0,0,0,0,0,0,0,0,421.15,-387.102,-0.0078125,0.03125,562.407,0
     0,0,0,0,0,0,0,0,0,474.125,-445.792,-0.0078125,0.03125,562.427,0
     0,0,0,0,0,0,0,0,0,384.519,-428.266,-0.0078125,0.03125,562.446,0
     0,0,0,0,0,0,0,0,0,423.917,-479.708,-0.0078125,0.03125,562.466,0
     0,0,0,0,0,0,0,0,0,400.505,-416.649,-0.0078125,0.03125,562.486,0
     0,0,0,0,0,0,0,0,0,419.226,-440.48,-0.0078125,0.03125,562.506,0
     0,0,0,0,0,0,0,0,0,406.133,-363.921,-0.0078125,0.03125,562.526,0
     0,0,0,0,0,0,0,0,0,425.324,-427.743,-0.0078125,0.03125,562.546,0
     0,0,0,0,0,0,0,0,0,408.63,-407.864,-0.0078125,0.03125,562.566,0
     0,0,0,0,0,0,0,0,0,417.65,-423.792,-0.0078125,0.03125,562.587,0
     0,0,0,0,0,0,0,0,0,427.515,-343.477,-0.0078125,0.03125,562.606,0
     0,0,0,0,0,0,0,0,0,427.004,-479.697,-0.0078125,0.03125,562.626,0
     0,0,0,0,0,0,0,0,0,444.652,-444.375,-0.0078125,0.03125,562.646,0
     0,0,0,0,0,0,0,0,0,433.802,-403.12,-0.0078125,0.03125,562.666,0
     0,0,0,0,0,0,0,0,0,426.803,-371.437,-0.0078125,0.03125,562.686,0
     0,0,0,0,0,0,0,0,0,450.501,-535.26,-0.0078125,0.03125,562.706,0
     0,0,0,0,0,0,0,0,0,459.707,-412.55,-0.0078125,0.03125,562.726,0
     0,0,0,0,0,0,0,0,0,456.788,-442.038,-0.0078125,0.03125,562.746,0
     0,0,0,0,0,0,0,0,0,410.256,-396.684,-0.0078125,0.03125,562.766,0
     0,0,0,0,0,0,0,0,0,422.092,-412.558,-0.0078125,0.03125,562.787,0
     0,0,0,0,0,0,0,0,0,412.465,-395.859,-0.0078125,0.03125,562.809,0
     0,0,0,0,0,0,0,0,0,401.598,-385.238,-0.0078125,0.03125,562.826,0
     0,0,0,0,0,0,0,0,0,405.523,-452.172,-0.0078125,0.03125,562.847,0
     0,0,0,0,0,0,0,0,0,425.595,-312.227,-0.0078125,0.03125,562.866,0
     0,0,0,0,0,0,0,0,0,390.862,-418.997,-0.0078125,0.03125,562.887,0
     0,0,0,0,0,0,0,0,0,401.429,-400.208,-0.0078125,0.03125,562.907,0
     0,0,0,0,0,0,0,0,0,403.071,-401.51,-0.0078125,0.03125,562.927,0
     0,0,0,0,0,0,0,0,0,436.958,-386.802,-0.0078125,0.03125,562.946,0
     0,0,0,0,0,0,0,0,0,381.862,-402.633,-0.0078125,0.03125,562.967,0
     0,0,0,0,0,0,0,0,0,418.734,-396.126,-0.0078125,0.03125,562.987,0
     0,0,0,0,0,0,0,0,0,210.759,-422.369,-0.0078125,0.03125,563.02,0
     0,0,0,0,0,0,0,0,0,-41.2189,-434.764,-0.0078125,0.03125,563.027,0
     0,0,0,0,0,0,0,0,0,-83.374,-531.082,-0.0078125,0.03125,563.047,0
     0,0,0,0,0,0,0,0,0,-69.2526,-392.835,-0.0078125,0.03125,563.066,0
     0,0,0,0,0,0,0,0,0,-43.6716,-440.228,-0.0078125,0.03125,563.086,0
     0,0,0,0,0,0,0,0,0,-23.801,-381.847,-0.0078125,0.03125,563.106,0
     0,0,0,0,0,0,0,0,0,-37.9848,-441.696,-0.0078125,0.03125,563.126,0
     0,0,0,0,0,0,0,0,0,-42.6341,-436.939,-0.0078125,0.03125,563.146,0
     0,0,0,0,0,0,0,0,0,-60.3939,-377.33,-0.0078125,0.03125,563.166,0
     0,0,0,0,0,0,0,0,0,-69.8134,-364.014,-0.0078125,0.03125,563.186,0
     0,0,0,0,0,0,0,0,0,-100.101,-413.411,-0.0078125,0.03125,563.206,0
     0,0,0,0,0,0,0,0,0,-138.836,-347.82,-0.0078125,0.03125,563.226,0
     0,0,0,0,0,0,0,0,0,-139.996,-383.98,-0.0078125,0.03125,563.246,0
     0,0,0,0,0,0,0,0,0,-162.342,-373.336,-0.0078125,0.03125,563.266,0
     0,0,0,0,0,0,0,0,0,-178.758,-419.939,-0.0078125,0.03125,563.286,0
     0,0,0,0,0,0,0,0,0,-227.102,-330.202,-0.0078125,0.03125,563.306,0
     0,0,0,0,0,0,0,0,0,-214.975,-392.211,-0.0078125,0.03125,563.326,0
     0,0,0,0,0,0,0,0,0,-233.182,-397.117,-0.0078125,0.03125,563.346,0
     0,0,0,0,0,0,0,0,0,-243.439,-422.244,-0.0078125,0.03125,563.371,0
     0,0,0,0,0,0,0,0,0,-248.877,-455.052,-0.0078125,0.03125,563.386,0
     0,0,0,0,0,0,0,0,0,-272.647,-350.453,-0.0078125,0.03125,563.432,0
     0,0,0,0,0,0,0,0,0,-257.169,-328.915,-0.0078125,0.03125,563.441,0
     0,0,0,0,0,0,0,0,0,-263.8,-384.978,-0.0078125,0.03125,563.447,0
     0,0,0,0,0,0,0,0,0,-246.333,-454.99,-0.0078125,0.03125,563.466,0
     0,0,0,0,0,0,0,0,0,-265.647,-377.615,-0.0078125,0.03125,563.487,0
     0,0,0,0,0,0,0,0,0,-294.04,-416.069,-0.0078125,0.03125,563.506,0
     0,0,0,0,0,0,0,0,0,-255.984,-382.015,-0.0078125,0.03125,563.532,0
     0,0,0,0,0,0,0,0,0,-304.479,-392.372,-0.0078125,0.03125,563.547,0
     0,0,0,0,0,0,0,0,0,-315.224,-390.885,-0.0078125,0.03125,563.567,0
     0,0,0,0,0,0,0,0,0,-262.429,-352.082,-0.0078125,0.03125,563.587,0
     0,0,0,0,0,0,0,0,0,-266.45,-400.376,-0.0078125,0.03125,563.607,0
     0,0,0,0,0,0,0,0,0,-313.716,-376.011,-0.0078125,0.03125,563.627,0
     0,0,0,0,0,0,0,0,0,-271.998,-297.889,-0.0078125,0.03125,563.648,0
     0,0,0,0,0,0,0,0,0,-254.398,-374.035,-0.0078125,0.03125,563.667,0
     0,0,0,0,0,0,0,0,0,-365.564,-449.368,-0.0078125,0.03125,563.686,0
     0,0,0,0,0,0,0,0,0,-291.881,-392.68,-0.0078125,0.03125,563.707,0
     0,0,0,0,0,0,0,0,0,-300.594,-417.92,-0.0078125,0.03125,563.726,0
     0,0,0,0,0,0,0,0,0,-291.554,-389.461,-0.0078125,0.03125,563.746,0
     0,0,0,0,0,0,0,0,0,-290.939,-384.904,-0.0078125,0.03125,563.766,0
     0,0,0,0,0,0,0,0,0,-291.367,-349.528,-0.0078125,0.03125,563.786,0
     0,0,0,0,0,0,0,0,0,-278.033,-451.355,-0.0078125,0.03125,563.807,0
     0,0,0,0,0,0,0,0,0,-268.973,-329.571,-0.0078125,0.03125,563.827,0
     0,0,0,0,0,0,0,0,0,-266.255,-412.976,-0.0078125,0.03125,563.846,0
     0,0,0,0,0,0,0,0,0,-280.297,-342.138,-0.0078125,0.03125,563.866,0
     0,0,0,0,0,0,0,0,0,-258.251,-406.612,-0.0078125,0.03125,563.886,0
     0,0,0,0,0,0,0,0,0,-281.992,-360.972,-0.0078125,0.03125,563.906,0
     0,0,0,0,0,0,0,0,0,-283.086,-324.823,-0.0078125,0.03125,563.927,0
     0,0,0,0,0,0,0,0,0,-291.469,-341.553,-0.0078125,0.03125,563.947,0
     0,0,0,0,0,0,0,0,0,-280.919,-344.614,-0.0078125,0.03125,563.97,0
     0,0,0,0,0,0,0,0,0,-300.192,-373.427,-0.0078125,0.03125,563.987,0
     0,0,0,0,0,0,0,0,0,-303.665,-337.228,-0.0078125,0.03125,564.013,0
     0,0,0,0,0,0,0,0,0,-282.981,-387.777,-0.0078125,0.03125,564.03,0
     0,0,0,0,0,0,0,0,0,-334.711,-388.916,-0.0078125,0.03125,564.046,0
     0,0,0,0,0,0,0,0,0,-335.115,-375.368,-0.0078125,0.03125,564.067,0
     0,0,0,0,0,0,0,0,0,-333.606,-452.253,-0.0078125,0.03125,564.087,0
     0,0,0,0,0,0,0,0,0,-375.249,-361.88,-0.0078125,0.03125,564.107,0
     0,0,0,0,0,0,0,0,0,-372.794,-385.691,-0.0078125,0.03125,564.127,0
     0,0,0,0,0,0,0,0,0,-408.255,-379.377,-0.0078125,0.03125,564.147,0
     0,0,0,0,0,0,0,0,0,-392.873,-485.791,-0.0078125,0.03125,564.166,0
     0,0,0,0,0,0,0,0,0,-468.999,-421.487,-0.0078125,0.03125,564.186,0
     0,0,0,0,0,0,0,0,0,-463.564,-448.189,-0.0078125,0.03125,564.206,0
     0,0,0,0,0,0,0,0,0,-428.357,-457.289,-0.0078125,0.03125,564.226,0
     0,0,0,0,0,0,0,0,0,-404.711,-470.345,-0.0078125,0.03125,564.246,0
     0,0,0,0,0,0,0,0,0,-415.076,-454.525,-0.0078125,0.03125,564.267,0
     0,0,0,0,0,0,0,0,0,-362.378,-422.94,-0.0078125,0.03125,564.286,0
     0,0,0,0,0,0,0,0,0,-454.225,-442.204,-0.0078125,0.03125,564.307,0
     0,0,0,0,0,0,0,0,0,-376.478,-481.87,-0.0078125,0.03125,564.326,0
     0,0,0,0,0,0,0,0,0,-336.321,-498.828,-0.0078125,0.03125,564.358,0
     0,0,0,0,0,0,0,0,0,-364.598,-440.606,-0.0078125,0.03125,564.391,0
     0,0,0,0,0,0,0,0,0,-351.883,-469.351,-0.0078125,0.03125,564.394,0
     0,0,0,0,0,0,0,0,0,-344.875,-507.279,-0.0078125,0.03125,564.407,0
     0,0,0,0,0,0,0,0,0,-363.036,-491.896,-0.0078125,0.03125,564.426,0
     0,0,0,0,0,0,0,0,0,-387.574,-501.895,-0.0078125,0.03125,564.446,0
     0,0,0,0,0,0,0,0,0,-311.313,-444.286,-0.0078125,0.03125,564.466,0
     0,0,0,0,0,0,0,0,0,-301.105,-467.574,-0.0078125,0.03125,564.486,0
     0,0,0,0,0,0,0,0,0,-333.289,-538.488,-0.0078125,0.03125,564.506,0
     0,0,0,0,0,0,0,0,0,-290.964,-430.209,-0.0078125,0.03125,564.527,0
     0,0,0,0,0,0,0,0,0,-160.177,-414.173,-0.0078125,0.03125,564.547,0
     0,0,0,0,0,0,0,0,0,-21.5992,-320.461,-0.0078125,0.03125,564.566,0
     0,0,0,0,0,0,0,0,0,123.818,-405.26,-0.0078125,0.03125,564.587,0
     0,0,0,0,0,0,0,0,0,104.543,-328.834,-0.0078125,0.03125,564.606,0
     0,0,0,0,0,0,0,0,0,104.875,-398.851,-0.0078125,0.03125,564.645,0
     0,0,0,0,0,0,0,0,0,174.221,-340.339,-0.0078125,0.03125,564.667,0
     0,0,0,0,0,0,0,0,0,190.129,-355.733,-0.0078125,0.03125,564.67,0
     0,0,0,0,0,0,0,0,0,207.656,-422.181,-0.0078125,0.03125,564.686,0
     0,0,0,0,0,0,0,0,0,272.172,-260.406,-0.0078125,0.03125,564.706,0
     0,0,0,0,0,0,0,0,0,324.58,-331.521,-0.0078125,0.03125,564.726,0
     0,0,0,0,0,0,0,0,0,321.471,-331.895,-0.0078125,0.03125,564.746,0
     0,0,0,0,0,0,0,0,0,369.481,-336.956,-0.0078125,0.03125,564.767,0
     0,0,0,0,0,0,0,0,0,346.735,-387.943,-0.0078125,0.03125,564.787,0
     0,0,0,0,0,0,0,0,0,330.852,-324.749,-0.0078125,0.03125,564.82,0
     0,0,0,0,0,0,0,0,0,339.72,-329.077,-0.0078125,0.03125,564.828,0
     0,0,0,0,0,0,0,0,0,358.938,-367.114,-0.0078125,0.03125,564.847,0
     0,0,0,0,0,0,0,0,0,291.494,-350.576,-0.0078125,0.03125,564.867,0
     0,0,0,0,0,0,0,0,0,367.755,-344.234,-0.0078125,0.03125,564.887,0
     0,0,0,0,0,0,0,0,0,352.249,-327.59,-0.0078125,0.03125,564.907,0
     0,0,0,0,0,0,0,0,0,352.871,-398.073,-0.0078125,0.03125,564.927,0
     0,0,0,0,0,0,0,0,0,403.682,-260.027,-0.0078125,0.03125,564.947,0
     0,0,0,0,0,0,0,0,0,346.933,-314.169,-0.0078125,0.03125,564.967,0
     0,0,0,0,0,0,0,0,0,373.622,-388.704,-0.0078125,0.03125,564.986,0
     0,0,0,0,0,0,0,0,0,368.575,-318.34,-0.0078125,0.03125,565.007,0
     0,0,0,0,0,0,0,0,0,397.212,-379.615,-0.0078125,0.03125,565.026,0
     0,0,0,0,0,0,0,0,0,358.577,-397.757,-0.0078125,0.03125,565.046,0
     0,0,0,0,0,0,0,0,0,343.442,-340.31,-0.0078125,0.03125,565.066,0
     0,0,0,0,0,0,0,0,0,375.559,-428.412,-0.0078125,0.03125,565.086,0
     0,0,0,0,0,0,0,0,0,381.505,-352.97,-0.0078125,0.03125,565.106,0
     0,0,0,0,0,0,0,0,0,413.916,-401.477,-0.0078125,0.03125,565.126,0
     0,0,0,0,0,0,0,0,0,361.998,-361.513,-0.0078125,0.03125,565.148,0
     0,0,0,0,0,0,0,0,0,346.212,-387.034,-0.0078125,0.03125,565.178,0
     0,0,0,0,0,0,0,0,0,369.98,-368.738,-0.0078125,0.03125,565.187,0
     0,0,0,0,0,0,0,0,0,397.078,-443.961,-0.0078125,0.03125,565.207,0
     0,0,0,0,0,0,0,0,0,360.445,-390.229,-0.0078125,0.03125,565.227,0
     0,0,0,0,0,0,0,0,0,364.14,-455.809,-0.0078125,0.03125,565.247,0
     0,0,0,0,0,0,0,0,0,412.66,-371.706,-0.0078125,0.03125,565.266,0
     0,0,0,0,0,0,0,0,0,360.302,-382.168,-0.0078125,0.03125,565.286,0
     0,0,0,0,0,0,0,0,0,361.906,-392.265,-0.0078125,0.03125,565.306,0
     0,0,0,0,0,0,0,0,0,363.894,-392.765,-0.0078125,0.03125,565.326,0
     0,0,0,0,0,0,0,0,0,398.137,-458.958,-0.0078125,0.03125,565.346,0
     0,0,0,0,0,0,0,0,0,423.765,-416.311,-0.0078125,0.03125,565.366,0
     0,0,0,0,0,0,0,0,0,443.135,-500.288,-0.0078125,0.03125,565.386,0
     0,0,0,0,0,0,0,0,0,409.383,-388.787,-0.0078125,0.03125,565.406,0
     0,0,0,0,0,0,0,0,0,455.042,-448.954,-0.0078125,0.03125,565.426,0
     0,0,0,0,0,0,0,0,0,425.686,-422.262,-0.0078125,0.03125,565.446,0
     0,0,0,0,0,0,0,0,0,469.737,-434.792,-0.0078125,0.03125,565.467,0
     0,0,0,0,0,0,0,0,0,420.38,-395.343,-0.0078125,0.03125,565.486,0
     0,0,0,0,0,0,0,0,0,427.725,-423.021,-0.0078125,0.03125,565.506,0
     0,0,0,0,0,0,0,0,0,432.769,-412.984,-0.0078125,0.03125,565.526,0
     0,0,0,0,0,0,0,0,0,403.991,-429.212,-0.0078125,0.03125,565.546,0
     0,0,0,0,0,0,0,0,0,431.416,-415.369,-0.0078125,0.03125,565.566,0
     0,0,0,0,0,0,0,0,0,378.544,-279.014,-0.0078125,0.03125,565.592,0
     0,0,0,0,0,0,0,0,0,402.285,-412.49,-0.0078125,0.03125,565.606,0
     0,0,0,0,0,0,0,0,0,422.172,-446.15,-0.0078125,0.03125,565.627,0
     0,0,0,0,0,0,0,0,0,420.495,-378.129,-0.0078125,0.03125,565.647,0
     0,0,0,0,0,0,0,0,0,464.976,-425.622,-0.0078125,0.03125,565.667,0
     0,0,0,0,0,0,0,0,0,431.341,-381.25,-0.0078125,0.03125,565.687,0
     0,0,0,0,0,0,0,0,0,494.462,-454.091,-0.0078125,0.03125,565.707,0
     0,0,0,0,0,0,0,0,0,455.882,-379.788,-0.0078125,0.03125,565.729,0
     0,0,0,0,0,0,0,0,0,470.057,-450.511,-0.0078125,0.03125,565.746,0
     0,0,0,0,0,0,0,0,0,432.563,-465.419,-0.0078125,0.03125,565.767,0
     0,0,0,0,0,0,0,0,0,435.55,-434.499,-0.0078125,0.03125,565.786,0
     0,0,0,0,0,0,0,0,0,422.761,-428.559,-0.0078125,0.03125,565.807,0
     0,0,0,0,0,0,0,0,0,461.223,-469.969,-0.0078125,0.03125,565.826,0
     0,0,0,0,0,0,0,0,0,439.802,-381.366,-0.0078125,0.03125,565.846,0
     0,0,0,0,0,0,0,0,0,419.771,-425.369,-0.0078125,0.03125,565.866,0
     0,0,0,0,0,0,0,0,0,412.312,-422.101,-0.0078125,0.03125,565.886,0
     0,0,0,0,0,0,0,0,0,425.958,-368.114,-0.0078125,0.03125,565.906,0
     0,0,0,0,0,0,0,0,0,403.023,-377.75,-0.0078125,0.03125,565.926,0
     0,0,0,0,0,0,0,0,0,429.839,-391.412,-0.0078125,0.03125,565.948,0
     0,0,0,0,0,0,0,0,0,412.72,-367.323,-0.0078125,0.03125,565.967,0
     0,0,0,0,0,0,0,0,0,444.82,-381.832,-0.0078125,0.03125,565.986,0
     0,0,0,0,0,0,0,0,0,409.291,-360.881,-0.0078125,0.03125,566.007,0
     0,0,0,0,0,0,0,0,0,432.966,-468.263,-0.0078125,0.03125,566.026,0
     0,0,0,0,0,0,0,0,0,360.438,-423.173,-0.0078125,0.03125,566.047,0
     0,0,0,0,0,0,0,0,0,355.082,-381.497,-0.0078125,0.03125,566.066,0
     0,0,0,0,0,0,0,0,0,405.515,-407.398,-0.0078125,0.03125,566.087,0
     0,0,0,0,0,0,0,0,0,415.559,-395.421,-0.0078125,0.03125,566.106,0
     0,0,0,0,0,0,0,0,0,425.197,-388.689,-0.0078125,0.03125,566.126,0
     0,0,0,0,0,0,0,0,0,384.83,-385.312,-0.0078125,0.03125,566.146,0
     0,0,0,0,0,0,0,0,0,372.474,-395.656,-0.0078125,0.03125,566.167,0
     0,0,0,0,0,0,0,0,0,368.283,-386.84,-0.0078125,0.03125,566.186,0
     0,0,0,0,0,0,0,0,0,369.413,-276.205,-0.0078125,0.03125,566.207,0
     0,0,0,0,0,0,0,0,0,388.191,-411.336,-0.0078125,0.03125,566.226,0
     0,0,0,0,0,0,0,0,0,441.063,-454.721,-0.0078125,0.03125,566.246,0
     0,0,0,0,0,0,0,0,0,408.806,-378.129,-0.0078125,0.03125,566.267,0
     0,0,0,0,0,0,0,0,0,421.843,-419.234,-0.0078125,0.03125,566.287,0
     0,0,0,0,0,0,0,0,0,419.015,-427.853,-0.0078125,0.03125,566.307,0
     0,0,0,0,0,0,0,0,0,423.101,-464.102,-0.0078125,0.03125,566.326,0
     0,0,0,0,0,0,0,0,0,432.423,-355.227,-0.0078125,0.03125,566.346,0
     0,0,0,0,0,0,0,0,0,437.082,-444.178,-0.0078125,0.03125,566.366,0
     0,0,0,0,0,0,0,0,0,389.499,-355.233,-0.0078125,0.03125,566.386,0
     0,0,0,0,0,0,0,0,0,401.526,-451.152,-0.0078125,0.03125,566.407,0
     0,0,0,0,0,0,0,0,0,396.684,-351.136,-0.0078125,0.03125,566.426,0
     0,0,0,0,0,0,0,0,0,426.194,-412.567,-0.0078125,0.03125,566.446,0
     0,0,0,0,0,0,0,0,0,384.578,-434.094,-0.0078125,0.03125,566.466,0
     0,0,0,0,0,0,0,0,0,418.76,-427.908,-0.0078125,0.03125,566.486,0
     0,0,0,0,0,0,0,0,0,398.24,-388.259,-0.0078125,0.03125,566.506,0
     0,0,0,0,0,0,0,0,0,419.024,-465.203,-0.0078125,0.03125,566.527,0
     0,0,0,0,0,0,0,0,0,375.876,-458.674,-0.0078125,0.03125,566.547,0
     0,0,0,0,0,0,0,0,0,-34.8334,-494.438,-0.0078125,0.03125,566.567,0
     0,0,0,0,0,0,0,0,0,-108.883,-459.221,-0.0078125,0.03125,566.587,0
     0,0,0,0,0,0,0,0,0,-167.565,-442.713,-0.0078125,0.03125,566.606,0
     0,0,0,0,0,0,0,0,0,-109.642,-492.793,-0.0078125,0.03125,566.626,0
     0,0,0,0,0,0,0,0,0,-120.9,-442.684,-0.0078125,0.03125,566.646,0
     0,0,0,0,0,0,0,0,0,-150.435,-364.697,-0.0078125,0.03125,566.666,0
     0,0,0,0,0,0,0,0,0,-93.5449,-428.954,-0.0078125,0.03125,566.687,0
     0,0,0,0,0,0,0,0,0,-107.124,-405.548,-0.0078125,0.03125,566.729,0
     0,0,0,0,0,0,0,0,0,-114.925,-450.704,-0.0078125,0.03125,566.75,0
     0,0,0,0,0,0,0,0,0,-125.43,-373.727,-0.0078125,0.03125,566.766,0
     0,0,0,0,0,0,0,0,0,-144.734,-367.465,-0.0078125,0.03125,566.787,0
     0,0,0,0,0,0,0,0,0,-152.574,-301.882,-0.0078125,0.03125,566.807,0
     0,0,0,0,0,0,0,0,0,-162.413,-359.428,-0.0078125,0.03125,566.827,0
     0,0,0,0,0,0,0,0,0,-166.649,-363.98,-0.0078125,0.03125,566.846,0
     0,0,0,0,0,0,0,0,0,-205.651,-405.154,-0.0078125,0.03125,566.866,0
     0,0,0,0,0,0,0,0,0,-209.532,-357.852,-0.0078125,0.03125,566.886,0
     0,0,0,0,0,0,0,0,0,-194.873,-330.497,-0.0078125,0.03125,566.908,0
     0,0,0,0,0,0,0,0,0,-236.488,-385.446,-0.0078125,0.03125,566.927,0
     0,0,0,0,0,0,0,0,0,-229.779,-389.249,-0.0078125,0.03125,566.946,0
     0,0,0,0,0,0,0,0,0,-253.024,-283.704,-0.0078125,0.03125,566.967,0
     0,0,0,0,0,0,0,0,0,-272.885,-318.476,-0.0078125,0.03125,566.986,0
     0,0,0,0,0,0,0,0,0,-255.915,-382.248,-0.0078125,0.03125,567.007,0
     0,0,0,0,0,0,0,0,0,-264.354,-344.59,-0.0078125,0.03125,567.027,0
     0,0,0,0,0,0,0,0,0,-268.799,-373.748,-0.0078125,0.03125,567.046,0
     0,0,0,0,0,0,0,0,0,-261.585,-333.189,-0.0078125,0.03125,567.067,0
     0,0,0,0,0,0,0,0,0,-316.451,-380.72,-0.0078125,0.03125,567.086,0
     0,0,0,0,0,0,0,0,0,-286.316,-371.395,-0.0078125,0.03125,567.107,0
     0,0,0,0,0,0,0,0,0,-281.901,-403.478,-0.0078125,0.03125,567.127,0
     0,0,0,0,0,0,0,0,0,-302.961,-384.468,-0.0078125,0.03125,567.148,0
     0,0,0,0,0,0,0,0,0,-270.596,-349.01,-0.0078125,0.03125,567.167,0
     0,0,0,0,0,0,0,0,0,-267.763,-351.772,-0.0078125,0.03125,567.186,0
     0,0,0,0,0,0,0,0,0,-253.82,-356.621,-0.0078125,0.03125,567.207,0
     0,0,0,0,0,0,0,0,0,-216.008,-345.453,-0.0078125,0.03125,567.226,0
     0,0,0,0,0,0,0,0,0,-247.611,-369.392,-0.0078125,0.03125,567.246,0
     0,0,0,0,0,0,0,0,0,-246.606,-381.592,-0.0078125,0.03125,567.266,0
     0,0,0,0,0,0,0,0,0,-246.236,-416.06,-0.0078125,0.03125,567.286,0
     0,0,0,0,0,0,0,0,0,-264.929,-366.872,-0.0078125,0.03125,567.307,0
     0,0,0,0,0,0,0,0,0,-321.719,-407.108,-0.0078125,0.03125,567.35,0
     0,0,0,0,0,0,0,0,0,-269.114,-383.171,-0.0078125,0.03125,567.353,0
     0,0,0,0,0,0,0,0,0,-269.895,-255.63,-0.0078125,0.03125,567.366,0
     0,0,0,0,0,0,0,0,0,-292.916,-426.321,-0.0078125,0.03125,567.387,0
     0,0,0,0,0,0,0,0,0,-319.852,-435.057,-0.0078125,0.03125,567.407,0
     0,0,0,0,0,0,0,0,0,-310.463,-409.165,-0.0078125,0.03125,567.426,0
     0,0,0,0,0,0,0,0,0,-343.932,-404.31,-0.0078125,0.03125,567.447,0
     0,0,0,0,0,0,0,0,0,-381.221,-427.899,-0.0078125,0.03125,567.467,0
     0,0,0,0,0,0,0,0,0,-345.758,-400.44,-0.0078125,0.03125,567.486,0
     0,0,0,0,0,0,0,0,0,-351.21,-318.319,-0.0078125,0.03125,567.507,0
     0,0,0,0,0,0,0,0,0,-382.139,-377.074,-0.0078125,0.03125,567.526,0
     0,0,0,0,0,0,0,0,0,-358.384,-515.212,-0.0078125,0.03125,567.547,0
     0,0,0,0,0,0,0,0,0,-413.805,-433.154,-0.0078125,0.03125,567.567,0
     0,0,0,0,0,0,0,0,0,-355.923,-491.811,-0.0078125,0.03125,567.594,0
     0,0,0,0,0,0,0,0,0,-317.849,-453.793,-0.0078125,0.03125,567.639,0
     0,0,0,0,0,0,0,0,0,-402.536,-449.782,-0.0078125,0.03125,567.642,0
     0,0,0,0,0,0,0,0,0,-340.414,-494.621,-0.0078125,0.03125,567.647,0
     0,0,0,0,0,0,0,0,0,-373.706,-478.629,-0.0078125,0.03125,567.667,0
     0,0,0,0,0,0,0,0,0,-305.129,-458.117,-0.0078125,0.03125,567.687,0
     0,0,0,0,0,0,0,0,0,-330.65,-471.143,-0.0078125,0.03125,567.707,0
     0,0,0,0,0,0,0,0,0,-279.904,-424.538,-0.0078125,0.03125,567.727,0
     0,0,0,0,0,0,0,0,0,-329.381,-452.049,-0.0078125,0.03125,567.747,0
     0,0,0,0,0,0,0,0,0,-296.692,-464.63,-0.0078125,0.03125,567.767,0
     0,0,0,0,0,0,0,0,0,-310.911,-466.168,-0.0078125,0.03125,567.789,0
     0,0,0,0,0,0,0,0,0,-285.543,-433.595,-0.0078125,0.03125,567.821,0
     0,0,0,0,0,0,0,0,0,-300.942,-437.761,-0.0078125,0.03125,567.827,0
     0,0,0,0,0,0,0,0,0,-275.126,-504.974,-0.0078125,0.03125,567.846,0
     0,0,0,0,0,0,0,0,0,-284.317,-438.635,-0.0078125,0.03125,567.866,0
     0,0,0,0,0,0,0,0,0,-290.968,-436.138,-0.0078125,0.03125,567.886,0
     0,0,0,0,0,0,0,0,0,-255.278,-428.183,-0.0078125,0.03125,567.907,0
     0,0,0,0,0,0,0,0,0,-214.179,-396.66,-0.0078125,0.03125,567.926,0
     0,0,0,0,0,0,0,0,0,-277.412,-332.303,-0.0078125,0.03125,567.947,0
     0,0,0,0,0,0,0,0,0,-263.678,-415.067,-0.0078125,0.03125,567.967,0
     0,0,0,0,0,0,0,0,0,-274.548,-395.288,-0.0078125,0.03125,567.987,0
     0,0,0,0,0,0,0,0,0,-284.03,-444.81,-0.0078125,0.03125,568.006,0
     0,0,0,0,0,0,0,0,0,-299.877,-389.978,-0.0078125,0.03125,568.026,0
     0,0,0,0,0,0,0,0,0,-300.233,-405.039,-0.0078125,0.03125,568.046,0
     0,0,0,0,0,0,0,0,0,-298.565,-389.461,-0.0078125,0.03125,568.066,0
     0,0,0,0,0,0,0,0,0,-127.368,-348.092,-0.0078125,0.03125,568.086,0
     0,0,0,0,0,0,0,0,0,-54.6196,-242.016,-0.0078125,0.03125,568.107,0
     0,0,0,0,0,0,0,0,0,113.788,-339.207,-0.0078125,0.03125,568.126,0
     0,0,0,0,0,0,0,0,0,74.8259,-370.81,-0.0078125,0.03125,568.146,0
     0,0,0,0,0,0,0,0,0,76.6307,-392.442,-0.0078125,0.03125,568.188,0
     0,0,0,0,0,0,0,0,0,97.7632,-402.625,-0.0078125,0.03125,568.191,0
     0,0,0,0,0,0,0,0,0,212.571,-347.409,-0.0078125,0.03125,568.227,0
     0,0,0,0,0,0,0,0,0,208.316,-342.994,-0.0078125,0.03125,568.23,0
     0,0,0,0,0,0,0,0,0,259.145,-345.262,-0.0078125,0.03125,568.247,0
     0,0,0,0,0,0,0,0,0,297.983,-319.811,-0.0078125,0.03125,568.268,0
     0,0,0,0,0,0,0,0,0,323.63,-327.531,-0.0078125,0.03125,568.286,0
     0,0,0,0,0,0,0,0,0,332.729,-317.571,-0.0078125,0.03125,568.306,0
     0,0,0,0,0,0,0,0,0,342.19,-348.147,-0.0078125,0.03125,568.326,0
     0,0,0,0,0,0,0,0,0,365.918,-361.096,-0.0078125,0.03125,568.346,0
     0,0,0,0,0,0,0,0,0,350.195,-356.92,-0.0078125,0.03125,568.366,0
     0,0,0,0,0,0,0,0,0,334.13,-408.355,-0.0078125,0.03125,568.386,0
     0,0,0,0,0,0,0,0,0,385.721,-344.81,-0.0078125,0.03125,568.406,0
     0,0,0,0,0,0,0,0,0,390.671,-374.406,-0.0078125,0.03125,568.426,0
     0,0,0,0,0,0,0,0,0,378.344,-390.274,-0.0078125,0.03125,568.448,0
     0,0,0,0,0,0,0,0,0,381.526,-367.627,-0.0078125,0.03125,568.467,0
     0,0,0,0,0,0,0,0,0,393.996,-400.537,-0.0078125,0.03125,568.487,0
     0,0,0,0,0,0,0,0,0,403.006,-391.734,-0.0078125,0.03125,568.506,0
     0,0,0,0,0,0,0,0,0,387.807,-413.42,-0.0078125,0.03125,568.526,0
     0,0,0,0,0,0,0,0,0,382.768,-417.947,-0.0078125,0.03125,568.546,0
     0,0,0,0,0,0,0,0,0,382.797,-452.96,-0.0078125,0.03125,568.566,0
     0,0,0,0,0,0,0,0,0,361.383,-376.138,-0.0078125,0.03125,568.587,0
     0,0,0,0,0,0,0,0,0,408.197,-450.623,-0.0078125,0.03125,568.607,0
     0,0,0,0,0,0,0,0,0,390.175,-399.56,-0.0078125,0.03125,568.627,0
     0,0,0,0,0,0,0,0,0,404.768,-432.404,-0.0078125,0.03125,568.666,0
     0,0,0,0,0,0,0,0,0,451.05,-404.465,-0.0078125,0.03125,568.669,0
     0,0,0,0,0,0,0,0,0,472.311,-422.681,-0.0078125,0.03125,568.698,0
     0,0,0,0,0,0,0,0,0,398.081,-379.097,-0.0078125,0.03125,568.706,0
     0,0,0,0,0,0,0,0,0,444.415,-459.126,-0.0078125,0.03125,568.727,0
     0,0,0,0,0,0,0,0,0,421.994,-407,-0.0078125,0.03125,568.746,0
     0,0,0,0,0,0,0,0,0,392.034,-320.667,-0.0078125,0.03125,568.783,0
     0,0,0,0,0,0,0,0,0,403.218,-383.325,-0.0078125,0.03125,568.787,0
     0,0,0,0,0,0,0,0,0,446.788,-414.31,-0.0078125,0.03125,568.807,0
     0,0,0,0,0,0,0,0,0,398.661,-534.688,-0.0078125,0.03125,568.827,0
     0,0,0,0,0,0,0,0,0,394.197,-424.439,-0.0078125,0.03125,568.847,0
     0,0,0,0,0,0,0,0,0,408.538,-446.508,-0.0078125,0.03125,568.867,0
     0,0,0,0,0,0,0,0,0,442.087,-376.35,-0.0078125,0.03125,568.887,0
     0,0,0,0,0,0,0,0,0,416.415,-408.105,-0.0078125,0.03125,568.907,0
     0,0,0,0,0,0,0,0,0,432.507,-437.675,-0.0078125,0.03125,568.926,0
     0,0,0,0,0,0,0,0,0,397.054,-388.123,-0.0078125,0.03125,568.956,0
     0,0,0,0,0,0,0,0,0,410.113,-406.661,-0.0078125,0.03125,568.967,0
     0,0,0,0,0,0,0,0,0,417.903,-422.199,-0.0078125,0.03125,568.986,0
     0,0,0,0,0,0,0,0,0,428.357,-380.51,-0.0078125,0.03125,569.007,0
     0,0,0,0,0,0,0,0,0,371.575,-346.224,-0.0078125,0.03125,569.027,0
     0,0,0,0,0,0,0,0,0,379.802,-365.945,-0.0078125,0.03125,569.046,0
     0,0,0,0,0,0,0,0,0,392.534,-363.286,-0.0078125,0.03125,569.066,0
     0,0,0,0,0,0,0,0,0,400.24,-380.503,-0.0078125,0.03125,569.087,0
     0,0,0,0,0,0,0,0,0,412.074,-378.924,-0.0078125,0.03125,569.106,0
     0,0,0,0,0,0,0,0,0,364.451,-367.573,-0.0078125,0.03125,569.127,0
     0,0,0,0,0,0,0,0,0,399.194,-408.28,-0.0078125,0.03125,569.147,0
     0,0,0,0,0,0,0,0,0,387.132,-423.173,-0.0078125,0.03125,569.167,0
     0,0,0,0,0,0,0,0,0,383.575,-363.062,-0.0078125,0.03125,569.187,0
     0,0,0,0,0,0,0,0,0,336.587,-397.488,-0.0078125,0.03125,569.209,0
     0,0,0,0,0,0,0,0,0,413.693,-371.595,-0.0078125,0.03125,569.226,0
     0,0,0,0,0,0,0,0,0,398.947,-416.753,-0.0078125,0.03125,569.246,0
     0,0,0,0,0,0,0,0,0,448.34,-379.19,-0.0078125,0.03125,569.266,0
     0,0,0,0,0,0,0,0,0,428.238,-439.464,-0.0078125,0.03125,569.287,0
     0,0,0,0,0,0,0,0,0,424.692,-373.204,-0.0078125,0.03125,569.307,0
     0,0,0,0,0,0,0,0,0,374.343,-393.802,-0.0078125,0.03125,569.327,0
     0,0,0,0,0,0,0,0,0,371.264,-397.765,-0.0078125,0.03125,569.346,0
     0,0,0,0,0,0,0,0,0,404.989,-414.002,-0.0078125,0.03125,569.367,0
     0,0,0,0,0,0,0,0,0,396.786,-392.997,-0.0078125,0.03125,569.386,0
     0,0,0,0,0,0,0,0,0,400.008,-313.244,-0.0078125,0.03125,569.406,0
     0,0,0,0,0,0,0,0,0,361.35,-411.159,-0.0078125,0.03125,569.426,0
     0,0,0,0,0,0,0,0,0,413.71,-452.929,-0.0078125,0.03125,569.446,0
     0,0,0,0,0,0,0,0,0,368.956,-381.934,-0.0078125,0.03125,569.466,0
     0,0,0,0,0,0,0,0,0,406.199,-450.501,-0.0078125,0.03125,569.487,0
     0,0,0,0,0,0,0,0,0,397.212,-369.303,-0.0078125,0.03125,569.506,0
     0,0,0,0,0,0,0,0,0,431.732,-428.302,-0.0078125,0.03125,569.527,0
     0,0,0,0,0,0,0,0,0,404.932,-356.856,-0.0078125,0.03125,569.547,0
     0,0,0,0,0,0,0,0,0,437.742,-465.842,-0.0078125,0.03125,569.566,0
     0,0,0,0,0,0,0,0,0,402.034,-332.458,-0.0078125,0.03125,569.586,0
     0,0,0,0,0,0,0,0,0,442.087,-502.841,-0.0078125,0.03125,569.607,0
     0,0,0,0,0,0,0,0,0,441.618,-429.323,-0.0078125,0.03125,569.626,0
     0,0,0,0,0,0,0,0,0,437.359,-491.521,-0.0078125,0.03125,569.647,0
     0,0,0,0,0,0,0,0,0,396.409,-386.324,-0.0078125,0.03125,569.667,0
     0,0,0,0,0,0,0,0,0,496.155,-431.648,-0.0078125,0.03125,569.686,0
     0,0,0,0,0,0,0,0,0,401.558,-389.856,-0.0078125,0.03125,569.707,0
     0,0,0,0,0,0,0,0,0,442.048,-435.227,-0.0078125,0.03125,569.727,0
     0,0,0,0,0,0,0,0,0,369.877,-378.143,-0.0078125,0.03125,569.75,0
     0,0,0,0,0,0,0,0,0,419.437,-488.568,-0.0078125,0.03125,569.766,0
     0,0,0,0,0,0,0,0,0,400.024,-395.312,-0.0078125,0.03125,569.787,0
     0,0,0,0,0,0,0,0,0,392.165,-457.153,-0.0078125,0.03125,569.806,0
     0,0,0,0,0,0,0,0,0,372.079,-391.167,-0.0078125,0.03125,569.827,0
     0,0,0,0,0,0,0,0,0,382.848,-402.334,-0.0078125,0.03125,569.846,0
     0,0,0,0,0,0,0,0,0,408.53,-418.165,-0.0078125,0.03125,569.866,0
     0,0,0,0,0,0,0,0,0,386.84,-345.399,-0.0078125,0.03125,569.886,0
     0,0,0,0,0,0,0,0,0,369.222,-424.962,-0.0078125,0.03125,569.906,0
     0,0,0,0,0,0,0,0,0,426.967,-397.346,-0.0078125,0.03125,569.926,0
     0,0,0,0,0,0,0,0,0,401.687,-389.628,-0.0078125,0.03125,569.946,0
     0,0,0,0,0,0,0,0,0,407.058,-358.218,-0.0078125,0.03125,569.966,0
     0,0,0,0,0,0,0,0,0,391.114,-399.584,-0.0078125,0.03125,569.986,0
     0,0,0,0,0,0,0,0,0,367.303,-378.208,-0.0078125,0.03125,570.006,0
     0,0,0,0,0,0,0,0,0,383.2,-247.534,-0.0078125,0.03125,570.027,0
     0,0,0,0,0,0,0,0,0,376.322,-405.778,-0.0078125,0.03125,570.046,0
     0,0,0,0,0,0,0,0,0,395.28,-446.449,-0.0078125,0.03125,570.066,0
     0,0,0,0,0,0,0,0,0,376.308,-390.518,-0.0078125,0.03125,570.086,0
     0,0,0,0,0,0,0,0,0,-36.6705,-502.79,-0.0078125,0.03125,570.106,0
     0,0,0,0,0,0,0,0,0,-139.267,-537.634,-0.0078125,0.03125,570.127,0
     0,0,0,0,0,0,0,0,0,-209.424,-451.865,-0.0078125,0.03125,570.147,0
     0,0,0,0,0,0,0,0,0,-167.712,-437.685,-0.0078125,0.03125,570.167,0
     0,0,0,0,0,0,0,0,0,-177.01,-453.063,-0.0078125,0.03125,570.187,0
     0,0,0,0,0,0,0,0,0,-185.549,-393.066,-0.0078125,0.03125,570.206,0
     0,0,0,0,0,0,0,0,0,-187.417,-440.558,-0.0078125,0.03125,570.227,0
     0,0,0,0,0,0,0,0,0,-222.623,-438.231,-0.0078125,0.03125,570.247,0
     0,0,0,0,0,0,0,0,0,-207.939,-457.498,-0.0078125,0.03125,570.267,0
     0,0,0,0,0,0,0,0,0,-223.043,-442.595,-0.0078125,0.03125,570.287,0
     0,0,0,0,0,0,0,0,0,-228.376,-416.667,-0.0078125,0.03125,570.306,0
     0,0,0,0,0,0,0,0,0,-242.26,-444.079,-0.0078125,0.03125,570.327,0
     0,0,0,0,0,0,0,0,0,-233.989,-424.899,-0.0078125,0.03125,570.346,0
     0,0,0,0,0,0,0,0,0,-230.03,-418.393,-0.0078125,0.03125,570.366,0
     0,0,0,0,0,0,0,0,0,-258.823,-472.623,-0.0078125,0.03125,570.386,0
     0,0,0,0,0,0,0,0,0,-250.938,-428.339,-0.0078125,0.03125,570.406,0
     0,0,0,0,0,0,0,0,0,-270.779,-482.649,-0.0078125,0.03125,570.426,0
     0,0,0,0,0,0,0,0,0,-272.769,-423.801,-0.0078125,0.03125,570.446,0
     0,0,0,0,0,0,0,0,0,-281.195,-454.329,-0.0078125,0.03125,570.466,0
     0,0,0,0,0,0,0,0,0,-263.494,-404.138,-0.0078125,0.03125,570.487,0
     0,0,0,0,0,0,0,0,0,-280.002,-434.245,-0.0078125,0.03125,570.508,0
     0,0,0,0,0,0,0,0,0,-299.652,-441.999,-0.0078125,0.03125,570.527,0
     0,0,0,0,0,0,0,0,0,-270.099,-429.037,-0.0078125,0.03125,570.547,0
     0,0,0,0,0,0,0,0,0,-291.083,-503.918,-0.0078125,0.03125,570.566,0
     0,0,0,0,0,0,0,0,0,-300.327,-445.901,-0.0078125,0.03125,570.586,0
     0,0,0,0,0,0,0,0,0,-301.164,-499.176,-0.0078125,0.03125,570.606,0
     0,0,0,0,0,0,0,0,0,-300.111,-341.07,-0.0078125,0.03125,570.626,0
     0,0,0,0,0,0,0,0,0,-331.735,-452.796,-0.0078125,0.03125,570.647,0
     0,0,0,0,0,0,0,0,0,-334.717,-599.754,-0.0078125,0.03125,570.667,0
     0,0,0,0,0,0,0,0,0,-395.444,-466.157,-0.0078125,0.03125,570.686,0
     0,0,0,0,0,0,0,0,0,-370.117,-474.327,-0.0078125,0.03125,570.706,0
     0,0,0,0,0,0,0,0,0,-366.522,-449.711,-0.0078125,0.03125,570.726,0
     0,0,0,0,0,0,0,0,0,-364.279,-506.393,-0.0078125,0.03125,570.746,0
     0,0,0,0,0,0,0,0,0,-450.217,-507.434,-0.0078125,0.03125,570.767,0
     0,0,0,0,0,0,0,0,0,-371.051,-508.104,-0.0078125,0.03125,570.786,0
     0,0,0,0,0,0,0,0,0,-402.156,-521.703,-0.0078125,0.03125,570.806,0
     0,0,0,0,0,0,0,0,0,-447.808,-463.489,-0.0078125,0.03125,570.827,0
     0,0,0,0,0,0,0,0,0,-424.556,-333.639,-0.0078125,0.03125,570.847,0
     0,0,0,0,0,0,0,0,0,-384.431,-534.259,-0.0078125,0.03125,570.867,0
     0,0,0,0,0,0,0,0,0,-367.884,-403.527,-0.0078125,0.03125,570.887,0
     0,0,0,0,0,0,0,0,0,-383.568,-487.353,-0.0078125,0.03125,570.907,0
     0,0,0,0,0,0,0,0,0,-323.562,-390.518,-0.0078125,0.03125,570.926,0
     0,0,0,0,0,0,0,0,0,-327.563,-483.15,-0.0078125,0.03125,570.946,0
     0,0,0,0,0,0,0,0,0,-317.224,-382.285,-0.0078125,0.03125,570.967,0
     0,0,0,0,0,0,0,0,0,-301.846,-398.256,-0.0078125,0.03125,570.987,0
     0,0,0,0,0,0,0,0,0,-340.402,-351.111,-0.0078125,0.03125,571.006,0
     0,0,0,0,0,0,0,0,0,-280.383,-475.274,-0.0078125,0.03125,571.049,0
     0,0,0,0,0,0,0,0,0,-320.832,-396.228,-0.0078125,0.03125,571.052,0
     0,0,0,0,0,0,0,0,0,-329.587,-376.854,-0.0078125,0.03125,571.066,0
     0,0,0,0,0,0,0,0,0,-285.988,-391.665,-0.0078125,0.03125,571.097,0
     0,0,0,0,0,0,0,0,0,-317.219,-407.623,-0.0078125,0.03125,571.106,0
     0,0,0,0,0,0,0,0,0,-309.765,-397.212,-0.0078125,0.03125,571.13,0
     0,0,0,0,0,0,0,0,0,-295.976,-415.239,-0.0078125,0.03125,571.148,0
     0,0,0,0,0,0,0,0,0,-278.315,-433.388,-0.0078125,0.03125,571.166,0
     0,0,0,0,0,0,0,0,0,-328.991,-374.063,-0.0078125,0.03125,571.186,0
     0,0,0,0,0,0,0,0,0,-333.117,-302.224,-0.0078125,0.03125,571.206,0
     0,0,0,0,0,0,0,0,0,-330.251,-387.207,-0.0078125,0.03125,571.227,0
     0,0,0,0,0,0,0,0,0,-312.549,-437.12,-0.0078125,0.03125,571.247,0
     0,0,0,0,0,0,0,0,0,-264.725,-440.141,-0.0078125,0.03125,571.267,0
     0,0,0,0,0,0,0,0,0,-353.582,-378.465,-0.0078125,0.03125,571.287,0
     0,0,0,0,0,0,0,0,0,-311.023,-424.349,-0.0078125,0.03125,571.306,0
     0,0,0,0,0,0,0,0,0,-360.38,-506.765,-0.0078125,0.03125,571.326,0
     0,0,0,0,0,0,0,0,0,-330.715,-454.835,-0.0078125,0.03125,571.346,0
     0,0,0,0,0,0,0,0,0,-296.635,-443.951,-0.0078125,0.03125,571.368,0
     0,0,0,0,0,0,0,0,0,-323.881,-525.762,-0.0078125,0.03125,571.387,0
     0,0,0,0,0,0,0,0,0,-315.567,-366.334,-0.0078125,0.03125,571.407,0
     0,0,0,0,0,0,0,0,0,-308.399,-482.055,-0.0078125,0.03125,571.426,0
     0,0,0,0,0,0,0,0,0,-318.928,-436.824,-0.0078125,0.03125,571.447,0
     0,0,0,0,0,0,0,0,0,-315.234,-473.833,-0.0078125,0.03125,571.467,0
     0,0,0,0,0,0,0,0,0,-301.218,-441.433,-0.0078125,0.03125,571.486,0
     0,0,0,0,0,0,0,0,0,-289.624,-429.166,-0.0078125,0.03125,571.506,0
     0,0,0,0,0,0,0,0,0,-331.318,-478.973,-0.0078125,0.03125,571.527,0
     0,0,0,0,0,0,0,0,0,-397.867,-496.401,-0.0078125,0.03125,571.546,0
     0,0,0,0,0,0,0,0,0,-392.549,-490.076,-0.0078125,0.03125,571.567,0
     0,0,0,0,0,0,0,0,0,-276.897,-372.62,-0.0078125,0.03125,571.593,0
     0,0,0,0,0,0,0,0,0,-384.32,-465.235,-0.0078125,0.03125,571.608,0
     0,0,0,0,0,0,0,0,0,-154.777,-346.278,-0.0078125,0.03125,571.627,0
     0,0,0,0,0,0,0,0,0,-131.401,-468.757,-0.0078125,0.03125,571.65,0
     0,0,0,0,0,0,0,0,0,26.305,-425.577,-0.0078125,0.03125,571.666,0
     0,0,0,0,0,0,0,0,0,113.012,-456.986,-0.0078125,0.03125,571.686,0
     0,0,0,0,0,0,0,0,0,116.78,-418.454,-0.0078125,0.03125,571.707,0
     0,0,0,0,0,0,0,0,0,153.176,-497.735,-0.0078125,0.03125,571.727,0
     0,0,0,0,0,0,0,0,0,178.263,-368.094,-0.0078125,0.03125,571.747,0
     0,0,0,0,0,0,0,0,0,235.236,-443.577,-0.0078125,0.03125,571.767,0
     0,0,0,0,0,0,0,0,0,277.1,-281.29,-0.0078125,0.03125,571.787,0
     0,0,0,0,0,0,0,0,0,310.805,-319.928,-0.0078125,0.03125,571.807,0
     0,0,0,0,0,0,0,0,0,304.548,-384.8,-0.0078125,0.03125,571.827,0
     0,0,0,0,0,0,0,0,0,338.949,-308.052,-0.0078125,0.03125,571.847,0
     0,0,0,0,0,0,0,0,0,382.044,-344.299,-0.0078125,0.03125,571.866,0
     0,0,0,0,0,0,0,0,0,353.713,-366.576,-0.0078125,0.03125,571.886,0
     0,0,0,0,0,0,0,0,0,383.23,-314.139,-0.0078125,0.03125,571.907,0
     0,0,0,0,0,0,0,0,0,326.333,-366.367,-0.0078125,0.03125,571.926,0
     0,0,0,0,0,0,0,0,0,357.635,-326.216,-0.0078125,0.03125,571.946,0
     0,0,0,0,0,0,0,0,0,358.802,-361.624,-0.0078125,0.03125,571.982,0
     0,0,0,0,0,0,0,0,0,362.03,-360.425,-0.0078125,0.03125,571.998,0
     0,0,0,0,0,0,0,0,0,360.796,-381.643,-0.0078125,0.03125,572.006,0
     0,0,0,0,0,0,0,0,0,334.644,-296.762,-0.0078125,0.03125,572.03,0
     0,0,0,0,0,0,0,0,0,369.761,-337.365,-0.0078125,0.03125,572.046,0
     0,0,0,0,0,0,0,0,0,381.039,-415.636,-0.0078125,0.03125,572.066,0
     0,0,0,0,0,0,0,0,0,428.201,-353.794,-0.0078125,0.03125,572.087,0
     0,0,0,0,0,0,0,0,0,378.982,-402.366,-0.0078125,0.03125,572.106,0
     0,0,0,0,0,0,0,0,0,419.674,-372.197,-0.0078125,0.03125,572.126,0
     0,0,0,0,0,0,0,0,0,378.387,-424.854,-0.0078125,0.03125,572.146,0
     0,0,0,0,0,0,0,0,0,367.945,-407.697,-0.0078125,0.03125,572.166,0
     0,0,0,0,0,0,0,0,0,352.553,-454.556,-0.0078125,0.03125,572.186,0
     0,0,0,0,0,0,0,0,0,415.818,-379.19,-0.0078125,0.03125,572.206,0
     0,0,0,0,0,0,0,0,0,401.115,-388.614,-0.0078125,0.03125,572.226,0
     0,0,0,0,0,0,0,0,0,425.867,-402.431,-0.0078125,0.03125,572.263,0
     0,0,0,0,0,0,0,0,0,365.364,-464.641,-0.0078125,0.03125,572.283,0
     0,0,0,0,0,0,0,0,0,449.63,-400.481,-0.0078125,0.03125,572.304,0
     0,0,0,0,0,0,0,0,0,420.221,-356.043,-0.0078125,0.03125,572.307,0
     0,0,0,0,0,0,0,0,0,435.701,-435.986,-0.0078125,0.03125,572.326,0
     0,0,0,0,0,0,0,0,0,432.161,-415.377,-0.0078125,0.03125,572.346,0
     0,0,0,0,0,0,0,0,0,438.068,-432.582,-0.0078125,0.03125,572.367,0
     0,0,0,0,0,0,0,0,0,429.987,-484.825,-0.0078125,0.03125,572.386,0
     0,0,0,0,0,0,0,0,0,429.498,-428.605,-0.0078125,0.03125,572.407,0
     0,0,0,0,0,0,0,0,0,444.267,-482.94,-0.0078125,0.03125,572.426,0
     0,0,0,0,0,0,0,0,0,444.395,-326.147,-0.0078125,0.03125,572.446,0
     0,0,0,0,0,0,0,0,0,439.358,-455.934,-0.0078125,0.03125,572.468,0
     0,0,0,0,0,0,0,0,0,416.224,-550.449,-0.0078125,0.03125,572.49,0
     0,0,0,0,0,0,0,0,0,479.122,-464.209,-0.0078125,0.03125,572.508,0
     0,0,0,0,0,0,0,0,0,407.664,-503.664,-0.0078125,0.03125,572.527,0
     0,0,0,0,0,0,0,0,0,473.687,-443.833,-0.0078125,0.03125,572.555,0
     0,0,0,0,0,0,0,0,0,408.589,-382.9,-0.0078125,0.03125,572.567,0
     0,0,0,0,0,0,0,0,0,440.917,-435.275,-0.0078125,0.03125,572.586,0
     0,0,0,0,0,0,0,0,0,431.527,-430.117,-0.0078125,0.03125,572.614,0
     0,0,0,0,0,0,0,0,0,436.5,-452.284,-0.0078125,0.03125,572.627,0
     0,0,0,0,0,0,0,0,0,388.334,-377.109,-0.0078125,0.03125,572.648,0
     0,0,0,0,0,0,0,0,0,414.843,-438.202,-0.0078125,0.03125,572.666,0
     0,0,0,0,0,0,0,0,0,451.518,-433.172,-0.0078125,0.03125,572.686,0
     0,0,0,0,0,0,0,0,0,416.545,-420.725,-0.0078125,0.03125,572.706,0
     0,0,0,0,0,0,0,0,0,429.443,-426.503,-0.0078125,0.03125,572.727,0
     0,0,0,0,0,0,0,0,0,441.335,-441.452,-0.0078125,0.03125,572.747,0
     0,0,0,0,0,0,0,0,0,416.927,-401.276,-0.0078125,0.03125,572.772,0
     0,0,0,0,0,0,0,0,0,396.865,-418.48,-0.0078125,0.03125,572.786,0
     0,0,0,0,0,0,0,0,0,403.739,-403.015,-0.0078125,0.03125,572.806,0
     0,0,0,0,0,0,0,0,0,422.967,-520.467,-0.0078125,0.03125,572.827,0
     0,0,0,0,0,0,0,0,0,404.875,-440.044,-0.0078125,0.03125,572.846,0
     0,0,0,0,0,0,0,0,0,427.031,-445.812,-0.0078125,0.03125,572.866,0
     0,0,0,0,0,0,0,0,0,387.229,-433.445,-0.0078125,0.03125,572.886,0
     0,0,0,0,0,0,0,0,0,409.836,-450.42,-0.0078125,0.03125,572.907,0
     0,0,0,0,0,0,0,0,0,435.436,-415.119,-0.0078125,0.03125,572.926,0
     0,0,0,0,0,0,0,0,0,423.379,-440.257,-0.0078125,0.03125,572.946,0
     0,0,0,0,0,0,0,0,0,415.369,-395.718,-0.0078125,0.03125,572.966,0
     0,0,0,0,0,0,0,0,0,438.5,-449.368,-0.0078125,0.03125,572.986,0
     0,0,0,0,0,0,0,0,0,399.281,-396.676,-0.0078125,0.03125,573.007,0
     0,0,0,0,0,0,0,0,0,475.794,-469.329,-0.0078125,0.03125,573.027,0
     0,0,0,0,0,0,0,0,0,382.519,-306.88,-0.0078125,0.03125,573.046,0
     0,0,0,0,0,0,0,0,0,386.959,-403.275,-0.0078125,0.03125,573.066,0
     0,0,0,0,0,0,0,0,0,372.301,-460.989,-0.0078125,0.03125,573.086,0
     0,0,0,0,0,0,0,0,0,391.965,-428.771,-0.0078125,0.03125,573.107,0
     0,0,0,0,0,0,0,0,0,411.641,-444.346,-0.0078125,0.03125,573.127,0
     0,0,0,0,0,0,0,0,0,402.69,-405.392,-0.0078125,0.03125,573.146,0
     0,0,0,0,0,0,0,0,0,445.712,-487.567,-0.0078125,0.03125,573.166,0
     0,0,0,0,0,0,0,0,0,403.983,-415.861,-0.0078125,0.03125,573.186,0
     0,0,0,0,0,0,0,0,0,390.252,-434.122,-0.0078125,0.03125,573.206,0
     0,0,0,0,0,0,0,0,0,444.326,-409.157,-0.0078125,0.03125,573.226,0
     0,0,0,0,0,0,0,0,0,419.463,-436.005,-0.0078125,0.03125,573.247,0
     0,0,0,0,0,0,0,0,0,418.34,-416.919,-0.0078125,0.03125,573.266,0
     0,0,0,0,0,0,0,0,0,429.553,-423.89,-0.0078125,0.03125,573.286,0
     0,0,0,0,0,0,0,0,0,402.966,-489.512,-0.0078125,0.03125,573.306,0
     0,0,0,0,0,0,0,0,0,412.626,-389.719,-0.0078125,0.03125,573.326,0
     0,0,0,0,0,0,0,0,0,482.602,-523.464,-0.0078125,0.03125,573.347,0
     0,0,0,0,0,0,0,0,0,447.487,-345.901,-0.0078125,0.03125,573.366,0
     0,0,0,0,0,0,0,0,0,400.97,-493.949,-0.0078125,0.03125,573.386,0
     0,0,0,0,0,0,0,0,0,450.572,-421.638,-0.0078125,0.03125,573.406,0
     0,0,0,0,0,0,0,0,0,417.746,-410.442,-0.0078125,0.03125,573.427,0
     0,0,0,0,0,0,0,0,0,506.483,-515.384,-0.0078125,0.03125,573.446,0
     0,0,0,0,0,0,0,0,0,399.441,-465.224,-0.0078125,0.03125,573.467,0
     0,0,0,0,0,0,0,0,0,512.098,-496.648,-0.0078125,0.03125,573.486,0
     0,0,0,0,0,0,0,0,0,437.235,-488.95,-0.0078125,0.03125,573.507,0
     0,0,0,0,0,0,0,0,0,398.065,-422.431,-0.0078125,0.03125,573.527,0
     0,0,0,0,0,0,0,0,0,428.991,-492.138,-0.0078125,0.03125,573.546,0
     0,0,0,0,0,0,0,0,0,406.215,-421.683,-0.0078125,0.03125,573.566,0
     0,0,0,0,0,0,0,0,0,502.336,-448.652,-0.0078125,0.03125,573.588,0
     0,0,0,0,0,0,0,0,0,366.072,-360.289,-0.0078125,0.03125,573.607,0
     0,0,0,0,0,0,0,0,0,468.439,-286.131,-0.0078125,0.03125,573.626,0
     0,0,0,0,0,0,0,0,0,455.083,-442.85,-0.0078125,0.03125,573.647,0
     0,0,0,0,0,0,0,0,0,-61.5313,-532.325,-0.0078125,0.03125,573.667,0
     0,0,0,0,0,0,0,0,0,-41.3178,-496.044,-0.0078125,0.03125,573.686,0
     0,0,0,0,0,0,0,0,0,-41.3178,-493.255,-0.0078125,0.03125,573.706,0
     0,0,0,0,0,0,0,0,0,-41.3178,-427.853,-0.0078125,0.03125,573.726,0
     0,0,0,0,0,0,0,0,0,-41.3178,-424.016,-0.0078125,0.03125,573.746,0
     0,0,0,0,0,0,0,0,0,-41.3178,-433.924,-0.0078125,0.03125,573.766,0
     0,0,0,0,0,0,0,0,0,-41.3178,-388.644,-0.0078125,0.03125,573.786,0
     0,0,0,0,0,0,0,0,0,-41.3178,-383.686,-0.0078125,0.03125,573.806,0
     0,0,0,0,0,0,0,0,0,-41.3178,-366.771,-0.0078125,0.03125,573.827,0
     0,0,0,0,0,0,0,0,0,-5.35702,-370.48,-0.0078125,0.03125,573.847,0
     0,0,0,0,0,0,0,0,0,-49.1892,-318.223,-0.0078125,0.03125,573.867,0
     0,0,0,0,0,0,0,0,0,-67.6489,-319.882,-0.0078125,0.03125,573.886,0
     0,0,0,0,0,0,0,0,0,-92.4783,-329.717,-0.0078125,0.03125,573.907,0
     0,0,0,0,0,0,0,0,0,-89.6017,-313.219,-0.0078125,0.03125,573.927,0
     0,0,0,0,0,0,0,0,0,-162.298,-301.282,-0.0078125,0.03125,573.946,0
     0,0,0,0,0,0,0,0,0,-151.504,-338.73,-0.0078125,0.03125,573.966,0
     0,0,0,0,0,0,0,0,0,-132.274,-289.201,-0.0078125,0.03125,573.986,0
     0,0,0,0,0,0,0,0,0,-175.148,-326.435,-0.0078125,0.03125,574.006,0
     0,0,0,0,0,0,0,0,0,-198.287,-366.374,-0.0078125,0.03125,574.027,0
     0,0,0,0,0,0,0,0,0,-198.793,-338.152,-0.0078125,0.03125,574.047,0
     0,0,0,0,0,0,0,0,0,-198.916,-414.559,-0.0078125,0.03125,574.067,0
     0,0,0,0,0,0,0,0,0,-219.411,-346.105,-0.0078125,0.03125,574.087,0
     0,0,0,0,0,0,0,0,0,-180.323,-427.068,-0.0078125,0.03125,574.107,0
     0,0,0,0,0,0,0,0,0,-219.925,-363.108,-0.0078125,0.03125,574.127,0
     0,0,0,0,0,0,0,0,0,-232.526,-329.783,-0.0078125,0.03125,574.147,0
     0,0,0,0,0,0,0,0,0,-233.792,-281.932,-0.0078125,0.03125,574.166,0
     0,0,0,0,0,0,0,0,0,-293.531,-369.665,-0.0078125,0.03125,574.186,0
     0,0,0,0,0,0,0,0,0,-285.812,-390.495,-0.0078125,0.03125,574.207,0
     0,0,0,0,0,0,0,0,0,-278.276,-393.647,-0.0078125,0.03125,574.226,0
     0,0,0,0,0,0,0,0,0,-319.535,-435.227,-0.0078125,0.03125,574.246,0
     0,0,0,0,0,0,0,0,0,-289.658,-416.095,-0.0078125,0.03125,574.271,0
     0,0,0,0,0,0,0,0,0,-297.455,-456.767,-0.0078125,0.03125,574.287,0
     0,0,0,0,0,0,0,0,0,-334.706,-375.34,-0.0078125,0.03125,574.307,0
     0,0,0,0,0,0,0,0,0,-273.954,-443.931,-0.0078125,0.03125,574.327,0
     0,0,0,0,0,0,0,0,0,-313.839,-572.787,-0.0078125,0.03125,574.347,0
     0,0,0,0,0,0,0,0,0,-249.492,-457.917,-0.0078125,0.03125,574.367,0
     0,0,0,0,0,0,0,0,0,-265.731,-528.136,-0.0078125,0.03125,574.386,0
     0,0,0,0,0,0,0,0,0,-277.108,-459.77,-0.0078125,0.03125,574.406,0
     0,0,0,0,0,0,0,0,0,-309.689,-371.147,-0.0078125,0.03125,574.426,0
     0,0,0,0,0,0,0,0,0,-289.91,-395.71,-0.0078125,0.03125,574.446,0
     0,0,0,0,0,0,0,0,0,-295.003,-302.847,-0.0078125,0.03125,574.468,0
     0,0,0,0,0,0,0,0,0,-310.458,-422.101,-0.0078125,0.03125,574.487,0
     0,0,0,0,0,0,0,0,0,-291.189,-432.732,-0.0078125,0.03125,574.506,0
     0,0,0,0,0,0,0,0,0,-302.764,-398.446,-0.0078125,0.03125,574.527,0
     0,0,0,0,0,0,0,0,0,-262.626,-389.37,-0.0078125,0.03125,574.546,0
     0,0,0,0,0,0,0,0,0,-249.579,-384.756,-0.0078125,0.03125,574.566,0
     0,0,0,0,0,0,0,0,0,-263.061,-445.048,-0.0078125,0.03125,574.586,0
     0,0,0,0,0,0,0,0,0,-279.033,-422.601,-0.0078125,0.03125,574.606,0
     0,0,0,0,0,0,0,0,0,-253.727,-360.809,-0.0078125,0.03125,574.627,0
     0,0,0,0,0,0,0,0,0,-248.642,-411.463,-0.0078125,0.03125,574.647,0
     0,0,0,0,0,0,0,0,0,-236.855,-447.227,-0.0078125,0.03125,574.667,0
     0,0,0,0,0,0,0,0,0,-280.804,-406.273,-0.0078125,0.03125,574.687,0
     0,0,0,0,0,0,0,0,0,-258.264,-483.465,-0.0078125,0.03125,574.706,0
     0,0,0,0,0,0,0,0,0,-281.203,-419.754,-0.0078125,0.03125,574.727,0
     0,0,0,0,0,0,0,0,0,-289.201,-471.453,-0.0078125,0.03125,574.746,0
     0,0,0,0,0,0,0,0,0,-282.901,-375.474,-0.0078125,0.03125,574.767,0
     0,0,0,0,0,0,0,0,0,-262.178,-365.644,-0.0078125,0.03125,574.787,0
     0,0,0,0,0,0,0,0,0,-241.447,-373.713,-0.0078125,0.03125,574.807,0
     0,0,0,0,0,0,0,0,0,-237.6,-371.099,-0.0078125,0.03125,574.84,0
     0,0,0,0,0,0,0,0,0,-252.87,-416.354,-0.0078125,0.03125,574.846,0
     0,0,0,0,0,0,0,0,0,-250.998,-418.515,-0.0078125,0.03125,574.866,0
     0,0,0,0,0,0,0,0,0,-284.055,-385.498,-0.0078125,0.03125,574.886,0
     0,0,0,0,0,0,0,0,0,-247.853,-426.639,-0.0078125,0.03125,574.906,0
     0,0,0,0,0,0,0,0,0,-190.84,-369.529,-0.0078125,0.03125,574.937,0
     0,0,0,0,0,0,0,0,0,-219.549,-319.734,-0.0078125,0.03125,574.947,0
     0,0,0,0,0,0,0,0,0,-261.455,-388.591,-0.0078125,0.03125,574.966,0
     0,0,0,0,0,0,0,0,0,-269.052,-348.086,-0.0078125,0.03125,574.989,0
     0,0,0,0,0,0,0,0,0,-267.745,-387.447,-0.0078125,0.03125,575.006,0
     0,0,0,0,0,0,0,0,0,-247.051,-346.476,-0.0078125,0.03125,575.027,0
     0,0,0,0,0,0,0,0,0,-246.302,-352.379,-0.0078125,0.03125,575.047,0
     0,0,0,0,0,0,0,0,0,-255.474,-424.701,-0.0078125,0.03125,575.066,0
     0,0,0,0,0,0,0,0,0,-232.807,-346.015,-0.0078125,0.03125,575.086,0
     0,0,0,0,0,0,0,0,0,-220.997,-392.958,-0.0078125,0.03125,575.106,0
     0,0,0,0,0,0,0,0,0,-244.463,-365.504,-0.0078125,0.03125,575.126,0
     0,0,0,0,0,0,0,0,0,-243.392,-399.218,-0.0078125,0.03125,575.146,0
     0,0,0,0,0,0,0,0,0,-263.151,-386.765,-0.0078125,0.03125,575.166,0
     0,0,0,0,0,0,0,0,0,-241.298,-402.585,-0.0078125,0.03125,575.188,0
     0,0,0,0,0,0,0,0,0,-207.327,-296.134,-0.0078125,0.03125,575.207,0
     0,0,0,0,0,0,0,0,0,-83.4986,-238.903,-0.0078125,0.03125,575.227,0
     0,0,0,0,0,0,0,0,0,-91.4148,-220.753,-0.0078125,0.03125,575.247,0
     0,0,0,0,0,0,0,0,0,-60.7792,-140.696,-0.0078125,0.03125,575.267,0
     0,0,0,0,0,0,0,0,0,-65.2507,-129.019,-0.0078125,0.03125,575.286,0
     0,0,0,0,0,0,0,0,0,-62.0736,-161.852,-0.0078125,0.03125,575.307,0
     0,0,0,0,0,0,0,0,0,-45.9128,-116.089,-0.0078125,0.03125,575.326,0
     0,0,0,0,0,0,0,0,0,-28.9817,-87.5603,-0.0078125,0.03125,575.346,0
     0,0,0,0,0,0,0,0,0,-28.9817,-60.7905,-0.0078125,0.03125,575.366,0
     0,0,0,0,0,0,0,0,0,18.0797,-28.8041,-0.0078125,0.03125,575.398,0
     0,0,0,0,0,0,0,0,0,31.9193,-29.8146,-0.0078125,0.03125,575.406,0
     0,0,0,0,0,0,0,0,0,28.4843,-32.079,-0.0078125,0.03125,575.426,0
     0,0,0,0,0,0,0,0,0,19.1022,-22.1437,-0.0078125,0.03125,575.457,0
     0,0,0,0,0,0,0,0,0,19.1022,-18.5565,-0.0078125,0.03125,575.466,0
     0,0,0,0,0,0,0,0,0,19.1022,-17.0167,-0.0078125,0.03125,575.487,0
     0,0,0,0,0,0,0,0,0,19.1022,-16.4501,-0.0078125,0.03125,575.507,0
     0,0,0,0,0,0,0,0,0,19.1022,-16.4501,-0.0078125,0.03125,575.527,0
     0,0,0,0,0,0,0,0,0,19.1022,-16.4501,-0.0078125,0.03125,575.547,0
     0,0,0,0,0,0,0,0,0,19.1022,-16.4501,-0.0078125,0.03125,575.566,0
     0,0,0,0,0,0,0,0,0,19.1022,-16.4501,-0.0078125,0.03125,575.586,0
     0,0,0,0,0,0,0,0,0,19.1022,-16.4501,-0.0078125,0.03125,575.606,0
     0,0,0,0,0,0,0,0,0,19.1022,-16.4501,-0.0078125,0.03125,575.627,0
     0,0,0,0,0,0,0,0,0,19.1022,-16.4501,-0.0078125,0.03125,575.647,0
     0,0,0,0,0,0,0,0,0,19.1022,-16.4501,-0.0078125,0.03125,575.667,0
     0,0,0,0,0,0,0,0,0,19.1022,-16.4501,-0.0078125,0.03125,575.687,0
     0,0,0,0,0,0,0,0,0,19.1022,-16.4501,-0.0078125,0.03125,575.706,0
     0,0,0,0,0,0,0,0,0,19.1022,-16.4501,-0.0078125,0.03125,575.726,0
     0,0,0,0,0,0,0,0,0,19.1022,-16.4501,-0.0078125,0.03125,575.746,0
     0,0,0,0,0,0,0,0,0,19.1022,-16.4501,-0.0078125,0.03125,575.766,0
     0,0,0,0,0,0,0,0,0,19.1022,-16.4501,-0.0078125,0.03125,575.787,0
     0,0,0,0,0,0,0,0,0,19.1022,-16.4501,-0.0078125,0.03125,575.81,0
     0,0,0,0,0,0,0,0,0,19.1022,-16.4501,-0.0078125,0.03125,575.841,0
     0,0,0,0,0,0,0,0,0,19.1022,-16.4501,-0.0078125,0.03125,575.855,0
     0,0,0,0,0,0,0,0,0,19.1022,-16.4501,-0.0078125,0.03125,575.866,0
     0,0,0,0,0,0,0,0,0,0,-16.4501,-0.0078125,0.03125,575.887,0
     0,0,0,0,0,0,0,0,0,0,0,-0.0078125,0.03125,575.907,0
     0,0,0,0,0,0,0,0,0,0,0,-0.0078125,0.03125,575.926,0
     0,0,0,0,0,0,0,0,0,0,0,-0.0078125,0.03125,575.946,0
     0,0,0,0,0,0,0,0,0,0,0,-0.0078125,0.03125,575.967,0
     0,0,0,0,0,0,0,0,0,0,0,-0.0078125,0.03125,575.986,0
     0,0,0,0,0,0,0,0,0,0,0,-0.0078125,0.03125,576.006,0
     0,0,0,0,0,0,0,0,0,0,0,-0.0078125,0.03125,576.027,0
     0,0,0,0,0,0,0,0,0,0,0,-0.0078125,0.03125,576.064,0
     0,0,0,0,0,0,0,0,0,0,0,-0.0078125,0.03125,576.067,0
     0,0,0,0,0,0,0,0,0,0,0,-0.0078125,0.03125,576.086,0
     0,0,0,0,0,0,0,0,0,0,0,-0.0078125,0.03125,576.115,0
     0,0,0,0,0,0,0,0,0,0,0,-0.0078125,0.03125,576.127,0
     0,0,0,0,0,0,0,0,0,0,0,-0.0078125,0.03125,576.147,0
     0,0,0,0,0,0,0,0,0,0,0,-0.0078125,0.03125,576.167,0
     0,0,0,0,0,0,0,0,0,0,0,-0.0078125,0.03125,576.186,0
     0,0,0,0,0,0,0,0,0,0,0,-0.0078125,0.03125,576.206,0
     0,0,0,0,0,0,0,0,0,0,0,-0.0078125,0.03125,576.227,0
     0,0,0,0,0,0,0,0,0,0,0,-0.0078125,0.03125,576.25,0
     0,0,0,0,0,0,0,0,0,0,0,-0.0078125,0.03125,576.266,0
     0,0,0,0,0,0,0,0,0,0,0,-0.0078125,0.03125,576.287,0
     0,0,0,0,0,0,0,0,0,0,0,-0.0078125,0.03125,576.308,0
     0,0,0,0,0,0,0,0,0,0,0,-0.0078125,0.03125,576.326,0
     0,0,0,0,0,0,0,0,0,0,0,-0.0078125,0.03125,576.346,0
     0,0,0,0,0,0,0,0,0,0,0,-0.0078125,0.03125,576.366,0
     0,0,0,0,0,0,0,0,0,0,0,-0.0078125,0.03125,576.386,0
     0,0,0,0,0,0,0,0,0,0,0,-0.0078125,0.03125,576.425,0
     0,0,0,0,0,0,0,0,0,0,0,-0.0078125,0.03125,576.428,0
     0,0,0,0,0,0,0,0,0,0,0,-0.0078125,0.03125,576.446,0
     0,0,0,0,0,0,0,0,0,0,0,-0.0078125,0.03125,576.469,0
     0,0,0,0,0,0,0,0,0,0,0,-0.0078125,0.03125,576.487,0
     0,0,0,0,0,0,0,0,0,0,0,-0.0078125,0.03125,576.507,0
     0,0,0,0,0,0,0,0,0,0,0,-0.0078125,0.03125,576.527,0
     0,0,0,0,0,0,0,0,0,0,0,-0.0078125,0.03125,576.549,0
     0,0,0,0,0,0,0,0,0,0,0,-0.0078125,0.03125,576.566,0
     0,0,0,0,0,0,0,0,0,0,-441.082,-0.0078125,0.03125,576.597,0
     0,0,0,0,0,0,0,0,0,0,-414.817,-0.0078125,0.03125,576.607,0
     0,0,0,0,0,0,0,0,0,63.9247,-700.231,-0.0078125,0.03125,576.626,0
     0,0,0,0,0,0,0,0,0,61.7372,-780.884,-0.0078125,0.03125,576.646,0
     0,0,0,0,0,0,0,0,0,89.2371,-666.533,-0.0078125,0.03125,576.666,0
     0,0,0,0,0,0,0,0,0,103.177,-750.723,-0.0078125,0.03125,576.686,0
     0,0,0,0,0,0,0,0,0,172.909,-802.278,-0.0078125,0.03125,576.707,0
     0,0,0,0,0,0,0,0,0,173.181,-705.716,-0.0078125,0.03125,576.726,0
     0,0,0,0,0,0,0,0,0,215.462,-752.276,-0.0078125,0.03125,576.746,0
     0,0,0,0,0,0,0,0,0,219.549,-730.434,-0.0078125,0.03125,576.767,0
     0,0,0,0,0,0,0,0,0,237.423,-895.375,-0.0078125,0.03125,576.787,0
     0,0,0,0,0,0,0,0,0,279.458,-786.225,-0.0078125,0.03125,576.806,0
     0,0,0,0,0,0,0,0,0,310.776,-678.15,-0.0078125,0.03125,576.827,0
     0,0,0,0,0,0,0,0,0,300.3,-821.794,-0.0078125,0.03125,576.847,0
     0,0,0,0,0,0,0,0,0,291.155,-909.174,-0.0078125,0.03125,576.866,0
     0,0,0,0,0,0,0,0,0,376.032,-828.089,-0.0078125,0.03125,576.886,0
     0,0,0,0,0,0,0,0,0,332.392,-1051.03,-0.0078125,0.03125,576.906,0
     0,0,0,0,0,0,0,0,0,359.486,-1019.47,-0.0078125,0.03125,576.926,0
     0,0,0,0,0,0,0,0,0,364.817,-916.296,-0.0078125,0.03125,576.946,0
     0,0,0,0,0,0,0,0,0,349.388,-950.887,-0.0078125,0.03125,576.966,0
     0,0,0,0,0,0,0,0,0,370.521,-1034.29,-0.0078125,0.03125,576.986,0
     0,0,0,0,0,0,0,0,0,371.844,-942.107,-0.0078125,0.03125,577.006,0
     0,0,0,0,0,0,0,0,0,386.735,-977.565,-0.0078125,0.03125,577.027,0
     0,0,0,0,0,0,0,0,0,361.873,-874.164,-0.0078125,0.03125,577.046,0
     0,0,0,0,0,0,0,0,0,402.69,-1064.74,-0.0078125,0.03125,577.066,0
     0,0,0,0,0,0,0,0,0,357.188,-1044.17,-0.0078125,0.03125,577.086,0
     0,0,0,0,0,0,0,0,0,424.646,-1306.68,-0.0078125,0.03125,577.107,0
     0,0,0,0,0,0,0,0,0,368.745,-1080.32,-0.0078125,0.03125,577.126,0
     0,0,0,0,0,0,0,0,0,390.229,-1140.32,-0.0078125,0.03125,577.147,0
     0,0,0,0,0,0,0,0,0,382.907,-1060.61,-0.0078125,0.03125,577.166,0
     0,0,0,0,0,0,0,0,0,392.611,-1001.15,-0.0078125,0.03125,577.187,0
     0,0,0,0,0,0,0,0,0,400.609,-1085.19,-0.0078125,0.03125,577.207,0
     0,0,0,0,0,0,0,0,0,376.499,-1366.68,-0.0078125,0.03125,577.226,0
     0,0,0,0,0,0,0,0,0,418.743,-1299.21,-0.0078125,0.03125,577.246,0
     0,0,0,0,0,0,0,0,0,383.01,-1203.37,-0.0078125,0.03125,577.266,0
     0,0,0,0,0,0,0,0,0,418.576,-1165.64,-0.0078125,0.03125,577.287,0
     0,0,0,0,0,0,0,0,0,443.38,-1144.23,-0.0078125,0.03125,577.307,0
     0,0,0,0,0,0,0,0,0,493.974,-926.14,-0.0078125,0.03125,577.327,0
     0,0,0,0,0,0,0,0,0,387.672,-886.957,-0.0078125,0.03125,577.346,0
     0,0,0,0,0,0,0,0,0,458.19,-1083.6,-0.0078125,0.03125,577.366,0
     0,0,0,0,0,0,0,0,0,330.836,-1189.06,-0.0078125,0.03125,577.386,0
     0,0,0,0,0,0,0,0,0,415.317,-1114.08,-0.0078125,0.03125,577.406,0
     0,0,0,0,0,0,0,0,0,364.644,-1008.27,-0.0078125,0.03125,577.426,0
     0,0,0,0,0,0,0,0,0,469.23,-1079.27,-0.0078125,0.03125,577.446,0
     0,0,0,0,0,0,0,0,0,391.742,-1199.11,-0.0078125,0.03125,577.466,0
     0,0,0,0,0,0,0,0,0,387.237,-1062.36,-0.0078125,0.03125,577.486,0
     0,0,0,0,0,0,0,0,0,399.624,-1023.49,-0.0078125,0.03125,577.506,0
     0,0,0,0,0,0,0,0,0,402.885,-798.18,-0.0078125,0.03125,577.526,0
     0,0,0,0,0,0,0,0,0,429.526,-1308.9,-0.0078125,0.03125,577.546,0
     0,0,0,0,0,0,0,0,0,418.962,-1117.19,-0.0078125,0.03125,577.567,0
     0,0,0,0,0,0,0,0,0,397.44,-1125.37,-0.0078125,0.03125,577.587,0
     0,0,0,0,0,0,0,0,0,386.511,-1152.01,-0.0078125,0.03125,577.607,0
     0,0,0,0,0,0,0,0,0,363.742,-1012.91,-0.0078125,0.03125,577.626,0
     0,0,0,0,0,0,0,0,0,386.541,-1028.7,-0.0078125,0.03125,577.646,0
     0,0,0,0,0,0,0,0,0,344.364,-1046.85,-0.0078125,0.03125,577.666,0
     0,0,0,0,0,0,0,0,0,375.045,-1161.31,-0.0078125,0.03125,577.686,0
     0,0,0,0,0,0,0,0,0,395.679,-961.446,-0.0078125,0.03125,577.707,0
     0,0,0,0,0,0,0,0,0,344.382,-1073.83,-0.0078125,0.03125,577.726,0
     0,0,0,0,0,0,0,0,0,361.847,-1222.34,-0.0078125,0.03125,577.748,0
     0,0,0,0,0,0,0,0,0,406.281,-1065.93,-0.0078125,0.03125,577.767,0
     0,0,0,0,0,0,0,0,0,377.608,-1092.24,-0.0078125,0.03125,577.786,0
     0,0,0,0,0,0,0,0,0,336.723,-918.822,-0.0078125,0.03125,577.806,0
     0,0,0,0,0,0,0,0,0,350.84,-909.504,-0.0078125,0.03125,577.828,0
     0,0,0,0,0,0,0,0,0,369.802,-1088.91,-0.0078125,0.03125,577.846,0
     0,0,0,0,0,0,0,0,0,442.321,-1215.36,-0.0078125,0.03125,577.866,0
     0,0,0,0,0,0,0,0,0,460.373,-1061.12,-0.0078125,0.03125,577.887,0
     0,0,0,0,0,0,0,0,0,374.406,-971.77,-0.0078125,0.03125,577.907,0
     0,0,0,0,0,0,0,0,0,465.734,-1000.75,-0.0078125,0.03125,577.926,0
     0,0,0,0,0,0,0,0,0,429.028,-965.111,-0.0078125,0.03125,577.946,0
     0,0,0,0,0,0,0,0,0,437.56,-1121.08,-0.0078125,0.03125,577.966,0
     0,0,0,0,0,0,0,0,0,413.07,-1097.39,-0.0078125,0.03125,577.987,0
     0,0,0,0,0,0,0,0,0,510.347,-859.328,-0.0078125,0.03125,578.007,0
     0,0,0,0,0,0,0,0,0,433.407,-1046.19,-0.0078125,0.03125,578.027,0
     0,0,0,0,0,0,0,0,0,463.994,-1038.48,-0.0078125,0.03125,578.046,0
     0,0,0,0,0,0,0,0,0,431.742,-918.78,-0.0078125,0.03125,578.077,0
     0,0,0,0,0,0,0,0,0,508.156,-1041.67,-0.0078125,0.03125,578.087,0
     0,0,0,0,0,0,0,0,0,405.162,-1034.18,-0.0078125,0.03125,578.106,0
     0,0,0,0,0,0,0,0,0,414.662,-935.41,-0.0078125,0.03125,578.14,0
     0,0,0,0,0,0,0,0,0,455.913,-985.028,-0.0078125,0.03125,578.147,0
     0,0,0,0,0,0,0,0,0,408.18,-982.704,-0.0078125,0.03125,578.166,0
     0,0,0,0,0,0,0,0,0,416.814,-1084.6,-0.0078125,0.03125,578.187,0
     0,0,0,0,0,0,0,0,0,408.455,-955.384,-0.0078125,0.03125,578.207,0
     0,0,0,0,0,0,0,0,0,356.132,-908.059,-0.0078125,0.03125,578.227,0
     0,0,0,0,0,0,0,0,0,380.178,-957.763,-0.0078125,0.03125,578.246,0
     0,0,0,0,0,0,0,0,0,371.519,-1225.34,-0.0078125,0.03125,578.293,0
     0,0,0,0,0,0,0,0,0,362.818,-998.153,-0.0078125,0.03125,578.296,0
     0,0,0,0,0,0,0,0,0,367.938,-1192.89,-0.0078125,0.03125,578.306,0
     0,0,0,0,0,0,0,0,0,398.764,-1177.58,-0.0078125,0.03125,578.329,0
     0,0,0,0,0,0,0,0,0,348.038,-1208.82,-0.0078125,0.03125,578.346,0
     0,0,0,0,0,0,0,0,0,360.03,-979.672,-0.0078125,0.03125,578.367,0
     0,0,0,0,0,0,0,0,0,329.712,-971.628,-0.0078125,0.03125,578.387,0
     0,0,0,0,0,0,0,0,0,336.553,-1025.01,-0.0078125,0.03125,578.406,0
     0,0,0,0,0,0,0,0,0,337.593,-1073.88,-0.0078125,0.03125,578.426,0
     0,0,0,0,0,0,0,0,0,351.451,-1209.99,-0.0078125,0.03125,578.446,0
     0,0,0,0,0,0,0,0,0,325.728,-993.838,-0.0078125,0.03125,578.467,0
     0,0,0,0,0,0,0,0,0,329.815,-1244.25,-0.0078125,0.03125,578.487,0
     0,0,0,0,0,0,0,0,0,371.285,-660.567,-0.0078125,0.03125,578.507,0
     0,0,0,0,0,0,0,0,0,315.159,-1220.03,-0.0078125,0.03125,578.527,0
     0,0,0,0,0,0,0,0,0,326.307,-1169.45,-0.0078125,0.03125,578.547,0
     0,0,0,0,0,0,0,0,0,379.881,-1053.52,-0.0078125,0.03125,578.567,0
     0,0,0,0,0,0,0,0,0,368.704,-1188.42,-0.0078125,0.03125,578.587,0
     0,0,0,0,0,0,0,0,0,356.672,-854.445,-0.0078125,0.03125,578.606,0
     0,0,0,0,0,0,0,0,0,456.621,-1097.88,-0.0078125,0.03125,578.626,0
     0,0,0,0,0,0,0,0,0,413.976,-1254.63,-0.0078125,0.03125,578.649,0
     0,0,0,0,0,0,0,0,0,395.836,-830.599,-0.0078125,0.03125,578.667,0
     0,0,0,0,0,0,0,0,0,329.099,-1095.11,-0.0078125,0.03125,578.691,0
     0,0,0,0,0,0,0,0,0,375.848,-1143.97,-0.0078125,0.03125,578.707,0
     0,0,0,0,0,0,0,0,0,435.114,-1082.9,-0.0078125,0.03125,578.727,0
     0,0,0,0,0,0,0,0,0,386.885,-1024.96,-0.0078125,0.03125,578.747,0
     0,0,0,0,0,0,0,0,0,442.106,-1127.9,-0.0078125,0.03125,578.77,0
     0,0,0,0,0,0,0,0,0,396.692,-1002.76,-0.0078125,0.03125,578.794,0
     0,0,0,0,0,0,0,0,0,441.794,-1148.37,-0.0078125,0.03125,578.806,0
     0,0,0,0,0,0,0,0,0,462.203,-1026.8,-0.0078125,0.03125,578.827,0
     0,0,0,0,0,0,0,0,0,384.371,-900.576,-0.0078125,0.03125,578.854,0
     0,0,0,0,0,0,0,0,0,464.835,-1164.28,-0.0078125,0.03125,578.866,0
     0,0,0,0,0,0,0,0,0,420.265,-1021.03,-0.0078125,0.03125,578.887,0
     0,0,0,0,0,0,0,0,0,416.276,-964.367,-0.0078125,0.03125,578.907,0
     0,0,0,0,0,0,0,0,0,453.217,-990.589,-0.0078125,0.03125,578.926,0
     0,0,0,0,0,0,0,0,0,441.55,-1192.25,-0.0078125,0.03125,578.946,0
     0,0,0,0,0,0,0,0,0,406.199,-1082.49,-0.0078125,0.03125,578.966,0
     0,0,0,0,0,0,0,0,0,444.612,-1067.58,-0.0078125,0.03125,578.987,0
     0,0,0,0,0,0,0,0,0,419.551,-1110.25,-0.0078125,0.03125,579.008,0
     0,0,0,0,0,0,0,0,0,419.463,-1251.17,-0.0078125,0.03125,579.028,0
     0,0,0,0,0,0,0,0,0,442.948,-1173.3,-0.0078125,0.03125,579.047,0
     0,0,0,0,0,0,0,0,0,417.005,-1110.93,-0.0078125,0.03125,579.067,0
     0,0,0,0,0,0,0,0,0,463.661,-1108.95,-0.0078125,0.03125,579.086,0
     0,0,0,0,0,0,0,0,0,447.447,-974.896,-0.0078125,0.03125,579.108,0
     0,0,0,0,0,0,0,0,0,387.139,-1142.2,-0.0078125,0.03125,579.13,0
     0,0,0,0,0,0,0,0,0,434.386,-1220.48,-0.0078125,0.03125,579.147,0
     0,0,0,0,0,0,0,0,0,418.244,-1120.51,-0.0078125,0.03125,579.166,0
     0,0,0,0,0,0,0,0,0,431.202,-1228.05,-0.0078125,0.03125,579.187,0
     0,0,0,0,0,0,0,0,0,373.072,-780.793,-0.0078125,0.03125,579.207,0
     0,0,0,0,0,0,0,0,0,432.545,-1130.52,-0.0078125,0.03125,579.236,0
     0,0,0,0,0,0,0,0,0,430.45,-1065.42,-0.0078125,0.03125,579.256,0
     0,0,0,0,0,0,0,0,0,413.411,-1109.63,-0.0078125,0.03125,579.266,0
     0,0,0,0,0,0,0,0,0,336.247,-955.521,-0.0078125,0.03125,579.287,0
     0,0,0,0,0,0,0,0,0,414.25,-1129.69,-0.0078125,0.03125,579.307,0
     0,0,0,0,0,0,0,0,0,373.916,-1075.27,-0.0078125,0.03125,579.327,0
     0,0,0,0,0,0,0,0,0,422.726,-1132.25,-0.0078125,0.03125,579.347,0
     0,0,0,0,0,0,0,0,0,381.461,-1115.14,-0.0078125,0.03125,579.366,0
     0,0,0,0,0,0,0,0,0,442.253,-1042.26,-0.0078125,0.03125,579.386,0
     0,0,0,0,0,0,0,0,0,353.582,-982.898,-0.0078125,0.03125,579.406,0
     0,0,0,0,0,0,0,0,0,399.321,-1050.37,-0.0078125,0.03125,579.426,0
     0,0,0,0,0,0,0,0,0,383.759,-1096.25,-0.0078125,0.03125,579.446,0
     0,0,0,0,0,0,0,0,0,375.749,-1014.51,-0.0078125,0.03125,579.466,0
     0,0,0,0,0,0,0,0,0,364.1,-1198.83,-0.0078125,0.03125,579.487,0
     0,0,0,0,0,0,0,0,0,395.327,-1275.75,-0.0078125,0.03125,579.507,0
     0,0,0,0,0,0,0,0,0,422.842,-950.57,-0.0078125,0.03125,579.527,0
     0,0,0,0,0,0,0,0,0,360.497,-1037.29,-0.0078125,0.03125,579.547,0
     0,0,0,0,0,0,0,0,0,424.8,-1123.78,-0.0078125,0.03125,579.567,0
     0,0,0,0,0,0,0,0,0,396.22,-1254.63,-0.0078125,0.03125,579.586,0
     0,0,0,0,0,0,0,0,0,412.601,-838.856,-0.0078125,0.03125,579.606,0
     0,0,0,0,0,0,0,0,0,344.453,-1221.3,-0.0078125,0.03125,579.644,0
     0,0,0,0,0,0,0,0,0,446.818,-950.48,-0.0078125,0.03125,579.649,0
     0,0,0,0,0,0,0,0,0,351.426,-1050.92,-0.0078125,0.03125,579.667,0
     0,0,0,0,0,0,0,0,0,376.251,-1117.01,-0.0078125,0.03125,579.691,0
     0,0,0,0,0,0,0,0,0,374.441,-1134.69,-0.0078125,0.03125,579.707,0
     0,0,0,0,0,0,0,0,0,360.244,-1019.94,-0.0078125,0.03125,579.727,0
     0,0,0,0,0,0,0,0,0,369.474,-1153.54,-0.0078125,0.03125,579.747,0
     0,0,0,0,0,0,0,0,0,382.673,-1140.19,-0.0078125,0.03125,579.767,0
     0,0,0,0,0,0,0,0,0,366.75,-1152.21,-0.0078125,0.03125,579.787,0
     0,0,0,0,0,0,0,0,0,386.264,-997.357,-0.0078125,0.03125,579.807,0
     0,0,0,0,0,0,0,0,0,395.273,-1210.36,-0.0078125,0.03125,579.826,0
     0,0,0,0,0,0,0,0,0,340.055,-1197.39,-0.0078125,0.03125,579.847,0
     0,0,0,0,0,0,0,0,0,357.207,-1115.26,-0.0078125,0.03125,579.867,0
     0,0,0,0,0,0,0,0,0,361.311,-1047.39,-0.0078125,0.03125,579.886,0
     0,0,0,0,0,0,0,0,0,417.659,-1241,-0.0078125,0.03125,579.906,0
     0,0,0,0,0,0,0,0,0,471.276,-920.217,-0.0078125,0.03125,579.95,0
     0,0,0,0,0,0,0,0,0,422.842,-1160.97,-0.0078125,0.03125,579.953,0
     0,0,0,0,0,0,0,0,0,465.853,-1247.5,-0.0078125,0.03125,579.973,0
     0,0,0,0,0,0,0,0,0,444.652,-1127.01,-0.0078125,0.03125,579.987,0
     0,0,0,0,0,0,0,0,0,430.877,-1163.53,-0.0078125,0.03125,580.007,0
     0,0,0,0,0,0,0,0,0,458.043,-1044.55,-0.0078125,0.03125,580.026,0
     0,0,0,0,0,0,0,0,0,470.356,-978.234,-0.0078125,0.03125,580.046,0
     0,0,0,0,0,0,0,0,0,457.112,-1077.53,-0.0078125,0.03125,580.066,0
     0,0,0,0,0,0,0,0,0,427.213,-1136.23,-0.0078125,0.03125,580.088,0
     0,0,0,0,0,0,0,0,0,486.204,-1018.02,-0.0078125,0.03125,580.106,0
     0,0,0,0,0,0,0,0,0,435.01,-1140.51,-0.0078125,0.03125,580.129,0
     0,0,0,0,0,0,0,0,0,464.576,-1185.61,-0.0078125,0.03125,580.148,0
     0,0,0,0,0,0,0,0,0,448.179,-1084.83,-0.0078125,0.03125,580.166,0
     0,0,0,0,0,0,0,0,0,456.913,-1037.45,-0.0078125,0.03125,580.186,0
     0,0,0,0,0,0,0,0,0,413.488,-1095.35,-0.0078125,0.03125,580.214,0
     0,0,0,0,0,0,0,0,0,364.87,-1041.34,-0.0078125,0.03125,580.227,0
     0,0,0,0,0,0,0,0,0,367.067,-1035.14,-0.0078125,0.03125,580.247,0
     0,0,0,0,0,0,0,0,0,381.119,-993.443,-0.0078125,0.03125,580.272,0
     0,0,0,0,0,0,0,0,0,372.169,-997.158,-0.0078125,0.03125,580.289,0
     0,0,0,0,0,0,0,0,0,378.058,-971.015,-0.0078125,0.03125,580.306,0
     0,0,0,0,0,0,0,0,0,380.46,-1074.81,-0.0078125,0.03125,580.326,0
     0,0,0,0,0,0,0,0,0,349.382,-1146.2,-0.0078125,0.03125,580.348,0
     0,0,0,0,0,0,0,0,0,370.899,-1058.59,-0.0078125,0.03125,580.367,0
     0,0,0,0,0,0,0,0,0,374.925,-968.992,-0.0078125,0.03125,580.387,0
     0,0,0,0,0,0,0,0,0,497.735,-1102.29,-0.0078125,0.03125,580.407,0
     0,0,0,0,0,0,0,0,0,341.198,-1168.22,-0.0078125,0.03125,580.427,0
     0,0,0,0,0,0,0,0,0,452.192,-1216.25,-0.0078125,0.03125,580.447,0
     0,0,0,0,0,0,0,0,0,396.519,-1036.05,-0.0078125,0.03125,580.47,0
     0,0,0,0,0,0,0,0,0,454.721,-1096.43,-0.0078125,0.03125,580.486,0
     0,0,0,0,0,0,0,0,0,380.17,-991.916,-0.0078125,0.03125,580.506,0
     0,0,0,0,0,0,0,0,0,432.722,-926.999,-0.0078125,0.03125,580.527,0
     0,0,0,0,0,0,0,0,0,401.953,-980.921,-0.0078125,0.03125,580.547,0
     0,0,0,0,0,0,0,0,0,389.856,-1156.8,-0.0078125,0.03125,580.566,0
     0,0,0,0,0,0,0,0,0,394.649,-1160.63,-0.0078125,0.03125,580.586,0
     0,0,0,0,0,0,0,0,0,373.979,-1020.3,-0.0078125,0.03125,580.606,0
     0,0,0,0,0,0,0,0,0,381.621,-1027.33,-0.0078125,0.03125,580.626,0
     0,0,0,0,0,0,0,0,0,384.46,-1134.88,-0.0078125,0.03125,580.646,0
     0,0,0,0,0,0,0,0,0,393.43,-1042.43,-0.0078125,0.03125,580.667,0
     0,0,0,0,0,0,0,0,0,431.648,-991.916,-0.0078125,0.03125,580.687,0
     0,0,0,0,0,0,0,0,0,375.968,-1009.03,-0.0078125,0.03125,580.707,0
     0,0,0,0,0,0,0,0,0,386.518,-1178.2,-0.0078125,0.03125,580.727,0
     0,0,0,0,0,0,0,0,0,437.79,-1027.12,-0.0078125,0.03125,580.746,0
     0,0,0,0,0,0,0,0,0,428.376,-997.059,-0.0078125,0.03125,580.766,0
     0,0,0,0,0,0,0,0,0,386.138,-1043.46,-0.0078125,0.03125,580.786,0
     0,0,0,0,0,0,0,0,0,428.835,-1062.98,-0.0078125,0.03125,580.806,0
     0,0,0,0,0,0,0,0,0,421.372,-968.758,-0.0078125,0.03125,580.827,0
     0,0,0,0,0,0,0,0,0,426.658,-1070.21,-0.0078125,0.03125,580.846,0
     0,0,0,0,0,0,0,0,0,455.903,-838.504,-0.0078125,0.03125,580.867,0
     0,0,0,0,0,0,0,0,0,391.221,-1101.69,-0.0078125,0.03125,580.887,0
     0,0,0,0,0,0,0,0,0,404.351,-1081.67,-0.0078125,0.03125,580.907,0
     0,0,0,0,0,0,0,0,0,446.847,-1038.1,-0.0078125,0.03125,580.927,0
     0,0,0,0,0,0,0,0,0,371.457,-1080.15,-0.0078125,0.03125,580.947,0
     0,0,0,0,0,0,0,0,0,444.771,-1137.01,-0.0078125,0.03125,580.967,0
     0,0,0,0,0,0,0,0,0,410.433,-1108.83,-0.0078125,0.03125,580.987,0
     0,0,0,0,0,0,0,0,0,450.897,-1007.15,-0.0078125,0.03125,581.006,0
     0,0,0,0,0,0,0,0,0,436.681,-1061.01,-0.0078125,0.03125,581.026,0
     0,0,0,0,0,0,0,0,0,369.181,-1058.03,-0.0078125,0.03125,581.046,0
     0,0,0,0,0,0,0,0,0,448.39,-1222.42,-0.0078125,0.03125,581.066,0
     0,0,0,0,0,0,0,0,0,390.793,-996.066,-0.0078125,0.03125,581.087,0
     0,0,0,0,0,0,0,0,0,386.608,-1037.24,-0.0078125,0.03125,581.106,0
     0,0,0,0,0,0,0,0,0,387.042,-1225.57,-0.0078125,0.03125,581.126,0
     0,0,0,0,0,0,0,0,0,416.563,-1128.29,-0.0078125,0.03125,581.15,0
     0,0,0,0,0,0,0,0,0,427.35,-1123.66,-0.0078125,0.03125,581.167,0
     0,0,0,0,0,0,0,0,0,364.604,-938.659,-0.0078125,0.03125,581.186,0
     0,0,0,0,0,0,0,0,0,378.229,-983.671,-0.0078125,0.03125,581.206,0
     0,0,0,0,0,0,0,0,0,381.163,-1011.68,-0.0078125,0.03125,581.227,0
     0,0,0,0,0,0,0,0,0,369.604,-836.4,-0.0078125,0.03125,581.246,0
     0,0,0,0,0,0,0,0,0,389.007,-1021.55,-0.0078125,0.03125,581.267,0
     0,0,0,0,0,0,0,0,0,394.773,-1120.26,-0.0078125,0.03125,581.287,0
     0,0,0,0,0,0,0,0,0,356.742,-1148.96,-0.0078125,0.03125,581.306,0
     0,0,0,0,0,0,0,0,0,421.985,-1049.65,-0.0078125,0.03125,581.326,0
     0,0,0,0,0,0,0,0,0,410.231,-1068.55,-0.0078125,0.03125,581.346,0
     0,0,0,0,0,0,0,0,0,406.24,-1084.6,-0.0078125,0.03125,581.366,0
     0,0,0,0,0,0,0,0,0,420.698,-1019.52,-0.0078125,0.03125,581.386,0
     0,0,0,0,0,0,0,0,0,437.178,-994.085,-0.0078125,0.03125,581.407,0
     0,0,0,0,0,0,0,0,0,434.188,-1159.42,-0.0078125,0.03125,581.426,0
     0,0,0,0,0,0,0,0,0,426.348,-1085.07,-0.0078125,0.03125,581.447,0
     0,0,0,0,0,0,0,0,0,360.536,-1048,-0.0078125,0.03125,581.466,0
     0,0,0,0,0,0,0,0,0,365.377,-1207.95,-0.0078125,0.03125,581.486,0
     0,0,0,0,0,0,0,0,0,344.62,-1281.64,-0.0078125,0.03125,581.507,0
     0,0,0,0,0,0,0,0,0,374.125,-1058.43,-0.0078125,0.03125,581.526,0
     0,0,0,0,0,0,0,0,0,385.312,-1067.46,-0.0078125,0.03125,581.546,0
     0,0,0,0,0,0,0,0,0,384.867,-1100.72,-0.0078125,0.03125,581.567,0
     0,0,0,0,0,0,0,0,0,482.428,-867.98,-0.0078125,0.03125,581.587,0
     0,0,0,0,0,0,0,0,0,382.132,-918.063,-0.0078125,0.03125,581.607,0
     0,0,0,0,0,0,0,0,0,467.913,-946.746,-0.0078125,0.03125,581.626,0
     0,0,0,0,0,0,0,0,0,399.616,-1098.42,-0.0078125,0.03125,581.647,0
     0,0,0,0,0,0,0,0,0,447.738,-1225.64,-0.0078125,0.03125,581.666,0
     0,0,0,0,0,0,0,0,0,514.986,-1050.2,-0.0078125,0.03125,581.686,0
     0,0,0,0,0,0,0,0,0,440.888,-1134.11,-0.0078125,0.03125,581.707,0
     0,0,0,0,0,0,0,0,0,385.84,-1355.2,-0.0078125,0.03125,581.727,0
     0,0,0,0,0,0,0,0,0,436.405,-1054.13,-0.0078125,0.03125,581.747,0
     0,0,0,0,0,0,0,0,0,494.878,-939.011,-0.0078125,0.03125,581.766,0
     0,0,0,0,0,0,0,0,0,384.298,-1075.33,-0.0078125,0.03125,581.786,0
     0,0,0,0,0,0,0,0,0,390.511,-1033.97,-0.0078125,0.03125,581.807,0
     0,0,0,0,0,0,0,0,0,516.142,-1070.55,-0.0078125,0.03125,581.827,0
     0,0,0,0,0,0,0,0,0,384.401,-1323.45,-0.0078125,0.03125,581.847,0
     0,0,0,0,0,0,0,0,0,422.547,-1319.44,-0.0078125,0.03125,581.866,0
     0,0,0,0,0,0,0,0,0,504.096,-1021.76,-0.0078125,0.03125,581.888,0
     0,0,0,0,0,0,0,0,0,420.407,-983.381,-0.0078125,0.03125,581.906,0
     0,0,0,0,0,0,0,0,0,439.338,-1075.1,-0.0078125,0.03125,581.926,0
     0,0,0,0,0,0,0,0,0,385,-1062.3,-0.0078125,0.03125,581.947,0
     0,0,0,0,0,0,0,0,0,484.097,-1179.87,-0.0078125,0.03125,581.967,0
     0,0,0,0,0,0,0,0,0,464.878,-1011.33,-0.0078125,0.03125,581.986,0
     0,0,0,0,0,0,0,0,0,437.752,-1162.18,-0.0078125,0.03125,582.007,0
     0,0,0,0,0,0,0,0,0,472.222,-1112.41,-0.0078125,0.03125,582.028,0
     0,0,0,0,0,0,0,0,0,429.056,-979,-0.0078125,0.03125,582.047,0
     0,0,0,0,0,0,0,0,0,439.03,-1046.74,-0.0078125,0.03125,582.067,0
     0,0,0,0,0,0,0,0,0,432.816,-973.899,-0.0078125,0.03125,582.086,0
     0,0,0,0,0,0,0,0,0,433.276,-1184.34,-0.0078125,0.03125,582.107,0
     0,0,0,0,0,0,0,0,0,426.876,-1130.26,-0.0078125,0.03125,582.126,0
     0,0,0,0,0,0,0,0,0,454.731,-1049.59,-0.0078125,0.03125,582.146,0
     0,0,0,0,0,0,0,0,0,444.277,-1076.77,-0.0078125,0.03125,582.166,0
     0,0,0,0,0,0,0,0,0,374.455,-1149.69,-0.0078125,0.03125,582.186,0
     0,0,0,0,0,0,0,0,0,423.397,-1034.5,-0.0078125,0.03125,582.206,0
     0,0,0,0,0,0,0,0,0,379.773,-1000.9,-0.0078125,0.03125,582.227,0
     0,0,0,0,0,0,0,0,0,447.177,-1148.96,-0.0078125,0.03125,582.247,0
     0,0,0,0,0,0,0,0,0,354.862,-1129.24,-0.0078125,0.03125,582.27,0
     0,0,0,0,0,0,0,0,0,384.645,-1051.75,-0.0078125,0.03125,582.287,0
     0,0,0,0,0,0,0,0,0,430.459,-1053.57,-0.0078125,0.03125,582.306,0
     0,0,0,0,0,0,0,0,0,448.27,-1093.37,-0.0078125,0.03125,582.327,0
     0,0,0,0,0,0,0,0,0,368.568,-1181.61,-0.0078125,0.03125,582.347,0
     0,0,0,0,0,0,0,0,0,422.949,-1030.87,-0.0078125,0.03125,582.366,0
     0,0,0,0,0,0,0,0,0,392.218,-1077.12,-0.0078125,0.03125,582.386,0
     0,0,0,0,0,0,0,0,0,428.513,-1155.54,-0.0078125,0.03125,582.407,0
     0,0,0,0,0,0,0,0,0,388.599,-746.91,-0.0078125,0.03125,582.426,0
     0,0,0,0,0,0,0,0,0,334.986,-1084.83,-0.0078125,0.03125,582.447,0
     0,0,0,0,0,0,0,0,0,384.135,-1274.94,-0.0078125,0.03125,582.467,0
     0,0,0,0,0,0,0,0,0,397.346,-1155.6,-0.0078125,0.03125,582.487,0
     0,0,0,0,0,0,0,0,0,421.63,-1177.93,-0.0078125,0.03125,582.517,0
     0,0,0,0,0,0,0,0,0,392.997,-1193.89,-0.0078125,0.03125,582.526,0
     0,0,0,0,0,0,0,0,0,427.926,-1210.8,-0.0078125,0.03125,582.561,0
     0,0,0,0,0,0,0,0,0,388.531,-1224.66,-0.0078125,0.03125,582.566,0
     0,0,0,0,0,0,0,0,0,415.939,-1205.11,-0.0078125,0.03125,582.587,0
     0,0,0,0,0,0,0,0,0,400.657,-1170.34,-0.0078125,0.03125,582.606,0
     0,0,0,0,0,0,0,0,0,369.365,-863.558,-0.0078125,0.03125,582.627,0
     0,0,0,0,0,0,0,0,0,411.15,-1159.89,-0.0078125,0.03125,582.647,0
     0,0,0,0,0,0,0,0,0,437.522,-1018.74,-0.0078125,0.03125,582.666,0
     0,0,0,0,0,0,0,0,0,375.418,-1193.39,-0.0078125,0.03125,582.686,0
     0,0,0,0,0,0,0,0,0,356.271,-1091.52,-0.0078125,0.03125,582.707,0
     0,0,0,0,0,0,0,0,0,466.124,-987.996,-0.0078125,0.03125,582.726,0
     0,0,0,0,0,0,0,0,0,379.226,-1198.04,-0.0078125,0.03125,582.746,0
     0,0,0,0,0,0,0,0,0,399.297,-716.332,-0.0078125,0.03125,582.766,0
     0,0,0,0,0,0,0,0,0,373.692,-1312.94,-0.0078125,0.03125,582.786,0
     0,0,0,0,0,0,0,0,0,373.065,-1037.34,-0.0078125,0.03125,582.806,0
     0,0,0,0,0,0,0,0,0,397.939,-1138.04,-0.0078125,0.03125,582.827,0
     0,0,0,0,0,0,0,0,0,414.465,-1083.66,-0.0078125,0.03125,582.848,0
     0,0,0,0,0,0,0,0,0,427.954,-882.106,-0.0078125,0.03125,582.866,0
     0,0,0,0,0,0,0,0,0,415.041,-1278.77,-0.0078125,0.03125,582.886,0
     0,0,0,0,0,0,0,0,0,379.593,-1335.56,-0.0078125,0.03125,582.909,0
     0,0,0,0,0,0,0,0,0,386.205,-923.617,-0.0078125,0.03125,582.926,0
     0,0,0,0,0,0,0,0,0,397.362,-1129.75,-0.0078125,0.03125,582.946,0
     0,0,0,0,0,0,0,0,0,399.122,-1042.1,-0.0078125,0.03125,582.966,0
     0,0,0,0,0,0,0,0,0,473.945,-1125.11,-0.0078125,0.03125,582.987,0
     0,0,0,0,0,0,0,0,0,400.432,-999.051,-0.0078125,0.03125,583.006,0
     0,0,0,0,0,0,0,0,0,453.803,-1138.5,-0.0078125,0.03125,583.034,0
     0,0,0,0,0,0,0,0,0,392.565,-1206.2,-0.0078125,0.03125,583.047,0
     0,0,0,0,0,0,0,0,0,389.264,-1072.27,-0.0078125,0.03125,583.066,0
     0,0,0,0,0,0,0,0,0,391.313,-1110.12,-0.0078125,0.03125,583.086,0
     0,0,0,0,0,0,0,0,0,381.862,-1059.66,-0.0078125,0.03125,583.106,0
     0,0,0,0,0,0,0,0,0,370.989,-911.619,-0.0078125,0.03125,583.126,0
     0,0,0,0,0,0,0,0,0,465.593,-1181.89,-0.0078125,0.03125,583.147,0
     0,0,0,0,0,0,0,0,0,393.871,-1092.12,-0.0078125,0.03125,583.166,0
     0,0,0,0,0,0,0,0,0,375.418,-1193.39,-0.0078125,0.03125,583.186,0
     0,0,0,0,0,0,0,0,0,376.095,-942.418,-0.0078125,0.03125,583.206,0
     0,0,0,0,0,0,0,0,0,429.221,-1282.05,-0.0078125,0.03125,583.227,0
     0,0,0,0,0,0,0,0,0,425.903,-1222.72,-0.0078125,0.03125,583.247,0
     0,0,0,0,0,0,0,0,0,408.255,-1113.65,-0.0078125,0.03125,583.267,0
     0,0,0,0,0,0,0,0,0,428.669,-1064.17,-0.0078125,0.03125,583.287,0
     0,0,0,0,0,0,0,0,0,383.223,-1201.85,-0.0078125,0.03125,583.307,0
     0,0,0,0,0,0,0,0,0,368.63,-1162.79,-0.0078125,0.03125,583.326,0
     0,0,0,0,0,0,0,0,0,409.5,-1037.67,-0.0078125,0.03125,583.346,0
     0,0,0,0,0,0,0,0,0,420.884,-1185.4,-0.0078125,0.03125,583.366,0
     0,0,0,0,0,0,0,0,0,381.767,-808.636,-0.0078125,0.03125,583.386,0
     0,0,0,0,0,0,0,0,0,369.727,-990.933,-0.0078125,0.03125,583.407,0
     0,0,0,0,0,0,0,0,0,372.356,-1061.06,-0.0078125,0.03125,583.427,0
     0,0,0,0,0,0,0,0,0,334.93,-1038.69,-0.0078125,0.03125,583.447,0
     0,0,0,0,0,0,0,0,0,335.014,-1023.07,-0.0078125,0.03125,583.467,0
     0,0,0,0,0,0,0,0,0,318.102,-1020.46,-0.0078125,0.03125,583.486,0
     0,0,0,0,0,0,0,0,0,332.806,-1331.65,-0.0078125,0.03125,583.507,0
     0,0,0,0,0,0,0,0,0,316.701,-1208.46,-0.0078125,0.03125,583.527,0
     0,0,0,0,0,0,0,0,0,408.814,-1135.07,-0.0078125,0.03125,583.546,0
     0,0,0,0,0,0,0,0,0,374.904,-1196.32,-0.0078125,0.03125,583.566,0
     0,0,0,0,0,0,0,0,0,517.572,-1046.13,-0.0078125,0.03125,583.587,0
     0,0,0,0,0,0,0,0,0,414.628,-1051.64,-0.0078125,0.03125,583.607,0
     0,0,0,0,0,0,0,0,0,449.782,-1236.63,-0.0078125,0.03125,583.628,0
     0,0,0,0,0,0,0,0,0,489.261,-1164.14,-0.0078125,0.03125,583.646,0
     0,0,0,0,0,0,0,0,0,439.329,-1082.19,-0.0078125,0.03125,583.674,0
     0,0,0,0,0,0,0,0,0,489.524,-897.022,-0.0078125,0.03125,583.686,0
     0,0,0,0,0,0,0,0,0,488.436,-1221.3,-0.0078125,0.03125,583.708,0
     0,0,0,0,0,0,0,0,0,443.135,-1270.73,-0.0078125,0.03125,583.73,0
     0,0,0,0,0,0,0,0,0,453.576,-1146.46,-0.0078125,0.03125,583.746,0
     0,0,0,0,0,0,0,0,0,411.294,-931.663,-0.0078125,0.03125,583.767,0
     0,0,0,0,0,0,0,0,0,376.79,-1163.94,-0.0078125,0.03125,583.787,0
     0,0,0,0,0,0,0,0,0,383.09,-1157.61,-0.0078125,0.03125,583.814,0
     0,0,0,0,0,0,0,0,0,405.408,-1056.69,-0.0078125,0.03125,583.827,0
     0,0,0,0,0,0,0,0,0,415.524,-752.7,-0.0078125,0.03125,583.846,0
     0,0,0,0,0,0,0,0,0,360.172,-1284.27,-0.0078125,0.03125,583.872,0
     0,0,0,0,0,0,0,0,0,366.327,-1033.38,-0.0078125,0.03125,583.894,0
     0,0,0,0,0,0,0,0,0,439.976,-961.4,-0.0078125,0.03125,583.925,0
     0,0,0,0,0,0,0,0,0,431.388,-1152.6,-0.0078125,0.03125,583.928,0
     0,0,0,0,0,0,0,0,0,451.743,-1298.87,-0.0078125,0.03125,583.946,0
     0,0,0,0,0,0,0,0,0,503.271,-1242.54,-0.0078125,0.03125,583.967,0
     0,0,0,0,0,0,0,0,0,445.722,-1108.03,-0.0078125,0.03125,583.987,0
     0,0,0,0,0,0,0,0,0,528.891,-1203.15,-0.0078125,0.03125,584.006,0
     0,0,0,0,0,0,0,0,0,490.4,-1072.16,-0.0078125,0.03125,584.027,0
     0,0,0,0,0,0,0,0,0,467.355,-896.901,-0.0078125,0.03125,584.047,0
     0,0,0,0,0,0,0,0,0,423.63,-1164.01,-0.0078125,0.03125,584.066,0
     0,0,0,0,0,0,0,0,0,481.997,-1167.47,-0.0078125,0.03125,584.086,0
     0,0,0,0,0,0,0,0,0,565.227,-1125.3,-0.0078125,0.03125,584.106,0
     0,0,0,0,0,0,0,0,0,419.859,-1138.11,-0.0078125,0.03125,584.127,0
     0,0,0,0,0,0,0,0,0,535.074,-907.029,-0.0078125,0.03125,584.147,0
     0,0,0,0,0,0,0,0,0,475.76,-999.001,-0.0078125,0.03125,584.167,0
     0,0,0,0,0,0,0,0,0,453.135,-1089.86,-0.0078125,0.03125,584.186,0
     0,0,0,0,0,0,0,0,0,464.911,-873.82,-0.0078125,0.03125,584.207,0
     0,0,0,0,0,0,0,0,0,440.966,-1001.9,-0.0078125,0.03125,584.226,0
     0,0,0,0,0,0,0,0,0,376.485,-1047.94,-0.0078125,0.03125,584.246,0
     0,0,0,0,0,0,0,0,0,382.995,-1001.5,-0.0078125,0.03125,584.266,0
     0,0,0,0,0,0,0,0,0,395.444,-1036.65,-0.0078125,0.03125,584.286,0
     0,0,0,0,0,0,0,0,0,398.319,-1164.21,-0.0078125,0.03125,584.306,0
     0,0,0,0,0,0,0,0,0,388.131,-1074.52,-0.0078125,0.03125,584.326,0
     0,0,0,0,0,0,0,0,0,411.015,-1105.58,-0.0078125,0.03125,584.348,0
     0,0,0,0,0,0,0,0,0,365.724,-1181.47,-0.0078125,0.03125,584.366,0
     0,0,0,0,0,0,0,0,0,405.285,-994.876,-0.0078125,0.03125,584.386,0
     0,0,0,0,0,0,0,0,0,415.153,-1165.09,-0.0078125,0.03125,584.407,0
     0,0,0,0,0,0,0,0,0,438.635,-1116.13,-0.0078125,0.03125,584.427,0
     0,0,0,0,0,0,0,0,0,413.146,-1086.19,-0.0078125,0.03125,584.448,0
     0,0,0,0,0,0,0,0,0,390.961,-1001,-0.0078125,0.03125,584.467,0
     0,0,0,0,0,0,0,0,0,365.337,-1259.6,-0.0078125,0.03125,584.487,0
     0,0,0,0,0,0,0,0,0,481.626,-1066.95,-0.0078125,0.03125,584.506,0
     0,0,0,0,0,0,0,0,0,421.585,-833.16,-0.0078125,0.03125,584.527,0
     0,0,0,0,0,0,0,0,0,458.852,-1046.79,-0.0078125,0.03125,584.547,0
     0,0,0,0,0,0,0,0,0,404.482,-1104.18,-0.0078125,0.03125,584.567,0
     0,0,0,0,0,0,0,0,0,480.48,-1096.25,-0.0078125,0.03125,584.587,0
     0,0,0,0,0,0,0,0,0,386.481,-864.566,-0.0078125,0.03125,584.607,0
     0,0,0,0,0,0,0,0,0,477.088,-552.517,-0.0078125,0.03125,584.626,0
     0,0,0,0,0,0,0,0,0,487.199,-357.935,-0.0078125,0.03125,584.649,0
     0,0,0,0,0,0,0,0,0,487.9,-278.071,-0.0078125,0.03125,584.67,0
     0,0,0,0,0,0,0,0,0,489.165,-339.76,-0.0078125,0.03125,584.686,0
     0,0,0,0,0,0,0,0,0,507.138,-355.151,-0.0078125,0.03125,584.707,0
     0,0,0,0,0,0,0,0,0,443.056,-428.89,-0.0078125,0.03125,584.727,0
     0,0,0,0,0,0,0,0,0,416.069,-337.998,-0.0078125,0.03125,584.747,0
     0,0,0,0,0,0,0,0,0,346.717,-307.338,-0.0078125,0.03125,584.767,0
     0,0,0,0,0,0,0,0,0,341.303,-261.448,-0.0078125,0.03125,584.786,0
     0,0,0,0,0,0,0,0,0,333.751,-264.669,-0.0078125,0.03125,584.806,0
     0,0,0,0,0,0,0,0,0,296.244,-287.67,-0.0078125,0.03125,584.827,0
     0,0,0,0,0,0,0,0,0,266.127,-242.636,-0.0078125,0.03125,584.846,0
     0,0,0,0,0,0,0,0,0,240.549,-216.09,-0.0078125,0.03125,584.866,0
     0,0,0,0,0,0,0,0,0,204.069,-212.963,-0.0078125,0.03125,584.886,0
     0,0,0,0,0,0,0,0,0,190.328,-188.191,-0.0078125,0.03125,584.906,0
     0,0,0,0,0,0,0,0,0,188.2,-169.425,-0.0078125,0.03125,584.927,0
     0,0,0,0,0,0,0,0,0,164.439,-154.257,-0.0078125,0.03125,584.947,0
     0,0,0,0,0,0,0,0,0,142.564,-153.592,-0.0078125,0.03125,584.966,0
     0,0,0,0,0,0,0,0,0,133.781,-136.257,-0.0078125,0.03125,584.987,0
     0,0,0,0,0,0,0,0,0,102.098,-116.228,-0.0078125,0.03125,585.007,0
     0,0,0,0,0,0,0,0,0,87.6597,-110.334,-0.0078125,0.03125,585.026,0
     0,0,0,0,0,0,0,0,0,66.2127,-98.0825,-0.0078125,0.03125,585.046,0
     0,0,0,0,0,0,0,0,0,77.212,-90.756,-0.0078125,0.03125,585.066,0
     0,0,0,0,0,0,0,0,0,54.5549,-72.5811,-0.0078125,0.03125,585.086,0
     0,0,0,0,0,0,0,0,0,64.6546,-58.5288,-0.0078125,0.03125,585.106,0
     0,0,0,0,0,0,0,0,0,58.9656,-46.4373,-0.0078125,0.03125,585.126,0
     0,0,0,0,0,0,0,0,0,53.2508,-41.2765,-0.0078125,0.03125,585.147,0
     0,0,0,0,0,0,0,0,0,40.9639,-32.0016,-0.0078125,0.03125,585.166,0
     0,0,0,0,0,0,0,0,0,30.7102,-28.2519,-0.0078125,0.03125,585.187,0
     0,0,0,0,0,0,0,0,0,30.7102,-27.144,-0.0078125,0.03125,585.207,0
     0,0,0,0,0,0,0,0,0,30.7102,-23.1474,-0.0078125,0.03125,585.226,0
     0,0,0,0,0,0,0,0,0,30.7102,-17.4132,-0.0078125,0.03125,585.246,0
     0,0,0,0,0,0,0,0,0,30.7102,-17.4132,-0.0078125,0.03125,585.266,0
     0,0,0,0,0,0,0,0,0,30.7102,-17.4132,-0.0078125,0.03125,585.286,0
     0,0,0,0,0,0,0,0,0,30.7102,-17.4132,-0.0078125,0.03125,585.306,0
     0,0,0,0,0,0,0,0,0,30.7102,-17.4132,-0.0078125,0.03125,585.326,0
     0,0,0,0,0,0,0,0,0,30.7102,-6.39015,-0.0078125,0.03125,585.347,0
     0,0,0,0,0,0,0,0,0,30.7102,-6.39015,-0.0078125,0.03125,585.366,0
     0,0,0,0,0,0,0,0,0,30.7102,-6.39015,-0.0078125,0.03125,585.387,0
     0,0,0,0,0,0,0,0,0,30.7102,-6.39015,-0.0078125,0.03125,585.407,0
     0,0,0,0,0,0,0,0,0,30.7102,-6.39015,-0.0078125,0.03125,585.427,0
     0,0,0,0,0,0,0,0,0,30.7102,-6.39015,-0.0078125,0.03125,585.447,0
     0,0,0,0,0,0,0,0,0,30.7102,-6.39015,-0.0078125,0.03125,585.467,0
     0,0,0,0,0,0,0,0,0,30.7102,-6.39015,-0.0078125,0.03125,585.486,0
     0,0,0,0,0,0,0,0,0,30.7102,-6.39015,-0.0078125,0.03125,585.506,0
     0,0,0,0,0,0,0,0,0,30.7102,-6.39015,-0.0078125,0.03125,585.526,0
     0,0,0,0,0,0,0,0,0,30.7102,-6.39015,-0.0078125,0.03125,585.546,0
     0,0,0,0,0,0,0,0,0,30.7102,-6.39015,-0.0078125,0.03125,585.566,0
     0,0,0,0,0,0,0,0,0,30.7102,-6.39015,-0.0078125,0.03125,585.586,0
     0,0,0,0,0,0,0,0,0,0,-6.39015,-0.0078125,0.03125,585.607,0
     0,0,0,0,0,0,0,0,0,0,-6.39015,-0.0078125,0.03125,585.627,0
     0,0,0,0,0,0,0,0,0,0,-6.39015,-0.0078125,0.03125,585.646,0
     0,0,0,0,0,0,0,0,0,0,-6.39015,-0.0078125,0.03125,585.666,0
     0,0,0,0,0,0,0,0,0,0,-6.39015,-0.0078125,0.03125,585.686,0
     0,0,0,0,0,0,0,0,0,0,-6.39015,-0.0078125,0.03125,585.707,0
     0,0,0,0,0,0,0,0,0,0,-6.39015,-0.0078125,0.03125,585.727,0
     0,0,0,0,0,0,0,0,0,0,-6.39015,-0.0078125,0.03125,585.747,0
     0,0,0,0,0,0,0,0,0,0,0,-0.0078125,0.03125,585.766,0
     0,0,0,0,0,0,0,0,0,0,0,-0.0078125,0.03125,585.786,0
     0,0,0,0,0,0,0,0,0,0,0,-0.0078125,0.03125,585.806,0
     0,0,0,0,0,0,0,0,0,0,0,-0.0078125,0.03125,585.827,0
     0,0,0,0,0,0,0,0,0,0,0,-0.0078125,0.03125,585.855,0
     0,0,0,0,0,0,0,0,0,0,0,-0.0078125,0.03125,585.867,0
     0,0,0,0,0,0,0,0,0,0,0,-0.0078125,0.03125,585.887,0
     0,0,0,0,0,0,0,0,0,0,0,-0.0078125,0.03125,585.906,0
     0,0,0,0,0,0,0,0,0,0,0,-0.0078125,0.03125,585.927,0
     0,0,0,0,0,0,0,0,0,0,0,-0.0078125,0.03125,585.947,0
     0,0,0,0,0,0,0,0,0,0,0,-0.0078125,0.03125,585.966,0
     0,0,0,0,0,0,0,0,0,0,0,-0.0078125,0.03125,585.987,0
     0,0,0,0,0,0,0,0,0,0,0,-0.0078125,0.03125,586.007,0
     0,0,0,0,0,0,0,0,0,0,0,-0.0078125,0.03125,586.028,0
     0,0,0,0,0,0,0,0,0,0,0,-0.0078125,0.03125,586.047,0
     0,0,0,0,0,0,0,0,0,0,0,-0.0078125,0.03125,586.066,0
     0,0,0,0,0,0,0,0,0,0,0,-0.0078125,0.03125,586.087,0
     0,0,0,0,0,0,0,0,0,0,0,-0.0078125,0.03125,586.106,0
     0,0,0,0,0,0,0,0,0,0,0,-0.0078125,0.03125,586.126,0
     0,0,0,0,0,0,0,0,0,0,0,-0.0078125,0.03125,586.147,0
     0,0,0,0,0,0,0,0,0,0,0,-0.0078125,0.03125,586.18,0
     0,0,0,0,0,0,0,0,0,0,0,-0.0078125,0.03125,586.205,0
     0,0,0,0,0,0,0,0,0,0,0,-0.0078125,0.03125,586.209,0
     0,0,0,0,0,0,0,0,0,0,0,-0.0078125,0.03125,586.226,0
     0,0,0,0,0,0,0,0,0,0,0,-0.0078125,0.03125,586.246,0
     0,0,0,0,0,0,0,0,0,0,0,-0.0078125,0.03125,586.267,0
     0,0,0,0,0,0,0,0,0,0,0,-0.0078125,0.03125,586.292,0
     0,0,0,0,0,0,0,0,0,0,0,-0.0078125,0.03125,586.306,0
     0,0,0,0,0,0,0,0,0,0,0,-0.0078125,0.03125,586.327,0
     0,0,0,0,0,0,0,0,0,0,0,-0.0078125,0.03125,586.346,0
     0,0,0,0,0,0,0,0,0,0,0,-0.0078125,0.03125,586.367,0
     0,0,0,0,0,0,0,0,0,0,0,-0.0078125,0.03125,586.386,0
     0,0,0,0,0,0,0,0,0,0,0,-0.0078125,0.03125,586.406,0
     0,0,0,0,0,0,0,0,0,0,0,-0.0078125,0.03125,586.426,0
     0,0,0,0,0,0,0,0,0,0,0,-0.0078125,0.03125,586.446,0
     0,0,0,0,0,0,0,0,0,0,0,-0.0078125,0.03125,586.466,0
     0,0,0,0,0,0,0,0,0,0,0,-0.0078125,0.03125,586.486,0
     0,0,0,0,0,0,0,0,0,0,0,-0.0078125,0.03125,586.507,0
     0,0,0,0,0,0,0,0,0,0,0,-0.0078125,0.03125,586.527,0
     0,0,0,0,0,0,0,0,0,0,0,-0.0078125,0.03125,586.547,0
     0,0,0,0,0,0,0,0,0,0,0,-0.0078125,0.03125,586.572,0
     0,0,0,0,0,0,0,0,0,0,0,-0.0078125,0.03125,586.586,0
     0,0,0,0,0,0,0,0,0,0,0,-0.0078125,0.03125,586.606,0
     0,0,0,0,0,0,0,0,0,0,0,-0.0078125,0.03125,586.626,0
     0,0,0,0,0,0,0,0,0,0,0,-0.0078125,0.03125,586.646,0
     0,0,0,0,0,0,0,0,0,0,0,-0.0078125,0.03125,586.666,0
     0,0,0,0,0,0,0,0,0,0,0,-0.0078125,0.03125,586.686,0
     0,0,0,0,0,0,0,0,0,0,0,-0.0078125,0.03125,586.706,0
     0,0,0,0,0,0,0,0,0,0,0,-0.0078125,0.03125,586.729,0
     0,0,0,0,0,0,0,0,0,0,0,-0.0078125,0.03125,586.76,0
     0,0,0,0,0,0,0,0,0,0,0,-0.0078125,0.03125,586.768,0
     0,0,0,0,0,0,0,0,0,0,0,-0.0078125,0.03125,586.786,0
     0,0,0,0,0,0,0,0,0,0,0,-0.0078125,0.03125,586.806,0
     0,0,0,0,0,0,0,0,0,0,0,-0.0078125,0.03125,586.826,0
     0,0,0,0,0,0,0,0,0,0,0,-0.0078125,0.03125,586.846,0
     0,0,0,0,0,0,0,0,0,0,0,-0.0078125,0.03125,586.867,0
     0,0,0,0,0,0,0,0,0,0,0,-0.0078125,0.03125,586.887,0
     0,0,0,0,0,0,0,0,0,0,0,-0.0078125,0.03125,586.906,0
     0,0,0,0,0,0,0,0,0,0,0,-0.0078125,0.03125,586.926,0
     0,0,0,0,0,0,0,0,0,0,0,-0.0078125,0.03125,586.946,0
     0,0,0,0,0,0,0,0,0,0,0,-0.0078125,0.03125,586.966,0
     0,0,0,0,0,0,0,0,0,0,0,-0.0078125,0.03125,586.986,0
     0,0,0,0,0,0,0,0,0,0,0,-0.0078125,0.03125,587.007,0
     0,0,0,0,0,0,0,0,0,0,0,-0.0078125,0.03125,587.027,0
     0,0,0,0,0,0,0,0,0,0,0,-0.0078125,0.03125,587.047,0
     0,0,0,0,0,0,0,0,0,0,0,-0.0078125,0.03125,587.067,0
     0,0,0,0,0,0,0,0,0,0,0,-0.0078125,0.03125,587.086,0
     0,0,0,0,0,0,0,0,0,0,0,-0.0078125,0.03125,587.116,0
     0,0,0,0,0,0,0,0,0,0,0,-0.0078125,0.03125,587.14,0
