accel_x,accel_y,accel_z,gyro_x,gyro_y,gyro_z,x,y,z,left_encoder_rate,right_encoder_rate,left_input,right_input,fpga time,navx time
-0.00335693,0.0223389,0.956116,0.15213,0.30426,0.30426,9.50645,1.23839,0,0,0,-0.015625,-0.023622,839.452,959412
-0.00335693,0.0223389,0.956116,0.15213,0.30426,0.30426,9.50645,1.23839,0,0,0,-0.015625,-0.023622,839.469,959412
0.00256348,0.0198975,0.948364,0.15213,0.30426,-0.15213,9.50645,1.23839,0,0,0,-0.015625,-0.023622,839.489,959442
-0.0022583,0.0223999,0.954407,0.15213,0.15213,0.15213,9.50645,1.23839,0,0,0,-0.015625,-0.023622,839.509,959457
-0.00262451,0.0205688,0.953857,0.15213,0.15213,0.15213,9.50645,1.23839,0,0,0,-0.015625,-0.023622,839.529,959487
-0.00360107,0.0222778,0.949646,0.15213,0.15213,-0.15213,9.50645,1.23839,0,0,0,-0.015625,-0.023622,839.549,959502
-0.00231934,0.0231323,0.950012,0.15213,0.15213,0.15213,9.50645,1.23839,0,0,0,-0.015625,-0.023622,839.569,959517
-6.10352e-05,0.020874,0.955811,-0.15213,0.30426,-0,9.50645,1.23839,0,0,0,-0.015625,-0.023622,839.589,959547
-0.000732422,0.0201416,0.946899,0.30426,0.15213,0.15213,9.50645,1.23839,0,0,0,-0.015625,-0.023622,839.609,959562
-0.00195312,0.0187378,0.95697,0.30426,0.30426,-0.15213,9.50645,1.23839,0,0,0,-0.015625,-0.023622,839.629,959577
-0.00280762,0.0235596,0.951538,0.15213,0.45639,0.30426,9.50645,1.23839,0,0,0,-0.015625,-0.023622,839.649,959607
0.00012207,0.0189209,0.951843,0.15213,0.15213,-0,9.50645,1.23839,0,0,0,-0.015625,-0.023622,839.67,959622
-0.00445557,0.020874,0.94696,-0.15213,0.15213,-0,9.50645,1.23839,0,0,0,-0.015625,-0.023622,839.689,959637
-0.00244141,0.0227051,0.946899,0.30426,0.608521,0.30426,9.50645,1.23839,0,0,0,-0.015625,-0.023622,839.71,959667
-0.00146484,0.0187378,0.956055,0.15213,0.15213,-0,9.50645,1.23839,0,0,0,-0.015625,-0.023622,839.729,959682
-0.00213623,0.0195312,0.951294,0.15213,0.15213,-0,9.50645,1.23839,0,0,0,-0.015625,-0.023622,839.749,959697
-0.000427246,0.020813,0.945801,-0.30426,0.15213,-0,9.50645,1.23839,0,0,0,-0.015625,-0.023622,839.769,959727
-0.00134277,0.0218506,0.954956,0.15213,0.45639,0.30426,9.50645,1.23839,0,0,0,-0.015625,-0.023622,839.789,959742
-0.0020752,0.0220947,0.95343,0.15213,0.15213,-0,9.50645,1.23839,0,0,0,-0.015625,-0.023622,839.809,959757
-0.000183105,0.0228882,0.954041,0.15213,0.30426,0.15213,9.50645,1.23839,0,0,0,-0.015625,-0.023622,839.83,959787
-0.00164795,0.0217896,0.953735,-0,-0,0.15213,9.50645,1.23839,0,0,0,-0.015625,-0.023622,839.85,959802
-0.00140381,0.0209961,0.953735,-0.30426,-0,0.15213,9.50645,1.23839,0,0,0,-0.015625,-0.023622,839.869,959817
-0.00286865,0.0192871,0.950745,-0.15213,-0,0.15213,9.50645,1.23839,0,0,0,-0.015625,-0.023622,839.889,959847
-0.00109863,0.0222168,0.948242,0.15213,0.15213,-0.15213,9.50645,1.23839,0,0,0,-0.015625,-0.023622,839.909,959862
-0.000976562,0.0224609,0.950195,-0,0.30426,0.30426,9.50645,1.23839,0,0,0,-0.015625,-0.023622,839.929,959877
-0.00115967,0.0229492,0.949768,0.15213,0.30426,0.45639,9.50645,1.23839,0,0,0,-0.015625,-0.023622,839.95,959907
-0.0010376,0.019043,0.949158,-0,-0.15213,0.15213,9.50645,1.23839,0,0,0,-0.015625,-0.023622,839.969,959922
0.00213623,0.0220947,0.953979,-0,0.15213,0.45639,9.50645,1.23839,0,0,0,-0.015625,-0.023622,839.989,959937
-0.00201416,0.0184326,0.949951,0.15213,0.15213,0.15213,9.50645,1.23839,0,0,0,-0.015625,-0.023622,840.009,959967
0.00280762,0.0220337,0.94519,0.15213,0.30426,-0,9.50645,1.23839,0,0,0,-0.015625,-0.023622,840.029,959982
-0.000427246,0.0223389,0.956116,-0.15213,-0,0.15213,9.50645,1.23839,0,0,0,-0.015625,-0.023622,840.049,959997
-0.0022583,0.0197144,0.952148,-0,0.30426,0.15213,9.50645,1.23839,0,0,0,-0.015625,-0.023622,840.069,960027
-0.00115967,0.0200195,0.961426,-0.15213,0.15213,-0,9.50645,1.23839,0,0,0,-0.015625,-0.023622,840.09,960042
-0.003479,0.0211182,0.949402,-0,-0.15213,-0,9.50645,1.23839,0,0,0,-0.015625,-0.023622,840.108,960057
-0.000488281,0.0228882,0.948059,-0.15213,-0.15213,0.15213,9.50645,1.23839,0,0,0,-0.015625,-0.023622,840.129,960087
-0.00292969,0.0219116,0.945557,-0,-0,0.30426,9.50645,1.23839,0,0,0,-0.015625,-0.023622,840.149,960102
-0.000793457,0.0224609,0.954407,0.15213,0.15213,-0,9.50645,1.23839,0,0,0,-0.015625,-0.023622,840.169,960117
     0,0.0255737,0.956543,-0,-0,0.15213,9.50645,1.23839,0,0,0,-0.015625,-0.023622,840.189,960147
0.000183105,0.0214233,0.94751,0.15213,0.30426,-0,9.50645,1.23839,0,0,0,-0.015625,-0.023622,840.209,960162
-0.00280762,0.0228271,0.951904,-0,-0,0.45639,9.50645,1.23839,0,0,0,-0.015625,-0.023622,840.229,960177
0.00128174,0.0202637,0.952637,0.15213,0.15213,-0.15213,9.50645,1.23839,0,0,0,-0.015625,-0.023622,840.249,960207
0.000244141,0.0223389,0.947693,0.15213,0.45639,-0.15213,9.50645,1.23839,0,0,0,-0.015625,-0.023622,840.27,960221
-0.00274658,0.0205688,0.956421,-0.30426,-0,0.15213,9.50645,1.23839,0,0,0,-0.015625,-0.023622,840.289,960236
-0.00164795,0.0205688,0.949829,-0.15213,-0,0.15213,9.50645,1.23839,0,0,0,-0.015625,-0.023622,840.309,960267
-0.000976562,0.0227661,0.950684,-0,0.15213,0.15213,9.50645,1.23839,0,0,0,-0.015625,-0.023622,840.329,960281
-0.0022583,0.0198975,0.952393,0.15213,0.30426,0.15213,9.50645,1.23839,0,0,0,-0.015625,-0.023622,840.349,960296
-0.00213623,0.0236816,0.959839,0.15213,0.15213,0.15213,9.50645,1.23839,0,0,0,-0.015625,-0.023622,840.37,960327
-0.00305176,0.0217285,0.947998,0.15213,0.30426,0.15213,9.50645,1.23839,0,0,0,-0.015625,-0.023622,840.389,960341
-0.00152588,0.0189209,0.952637,0.15213,0.30426,0.15213,9.50645,1.23839,0,0,0,-0.015625,-0.023622,840.409,960356
0.00183105,0.0196533,0.95874,0.15213,0.15213,-0,9.50645,1.23839,0,0,0,-0.015625,-0.023622,840.429,960387
-0.000366211,0.0236816,0.949219,0.15213,0.608521,0.30426,9.50645,1.23839,0,0,0,-0.015625,-0.023622,840.449,960401
0.00140381,0.0232544,0.953064,-0.15213,-0,0.15213,9.50645,1.23839,0,0,0,-0.015625,-0.023622,840.469,960416
0.003479,0.0209961,0.952209,-0.15213,-0,-0,9.50645,1.23839,0,0,0,-0.015625,-0.023622,840.489,960447
-0.000244141,0.0219116,0.946899,-0.30426,-0,-0,9.50645,1.23839,0,0,0,-0.015625,-0.023622,840.509,960461
-0.00366211,0.0197754,0.950867,-0.15213,0.15213,0.15213,9.50645,1.23839,0,0,0,-0.015625,-0.023622,840.534,960491
-0.00274658,0.0198364,0.951538,-0.30426,-0,0.15213,9.50645,1.23839,0,0,0,-0.015625,-0.023622,840.549,960507
-0.000427246,0.0223389,0.954163,0.15213,0.30426,0.45639,9.50645,1.23839,0,0,0,-0.015625,-0.023622,840.569,960521
0.000671387,0.0209961,0.947693,0.15213,0.15213,0.15213,9.50645,1.23839,0,0,0,-0.015625,-0.023622,840.59,960536
0.000671387,0.0197144,0.954712,0.15213,0.30426,-0,9.50645,1.23839,0,0,0,-0.015625,-0.023622,840.609,960567
0.00140381,0.019104,0.949951,0.30426,0.30426,-0.15213,9.50645,1.23839,0,0,0,-0.015625,-0.023622,840.629,960581
-0.000366211,0.0222778,0.948547,-0.15213,0.30426,-0,9.50645,1.23839,0,0,0,-0.015625,-0.023622,840.649,960596
0.000366211,0.0236816,0.960022,-0.15213,0.45639,-0.15213,9.50645,1.23839,0,0,0,-0.015625,-0.023622,840.67,960627
0.000488281,0.0200806,0.947144,0.15213,0.45639,-0,9.50645,1.23839,0,0,0,-0.015625,-0.023622,840.689,960641
-0.000610352,0.020813,0.956238,0.15213,0.15213,0.15213,9.50645,1.23839,0,0,0,-0.015625,-0.023622,840.709,960656
0.00115967,0.0203247,0.954163,0.15213,0.45639,0.15213,9.50645,1.23839,0,0,0,-0.015625,-0.023622,840.729,960687
-0.000488281,0.0229492,0.954224,0.15213,0.15213,-0,9.50645,1.23839,0,0,0,-0.015625,-0.023622,840.749,960701
-0.000305176,0.0227051,0.953735,0.15213,0.15213,-0,9.50645,1.23839,0,0,0,-0.015625,-0.023622,840.769,960716
0.00152588,0.0187378,0.952576,0.15213,0.30426,0.30426,9.50645,1.23839,0,0,0,-0.015625,-0.023622,840.789,960747
0.000488281,0.0222168,0.950073,-0.15213,-0,-0,9.50645,1.23839,0,0,0,-0.015625,-0.023622,840.809,960761
-0.00177002,0.0221558,0.952087,0.15213,0.15213,-0,9.50645,1.23839,0,0,0,-0.015625,-0.023622,840.829,960776
0.000732422,0.024231,0.951904,0.15213,0.45639,-0,9.50645,1.23839,0,0,0,-0.015625,0.0703125,840.849,960807
-0.000305176,0.0186157,0.955383,-0.15213,-0.15213,0.15213,9.50645,1.23839,0,0,0,-0.015625,0.234375,840.869,960821
-0.00292969,0.0239258,0.948364,-0,-0,-0,9.50645,1.23839,0,0,0,-0.015625,0.390625,840.889,960836
0.0709229,-0.055481,0.930664,0.15213,0.608521,0.30426,9.50652,1.23836,0,0,-136.24,-0.015625,0.609375,840.909,960866
0.0437012,-0.359497,0.963501,3.49899,3.49899,-8.36716,9.50681,1.23813,0,27.1726,-165.138,0.0551181,0.742188,840.93,960881
0.0932617,-0.284851,0.944641,-2.43408,-0.608521,-17.1907,9.50742,1.23753,0,31.3783,-265.594,0.0787402,0.789062,840.949,960896
0.192688,-0.185669,0.789429,4.86816,3.80325,-29.0569,9.50952,1.23595,0,28.9086,-431.63,0.0866142,0.8125,840.969,960926
0.296875,-0.191101,1.3548,-2.43408,0.15213,-39.4017,9.51114,1.23506,0,27.4846,-495.651,0.0866142,0.84375,840.989,960941
0.14093,-0.122864,1.0199,-6.69373,-4.41177,-55.0711,9.5154,1.23323,0,28.2643,-690.25,0.0866142,0.867188,841.02,960971
0.294678,-0.296387,1.0354,-3.80325,7.75864,-64.351,9.51805,1.23219,0,29.0592,-695.725,0.0866142,0.929688,841.028,960986
0.290466,-0.118896,1.10986,4.86816,1.06491,-72.2618,9.52116,1.23112,0,25.0383,-636.355,0.0866142,0.984375,841.05,961001
0.263672,-0.20166,0.693726,-0.760651,0.760651,-83.2152,9.52469,1.23007,0,25.9878,-791.108,0.0866142,1,841.069,961016
0.348633,-0.243835,0.744507,3.19473,3.49899,-101.775,9.53311,1.22812,0,39.4561,-800.833,0.0944882,1,841.089,961046
0.264832,-0.201538,0.983643,-0.15213,0.912781,-110.903,9.53806,1.22714,0,40.0721,-806.777,0.102362,1,841.109,961061
0.262756,-0.211365,1.06732,0.760651,-3.34686,-121.704,9.54341,1.22615,0,32.2069,-838.891,0.125984,1,841.129,961076
0.210876,-0.0786743,1.0614,-8.67142,1.06491,-138.134,9.55533,1.22408,0,39.6074,-756.63,0.15748,1,841.152,961106
0.246094,-0.0275879,0.705811,0.760651,5.32455,-149.696,9.56842,1.22229,0,25.9918,-994.283,0.212598,1,841.178,961136
0.246094,-0.0275879,0.705811,0.760651,5.32455,-149.696,9.56842,1.22229,0,25.9918,-945.895,0.275591,1,841.189,961136
0.127502,-0.0275269,0.974121,6.23734,-1.97769,-162.019,9.5824,1.22099,0,25.9918,-934.012,0.330709,1,841.209,961166
0.268982,-0.0685425,0.939697,3.34686,0.45639,-165.822,9.58965,1.2205,0,25.9918,-939.761,0.433071,1,841.229,961181
0.24646,0.0817871,0.886841,1.97769,0.30426,-171.603,9.59706,1.22025,0,-5.6226,-951.203,0.503937,1,841.249,961196
0.294983,-0.00372314,0.962646,0.45639,4.25964,-181.948,9.61255,1.22054,0,-98.2811,-925.84,0.629921,1,841.27,961226
0.113159,0.144409,0.766785,5.47668,-0,-183.925,9.62048,1.22104,0,-163.775,-961.723,0.669291,1,841.289,961241
0.108032,0.0466919,1.0448,-11.714,-2.73834,-185.294,9.62834,1.22173,0,-256.558,-860.4,0.700787,1,841.309,961256
0.076416,0.09198,0.506165,5.93307,3.80325,-186.512,9.64383,1.22371,0,-321.414,-1073.13,0.708661,1,841.329,961286
0.10199,0.1922,1.2168,-2.89047,3.49899,-190.619,9.65138,1.22501,0,-407.49,-844.559,0.708661,1,841.35,961301
0.133179,0.178711,1.36694,10.3448,-8.36716,-189.706,9.65874,1.22652,0,-422.86,-945.85,0.708661,1,841.369,961316
0.247864,0.177307,0.679626,-8.82355,-6.38947,-195.335,9.67299,1.23044,0,-442.048,-930.925,0.708661,1,841.389,961346
0.165833,0.0449219,1.02319,0.30426,-3.34686,-199.595,9.68004,1.23283,0,-450.593,-914.119,0.708661,1,841.409,961361
0.192871,0.125366,0.946411,11.4098,8.21503,-205.224,9.68704,1.23546,0,-401.582,-1011.43,0.708661,1,841.429,961376
0.00958252,0.110901,0.590332,1.97769,8.82355,-215.416,9.7009,1.24162,0,-538.271,-1069.58,0.708661,1,841.45,961406
0.0986328,0.154785,1.57263,-0.45639,-11.714,-215.721,9.70758,1.24492,0,-515.756,-950.39,0.708661,1,841.469,961421
0.0762939,0.102844,0.0733643,19.929,21.4503,-218.155,9.71411,1.24834,0,-526.995,-886.525,0.708661,1,841.489,961436
0.158386,0.119507,0.951965,12.1704,-1.5213,-222.871,9.72639,1.2558,0,-563.126,-964.553,0.708661,1,841.509,961466
0.11377,0.182434,0.758179,1.06491,-2.89047,-224.088,9.73222,1.25983,0,-584.129,-1015.9,0.708661,1,841.529,961481
0.207336,0.0855713,0.803711,1.82556,3.19473,-225.457,9.73793,1.26407,0,-520.711,-1114.39,0.708661,1,841.549,961496
0.133606,0.13092,0.964111,2.43408,-0.760651,-230.629,9.74902,1.27325,0,-558.94,-1147.58,0.629921,1,841.575,961526
-0.0906982,0.199158,0.899902,2.12982,9.27994,-231.086,9.75426,1.27797,0,-576.319,-1091.05,0.622047,1,841.589,961541
-0.0132446,0.193359,1.13007,-0.30426,9.27994,-235.193,9.76852,1.29259,0,-501.002,-1265.5,0.598425,1,841.628,961586
-0.0132446,0.193359,1.13007,-0.30426,9.27994,-235.193,9.76852,1.29259,0,-467.596,-1098.84,0.598425,1,841.63,961586
0.247375,0.133301,1.02667,7.30225,-17.0386,-235.345,9.7728,1.29765,0,-479.513,-1027.96,0.598425,1,841.653,961601
0.168701,0.127075,0.179199,5.62881,22.5153,-236.714,9.77692,1.30298,0,-395.241,-797.957,0.598425,1,841.67,961616
0.415222,0.0887451,0.41449,17.6471,6.38947,-238.388,9.78456,1.31442,0,-432.825,-1079.97,0.598425,1,841.689,961646
-0.249756,0.346741,1.44019,-8.97568,-15.213,-240.974,9.78798,1.32039,0,-452.151,-1119.26,0.598425,1,841.709,961661
0.417725,0.100342,0.659241,15.213,14.3002,-239.757,9.79105,1.3264,0,-394.649,-1207.29,0.598425,1,841.729,961676
0.176208,0.124939,1.30438,5.93307,6.5416,-237.323,9.79636,1.33905,0,-432.18,-1056.58,0.598425,1,841.749,961706
0.114685,0.214172,0.889404,5.62881,-1.36917,-237.932,9.79858,1.3455,0,-330.83,-915.416,0.590551,1,841.769,961721
-0.0020752,0.253723,1.04474,4.25964,-0.30426,-237.171,9.80046,1.35196,0,-384.084,-926.055,0.582677,1,841.789,961736
0.26825,0.238098,0.714355,-0.760651,18.4077,-237.323,9.80298,1.3649,0,-373.664,-1005.78,0.527559,1,841.809,961766
0.0255737,0.191956,1.32056,1.82556,-0.15213,-239.301,9.80371,1.37154,0,-347.192,-1017.97,0.448819,1,841.829,961781
0.300415,0.0995483,0.928894,6.99799,3.95538,-241.887,9.8042,1.37823,0,-285.649,-1107.05,0.314961,1,841.849,961796
0.174377,0.189514,1.12323,-3.34686,-5.17242,-247.059,9.80429,1.39236,0,-199.302,-1027.96,0.220472,1,841.869,961826
0.209717,0.288391,1.10504,-0.15213,-7.45438,-247.211,9.80379,1.39958,0,-102.949,-1192.82,0.141732,1,841.889,961841
0.232239,0.18335,0.749146,-0.608521,6.38947,-246.451,9.8029,1.40694,0,-70.5069,-1222.05,0.11811,1,841.911,961856
0.212341,0.0705566,0.804382,4.86816,15.6694,-239.909,9.80037,1.42184,0,14.6341,-814.465,0.110236,1,841.929,961886
0.186401,0.140076,1.27728,-9.43207,-9.27994,-236.106,9.79878,1.42944,0,52.6951,-1292.41,0.110236,1,841.952,961901
0.219788,0.0617676,0.684692,12.0183,0.912781,-231.998,9.797,1.43715,0,82.9851,-1268.15,0.110236,1,841.97,961915
0.122314,0.173279,1.16486,2.28195,-8.82355,-238.236,9.79288,1.45276,0,109.474,-1208.02,0.110236,1,841.989,961946
0.0674438,0.0496216,0.465881,6.5416,16.2779,-238.54,9.79053,1.46054,0,95.7451,-1122.59,0.110236,1,842.009,961960
-0.0300293,0.159485,1.44324,-12.6268,-11.2576,-238.084,9.78804,1.46817,0,98.3526,-1300.9,0.110236,1,842.03,961975
0.261719,0.103088,0.696106,-3.80325,17.495,-240.366,9.78258,1.48314,0,119.917,-1179.38,0.102362,1,842.049,962006
0.0552368,0.0887451,1.25891,-6.99799,13.3875,-242.952,9.77956,1.49068,0,91.9917,-1198.39,0.0551181,1,842.069,962020
-0.0667725,0.169128,0.96991,8.36716,-0.15213,-239.757,9.7764,1.49802,0,112.573,-1079.21,0.023622,1,842.089,962035
0.182739,0.159302,1.02783,1.21704,5.78094,-235.041,9.7659,1.51956,0,248.948,-1018.49,-0.0078125,1,842.131,962080
0.0895386,0.153381,0.744873,-0.30426,0.45639,-230.173,9.76198,1.52654,0,283.616,-1046.85,-0.0078125,0.4375,842.149,962095
0.117554,0.0344849,0.650391,14.3002,8.0629,-213.286,9.75404,1.53987,0,301.932,-964.553,-0.0078125,0.09375,842.169,962126
-0.17865,0.352966,1.09717,-9.73633,1.06491,-207.049,9.74992,1.54616,0,335.886,-920.514,-0.0078125,0.0078125,842.189,962140
-0.540222,0.429626,1.86377,-7.91077,-1.97769,-188.185,9.74573,1.55161,0,323.248,-790.233,-0.0078125,0.0078125,842.209,962155
-0.572449,0.402954,1.31934,-17.9514,6.99799,-153.347,9.73746,1.56023,0,372.28,-665.38,-0.0078125,0.0078125,842.228,962186
-0.394165,0.33197,0.737183,19.1684,6.5416,-135.548,9.73344,1.56326,0,367.579,-819.538,-0.0078125,0.0078125,842.249,962200
-0.446838,0.182861,1.64374,-6.69373,-14.3002,-118.357,9.72958,1.56558,0,368.067,-784.806,-0.0078125,0.0078125,842.27,962215
-0.282104,0.313538,1.32745,-19.1684,4.5639,-100.102,9.72211,1.56854,0,395.922,-751.258,-0.0078125,0.0078125,842.289,962246
-0.325745,0.203064,1.0047,10.3448,3.34686,-87.1706,9.71841,1.56915,0,360.451,-701.016,-0.0078125,0.0078125,842.309,962260
-0.391602,0.0825195,0.833618,-8.36716,2.28195,-73.631,9.71497,1.56926,0,455.436,-619.924,-0.0078125,0.0078125,842.329,962276
-0.144104,0.0351562,0.327759,6.38947,9.43207,-51.42,9.70845,1.56792,0,409.937,-501.869,-0.0078125,0.0078125,842.349,962306
-0.258301,0.0848999,1.02844,-6.08521,0.15213,-48.2253,9.70538,1.56677,0,355.777,-526.233,-0.0078125,0.0078125,842.369,962320
-0.35199,0.167542,0.973938,-0.30426,-8.97568,-35.9027,9.7025,1.56522,0,416.563,-457.729,-0.0078125,0.0078125,842.389,962335
-0.233704,0.182922,0.810181,-0.45639,1.97769,-12.3225,9.6972,1.56067,0,468.461,-500.363,-0.0078125,0.0078125,842.409,962366
-0.295288,0.110779,0.977478,-2.89047,0.30426,-5.78094,9.69473,1.55779,0,424.755,-412.065,-0.0078125,0.0078125,842.429,962380
-0.15686,0.0965576,0.95575,2.43408,3.65112,0.45639,9.69238,1.5546,0,412.193,-458.432,-0.0078125,0.0078125,842.449,962395
0.0708618,0.0765381,0.956482,1.06491,4.86816,0.30426,9.6873,1.54791,0,387.552,-399.457,-0.0078125,0.0078125,842.47,962426
-0.0544434,0.109131,0.918457,-3.95538,-0.45639,-0.912781,9.68457,1.54449,0,384.66,-422.52,-0.0078125,0.0078125,842.489,962440
-0.0405884,0.134949,0.985657,-0.760651,-0,0.760651,9.68176,1.54089,0,371.485,-354.17,-0.0078125,0.0078125,842.509,962455
-0.0161133,0.101624,0.959656,-2.43408,2.89047,-0.45639,9.67581,1.53339,0,364.279,-334.644,-0.015625,0.125,842.528,962486
-0.0372925,0.0856934,0.853027,0.15213,0.760651,1.82556,9.67273,1.52946,0,370.563,-288.779,-0.03125,0.148438,842.548,962500
0.0838013,0.148804,1.00787,-4.5639,-0.15213,2.73834,9.66953,1.52547,0,342.196,-377.986,-0.078125,0.179688,842.569,962516
-0.0266724,0.14978,1.04834,-0.608521,0.15213,2.43408,9.66266,1.51704,0,338.73,-317.813,-0.109375,0.195312,842.589,962546
0.0949097,0.0557251,0.857361,1.82556,-2.12982,-0.15213,9.65904,1.5127,0,246.697,-292.573,-0.164062,0.226562,842.609,962560
0.00469971,0.194519,0.939636,-0.912781,-0.30426,-5.02029,9.65529,1.50827,0,273.474,-276.652,-0.203125,0.304688,842.629,962575
-0.0831299,0.153381,0.852661,2.43408,2.89047,1.82556,9.64752,1.49881,0,298.744,-189.482,-0.28125,0.351562,842.649,962605
0.0543213,0.0805054,1.02478,-0.15213,1.82556,3.80325,9.64354,1.49385,0,252.605,-357.207,-0.328125,0.390625,842.669,962620
0.0704346,-0.196045,0.884888,1.36917,-0.760651,-10.1927,9.63564,1.48454,0,268.973,-350.84,-0.351562,0.390625,842.691,962650
-0.164795,-0.112854,0.881897,-4.25964,5.47668,-6.99799,9.63193,1.48016,0,357.188,-413.762,-0.351562,0.390625,842.712,962665
0.000854492,-0.0880127,0.920898,-2.89047,0.608521,2.89047,9.62193,1.46758,0,372.516,-450.44,-0.351562,0.390625,842.759,962710
0.000854492,-0.0880127,0.920898,-2.89047,0.608521,2.89047,9.62193,1.46758,0,381.971,-377.672,-0.351562,0.390625,842.76,962710
0.0790405,-0.172668,1.09387,-0.45639,-1.21704,-2.58621,9.61877,1.46375,0,341.752,-436.958,-0.351562,0.390625,842.769,962725
-0.0289307,-0.0604858,0.942871,-3.0426,2.28195,-3.80325,9.61572,1.46005,0,417.772,-436.272,-0.351562,0.390625,842.789,962740
-0.0032959,-0.00378418,1.02985,-3.65112,1.82556,-1.67343,9.61272,1.45639,0,416.043,-390.678,-0.351562,0.398438,842.809,962755
-0.0728149,-0.0883179,0.895325,-0.30426,-2.28195,0.15213,9.60698,1.44926,0,407.98,-482.509,-0.351562,0.398438,842.829,962785
-0.0172729,0.0423584,1.09778,-3.80325,0.15213,1.67343,9.60425,1.44572,0,460.925,-465.831,-0.351562,0.398438,842.848,962800
0.00799561,-0.0848999,0.813782,6.08521,3.0426,1.5213,9.60153,1.44221,0,481.777,-468.263,-0.351562,0.398438,842.87,962815
0.0359497,-0.00244141,0.977722,-2.89047,0.30426,1.21704,9.59627,1.43524,0,459.633,-450.086,-0.289062,0.398438,842.889,962845
-0.0942383,0.0186157,0.791809,1.21704,2.12982,2.28195,9.59111,1.42854,0,435.076,-486.973,-0.265625,0.398438,842.923,962875
-0.0942383,0.0186157,0.791809,1.21704,2.12982,2.28195,9.59111,1.42854,0,441.404,-469.748,-0.242188,0.398438,842.929,962875
-0.0664673,-0.039978,0.749451,7.60651,-0.760651,-1.21704,9.58607,1.42166,0,475.545,-374.455,-0.242188,0.398438,842.949,962905
0.0548096,-0.0153198,1.06311,-6.23734,-5.47668,-1.97769,9.5836,1.41823,0,457.697,-562.936,-0.140625,0.398438,842.971,962920
0.0637817,-0.0343628,1.00781,3.65112,4.10751,-1.36917,9.5811,1.41489,0,488.532,-543.789,-0.0625,0.398438,842.989,962935
0.0482788,0.0285034,0.762695,-2.12982,-0.15213,-1.97769,9.57605,1.40845,0,341.728,-522.425,-0.0234375,0.398438,843.013,962965
0.267395,0.0737915,0.932983,-0.912781,-4.25964,-5.17242,9.5733,1.40536,0,378.394,-460.236,-0.015625,0.398438,843.028,962980
-0.13269,0.0293579,0.874207,1.21704,2.89047,-13.0832,9.56729,1.39932,0,425.378,-523.642,-0.0078125,0.398438,843.05,963010
-0.0688477,-0.0136108,0.904541,2.12982,0.760651,-4.5639,9.56436,1.39618,0,434.688,-435.161,-0.0078125,0.398438,843.07,963025
-0.027832,0.0289307,0.990967,2.43408,-4.41177,-0,9.56148,1.39299,0,398.256,-462.963,-0.0078125,0.398438,843.088,963040
0.00183105,-0.00604248,0.909607,0.15213,1.97769,-0.30426,9.56148,1.3898,0,438.625,-457.624,-0.0078125,0.296875,843.108,963055
-0.00872803,-0.0512695,0.756287,-3.19473,0.912781,-5.78094,9.56152,1.38347,0,415.679,-418.288,-0.0078125,0.15625,843.13,963085
-0.0913086,0.178345,1.02588,-2.12982,1.21704,-2.89047,9.56155,1.38022,0,459,-416.71,-0.0078125,0.0390625,843.149,963100
-0.0374756,0.116638,1.06195,-0.30426,-2.73834,2.12982,9.56154,1.37677,0,423.594,-390.915,-0.0078125,0.0390625,843.169,963115
0.0569458,0.133728,0.930359,-1.97769,-6.08521,2.58621,9.56116,1.36964,0,441.667,-246.451,-0.0078125,0.0078125,843.189,963145
-0.10144,0.112549,0.892639,-1.97769,-4.5639,-0.30426,9.56082,1.36592,0,393.515,-324.254,-0.0078125,0.0078125,843.213,963160
-0.117554,0.483398,0.927612,-2.89047,8.36716,6.23734,9.56032,1.36182,0,394.945,-364.804,-0.0078125,0.0078125,843.229,963175
0.155334,-0.0388184,0.772949,1.06491,-2.28195,2.12982,9.55869,1.35286,0,324.259,-392.619,-0.0078125,0.0078125,843.249,963205
-0.00836182,0.101257,0.769043,4.86816,-1.82556,-5.62881,9.55771,1.34845,0,302.412,-213.108,-0.0078125,0.0078125,843.269,963220
-0.0739136,0.106812,1.11176,-3.65112,-3.34686,-3.65112,9.55669,1.34393,0,346.218,-330.404,-0.0078125,0.0078125,843.289,963235
0.0055542,0.112854,0.965393,-0.45639,-2.28195,3.19473,9.55664,1.33464,0,314.916,-308.804,-0.0078125,0.0078125,843.309,963265
0.0213013,0.0533447,0.909851,1.97769,-2.12982,1.67343,9.5565,1.32993,0,258.756,-321.388,-0.0078125,0.0078125,843.329,963280
-0.0453491,0.159058,0.866394,4.25964,0.760651,-0.15213,9.55608,1.32024,0,243.739,-254.699,-0.0078125,0.0078125,843.35,963310
0.0631714,0.139709,0.952271,0.30426,-0.30426,-0.45639,9.55569,1.31522,0,236.614,-278.466,-0.0078125,0.0078125,843.369,963325
-0.00317383,0.100037,0.963501,-0.15213,-1.21704,-3.49899,9.55521,1.31013,0,249.569,-231.879,-0.0078125,0.0078125,843.389,963340
-0.0531616,0.072937,0.92804,1.67343,2.89047,-2.73834,9.55467,1.30496,0,228.972,-221.87,-0.0078125,0.0078125,843.409,963355
-0.0479126,0.104919,0.958862,-0.608521,0.30426,0.15213,9.55351,1.29431,0,217.304,-193.246,-0.0078125,0.0078125,843.43,963385
-0.0458984,0.103943,0.960449,1.36917,2.73834,0.608521,9.55289,1.28882,0,204.365,-212.508,-0.0078125,0.0078125,843.449,963400
-0.00579834,0.0812988,0.993774,-1.21704,0.760651,-0.608521,9.5515,1.27759,0,193.005,-224.661,-0.0078125,0.0078125,843.471,963430
0.00238037,0.0856323,0.937073,0.15213,1.36917,-0.608521,9.55072,1.27191,0,179.088,-173.999,0.015748,0.0078125,843.489,963445
-0.0106812,0.118347,0.957947,0.15213,1.67343,-0.912781,9.54988,1.26614,0,164.293,-162.146,0.0629921,0.0078125,843.509,963460
-0.00817871,0.10199,0.98175,0.45639,0.45639,-0,9.54897,1.26031,0,138.762,-156.239,0.15748,-0,843.529,963475
0.0621948,0.159607,0.935059,-0.30426,-0.912781,-0.45639,9.54692,1.24835,0,79.5532,-146.183,0.244094,-0.0551181,843.549,963505
0.0112915,0.23114,0.93634,-0.608521,-0.30426,-4.25964,9.54565,1.2422,0,58.3879,-104.749,0.362205,-0.173228,843.57,963520
-0.0615845,0.355225,0.982483,-0.912781,0.30426,-5.32455,9.54416,1.23578,0,58.3879,-72.812,0.440945,-0.291339,843.589,963535
-0.0542603,0.438293,1.02338,0.760651,2.12982,-1.06491,9.54027,1.22179,0,58.3879,-12.986,0.543307,-0.472441,843.609,963565
0.0211792,0.340088,0.903259,-0,-0.608521,3.0426,9.53786,1.21423,0,-120.734,127.872,0.629921,-0.629921,843.629,963580
0.0129395,0.469971,0.970459,-1.5213,0.760651,1.36917,9.5351,1.20636,0,-187.033,216.244,0.685039,-0.700787,843.649,963595
-0.00891113,0.466125,1.02203,-0.760651,1.36917,0.45639,9.52837,1.18932,0,-274.311,274.997,0.724409,-0.740157,843.669,963625
0.0535889,0.454346,0.84845,0.608521,0.760651,0.30426,9.52441,1.18021,0,-351.562,391.711,0.779528,-0.740157,843.69,963639
-0.0142822,0.514221,0.974976,-0.15213,-1.36917,-0.760651,9.52005,1.1707,0,-476.86,445.831,0.818898,-0.740157,843.709,963654
-0.012146,0.467163,0.989563,1.06491,0.912781,0.30426,9.5101,1.15053,0,-474.586,540.409,0.858268,-0.740157,843.729,963685
0.0153809,0.471802,1.05554,-3.95538,-5.02029,-1.67343,9.50456,1.13988,0,-598.444,566.508,0.889764,-0.740157,843.749,963699
0.168762,0.338074,0.940796,-2.58621,3.19473,-1.97769,9.49249,1.11784,0,-648.34,616.181,0.92126,-0.740157,843.769,963729
-0.0151978,0.376587,1.04181,-4.25964,5.62881,-2.28195,9.48595,1.10657,0,-790.608,515.172,0.952756,-0.740157,843.789,963745
0.0067749,0.32843,0.903137,3.65112,3.95538,-1.82556,9.47919,1.09505,0,-801.539,614.496,0.968504,-0.740157,843.809,963759
0.0896606,0.257568,0.810913,1.5213,2.73834,-2.73834,9.47217,1.08336,0,-807.494,700.894,0.976378,-0.740157,843.829,963774
-0.0098877,0.236755,0.928223,0.45639,5.32455,-6.5416,9.4577,1.05931,0,-911.12,701.262,0.976378,-0.740157,843.85,963805
-0.0917969,0.249573,1.02966,4.10751,12.4747,-7.30225,9.45033,1.04697,0,-919.16,794.407,0.976378,-0.740157,843.869,963819
0.227295,0.242188,0.942017,-2.12982,-5.17242,-8.21503,9.44278,1.03458,0,-909.587,773.545,0.850394,-0.740157,843.889,963834
0.00372314,0.225342,1.05725,-3.49899,1.97769,-10.0406,9.42682,1.00958,0,-1130.97,866.664,0.606299,-0.740157,843.909,963865
-0.268066,0.147217,0.994873,-6.69373,-0.45639,-10.497,9.41882,0.996841,0,-1049.65,902.527,0.385827,-0.748031,843.929,963879
-0.429382,0.294678,1.29285,-0.912781,-6.99799,-6.38947,9.4111,0.983688,0,-726.823,940.955,0.110236,-0.748031,843.949,963894
-0.174377,-0.0882568,1.73596,-4.5639,-6.23734,6.69373,9.39653,0.956818,0,-910.042,1054.3,0.00787402,-0.755906,843.969,963925
-0.139526,0.0665894,0.80072,10.6491,6.38947,10.497,9.38969,0.943405,0,-716.512,881.912,-0.0078125,-0.755906,843.989,963939
-0.47406,-0.00579834,0.750793,2.89047,-7.45438,11.1055,9.38324,0.929794,0,-769.941,977.135,-0.0078125,-0.76378,844.009,963954
-0.0837402,-0.0725098,0.953979,1.06491,-1.5213,28.4483,9.37163,0.902527,0,-952.29,961.677,-0.0078125,-0.76378,844.029,963985
0.327515,-0.130249,0.964294,5.93307,-2.89047,22.9716,9.36603,0.889282,0,-809.487,1133.27,-0.0078125,-0.76378,844.049,963999
0.299744,-0.0777588,1.28778,5.62881,-4.25964,13.0832,9.36032,0.876572,0,-968.476,678.794,-0.0390625,-0.76378,844.069,964014
0.347107,0.214233,1.99994,-26.4706,-1.06491,8.21503,9.34848,0.852066,0,-809.258,984.785,-0.09375,-0.76378,844.089,964045
-0.0673828,0.0645142,0.716614,22.6674,23.7323,7.75864,9.34229,0.840073,0,-617.494,1075.91,-0.132812,-0.76378,844.109,964059
-0.114258,-0.327881,1.1441,-0.45639,1.67343,20.0812,9.3308,0.815704,0,-523.286,822.132,-0.195312,-0.76378,844.13,964089
-0.0650024,-0.300598,0.73645,14.6045,7.75864,31.6431,9.32571,0.803864,0,-423.666,952.472,-0.242188,-0.76378,844.15,964105
-0.275391,-0.28363,0.635803,-6.08521,-3.80325,42.2922,9.32112,0.792206,0,-317.657,877.193,-0.375,-0.76378,844.169,964119
-0.465332,-0.097168,0.860107,3.0426,-15.5173,61.6127,9.31348,0.768738,0,-217.5,1004.07,-0.5,-0.76378,844.189,964149
-0.196716,-0.34668,0.743225,4.10751,0.912781,72.2618,9.31049,0.756912,0,-105.254,880.747,-0.6875,-0.76378,844.209,964165
-0.14209,-0.224915,0.762695,5.62881,1.5213,80.3247,9.30797,0.745285,0,0,877.886,-0.820312,-0.76378,844.229,964179
-0.14856,-0.173401,1.10126,-9.5842,2.28195,90.8217,9.30582,0.733795,0,108.139,1055.24,-0.820312,-0.76378,844.249,964194
-0.175476,-0.107361,0.948303,-8.97568,-1.97769,114.402,9.30284,0.71109,0,213.748,937.734,-0.875,-0.76378,844.269,964225
-0.120605,-0.340454,0.986389,3.19473,-0.912781,124.899,9.30194,0.699905,0,286.184,781.555,-0.929688,-0.76378,844.289,964239
-0.247864,-0.182739,0.521667,6.69373,9.12781,136.004,9.30148,0.688873,0,320.806,690.417,-0.960938,-0.76378,844.308,964254
-0.140381,-0.382385,0.777832,1.21704,5.17242,155.173,9.30194,0.667084,0,423.092,835.841,-0.984375,-0.645669,844.33,964285
-0.0949707,-0.0145264,1.39081,-18.1035,2.58621,161.714,9.30272,0.656448,0,500.188,617.856,-1,-0.543307,844.35,964299
-0.205261,-0.0877686,0.668762,2.43408,4.5639,170.538,9.30481,0.635651,0,652.167,348.068,-1,-0.362205,844.369,964329
0.141663,-0.317993,0.835815,-14.4524,-5.32455,171.451,9.30623,0.625504,0,778.786,437.857,-1,-0.228346,844.389,964344
-0.110901,-0.271729,0.993225,8.21503,1.97769,169.169,9.30794,0.615692,0,662.822,545.108,-1,-0.15748,844.409,964359
0.0464478,-0.36908,1.4314,-3.0426,1.82556,168.712,9.31001,0.606216,0,760.312,296.384,-1,-0.125984,844.429,964374
-0.240967,-0.375366,0.493591,-3.0426,4.10751,172.82,9.31563,0.588104,0,826.105,260.59,-1,-0.0944882,844.449,964404
0.218811,-0.403748,1.66144,-19.1684,1.97769,173.124,9.31914,0.579483,0,717.36,262.243,-1,-0.0787402,844.469,964419
0.0012207,-0.45105,0.822083,13.6917,10.497,170.69,9.32304,0.571381,0,847.853,128.593,-1,-0.0787402,844.489,964434
0.123108,-0.414429,0.887329,-11.1055,1.36917,170.386,9.33223,0.555969,0,762.777,94.9753,-1,-0.0787402,844.509,964464
0.00164795,-0.207458,1.31287,6.08521,7.60651,164.605,9.33733,0.548752,0,885.152,60.4405,-1,-0.0708661,844.529,964479
-0.0622559,-0.163879,0.555664,-5.62881,-4.5639,162.019,9.34814,0.534714,0,1025.9,60.4405,-1,-0.0708661,844.549,964509
0.0258179,-0.0648804,0.859314,-13.0832,0.45639,162.019,9.35378,0.527817,0,924.513,-10.4327,-1,-0.0708661,844.569,964524
-0.0328369,-0.114685,1.2926,0.30426,-1.06491,164.301,9.35948,0.521027,0,794.092,-60.9385,-1,-0.0629921,844.59,964539
-0.174255,-0.0670776,0.770264,4.41177,1.06491,170.386,9.36528,0.514221,0,898.836,-71.2921,-1,-0.0314961,844.61,964554
-0.146301,-0.0444946,0.648865,-2.28195,-13.6917,177.232,9.37708,0.500458,0,882.574,-78.8684,-1,-0.015748,844.628,964584
-0.253357,0.088623,1.4881,-6.69373,-8.21503,179.818,9.38298,0.493347,0,986.729,-173.892,-1,0.0078125,844.648,964599
0.0310059,-0.217346,0.997559,-12.3225,5.47668,180.274,9.39496,0.478851,0,960.292,-200.884,-1,0.0078125,844.68,964629
-0.00921631,0.00518799,0.919922,3.65112,3.49899,176.471,9.40111,0.471756,0,1061.68,-221.246,-1,0.0078125,844.689,964644
-0.110352,-0.0283813,1.05933,-4.25964,-2.89047,174.189,9.40723,0.464661,0,978.426,-238.966,-1,0.0078125,844.71,964659
0.0698242,-0.0848389,0.650269,-5.32455,-4.5639,175.406,9.41338,0.457611,0,1182.31,-302.467,-1,0.0078125,844.729,964674
-0.129822,0.0200806,0.734314,5.32455,-1.36917,172.82,9.42574,0.443863,0,1034.88,-286.899,-1,0.0078125,844.749,964704
-0.0188599,-0.0462036,1.11084,-9.43207,-9.43207,172.363,9.4319,0.436981,0,980.873,-309.722,-1,0.0078125,844.77,964719
0.0379028,-0.126587,1.00653,4.86816,-3.19473,164.301,9.44421,0.423706,0,1062.59,-381.65,-1,0.0078125,844.79,964749
0.0582886,-0.0411987,0.696655,1.97769,2.73834,161.41,9.45044,0.417313,0,1134.49,-277.431,-1,0.0078125,844.809,964764
-0.0750122,-0.0108643,1.17236,-3.49899,5.93307,160.954,9.45665,0.41098,0,1139.21,-378.365,-1,0.0078125,844.83,964779
0.0162354,-0.0811768,1.01056,-4.86816,1.5213,155.933,9.46288,0.404663,0,1103.08,-505.433,-1,0.0078125,844.85,964794
0.0490112,-0.102356,0.905212,-5.47668,-4.5639,149.088,9.47552,0.392471,0,999.6,-439.377,-1,0.0078125,844.869,964824
0.196411,-0.0499878,1.42676,5.32455,13.6917,145.132,9.48193,0.386688,0,1093.25,-432.985,-1,0.0078125,844.889,964839
0.178955,-0.0873413,0.814941,-5.93307,-8.97568,140.264,9.48836,0.381241,0,983.187,-618.334,-1,0.0078125,844.909,964854
0.067688,-0.0504761,0.666016,-0.760651,-5.62881,133.875,9.50128,0.371277,0,1173.57,-460.787,-1,0.0078125,844.929,964884
0.305969,-0.0281372,1.22461,-6.38947,-3.95538,130.984,9.50775,0.36673,0,1206.27,-528.011,-1,0.0078125,844.95,964899
0.273804,-0.170471,1.07397,0.760651,9.12781,123.986,9.51431,0.36264,0,1173.64,-569.525,-1,-0.133858,844.969,964914
-0.0217896,-0.116272,0.459229,-1.5213,-8.67142,114.706,9.52763,0.355255,0,1079.74,-376.733,-1,-0.228346,844.989,964944
-0.00524902,-0.0360718,1.01624,-4.5639,-3.19473,115.163,9.53438,0.351654,0,1112.1,-261.513,-1,-0.307087,845.009,964959
-0.147461,0.187927,1.27338,7.45438,13.6917,117.597,9.54095,0.348007,0,1132.82,-128.915,-1,-0.433071,845.029,964974
-0.0980225,0.0974121,1.04114,-19.0163,-20.2333,124.138,9.55328,0.340393,0,1204.82,0,-1,-0.637795,845.049,965004
-0.223633,0.158569,0.918152,14.9088,20.0812,123.682,9.5591,0.336395,0,1164.75,157.338,-1,-0.748031,845.069,965019
-0.270386,0.145691,0.754089,-8.21503,-6.38947,130.071,9.56462,0.332138,0,1029.44,292.53,-1,-0.826772,845.089,965034
-0.0640869,0.0137329,0.686401,13.2353,11.2576,132.657,9.57468,0.323273,0,1098.18,531.406,-1,-0.826772,845.109,965064
-0.125,0.11438,0.871338,-3.80325,-3.19473,132.657,9.57945,0.318756,0,1079.86,419.921,-1,-0.826772,845.129,965079
0.0390015,0.144043,0.903748,-4.5639,-9.5842,138.134,9.58803,0.30954,0,1115.26,465.16,-1,-0.826772,845.149,965109
-0.0740967,0.0444336,1.09454,-1.06491,7.60651,139.047,9.592,0.305008,0,1190.9,502.26,-1,-0.826772,845.169,965124
-0.289307,0.27063,0.800903,9.43207,16.2779,140.264,9.5957,0.300339,0,1073.25,616.96,-1,-0.826772,845.192,965139
-0.178772,0.222961,0.680725,-1.5213,-0.608521,166.278,9.60637,0.279419,0,1027.54,484.625,-1,-0.826772,845.252,965199
-0.200928,0.215759,1.5506,-4.71603,1.21704,168.104,9.60805,0.273941,0,997.805,438.154,-1,-0.826772,845.269,965214
-0.223938,0.192688,0.946411,3.80325,3.19473,183.317,9.61116,0.251755,0,984.64,421.088,-1,-0.826772,845.318,965274
-0.223938,0.192688,0.946411,3.80325,3.19473,183.317,9.61116,0.251755,0,1047.45,425.098,-1,-0.826772,845.32,965274
-0.16803,0.230713,0.794006,-0.30426,5.47668,185.751,9.61104,0.246063,0,997.059,395.554,-1,-0.826772,845.33,965289
-0.1073,0.2547,0.619995,-4.41177,-0.15213,188.946,9.61055,0.240372,0,1020.41,495.43,-1,-0.826772,845.35,965304
-0.254456,0.268738,1.10547,-7.91077,-0.912781,192.445,9.60966,0.23468,0,835.841,450.359,-1,-0.826772,845.369,965319
-0.144226,0.252441,0.980286,2.58621,2.43408,201.877,9.60692,0.223495,0,900.171,511.509,-1,-0.677165,845.39,965348
-0.198669,0.206055,0.854126,-2.12982,-7.91077,207.049,9.60507,0.217957,0,921.574,426.448,-1,-0.425197,845.41,965364
-0.131287,0.177979,0.964783,-6.38947,-4.41177,209.635,9.60292,0.212418,0,969.556,327.011,-1,-0.228346,845.43,965378
-0.329834,0.181763,0.851624,6.84586,4.10751,210.7,9.60046,0.206818,0,960.569,179.139,-1,-0.0314961,845.448,965393
-0.188477,0.064209,0.89386,-1.97769,-4.41177,212.678,9.59447,0.195099,0,996.512,121.153,-1,0.0078125,845.469,965424
-0.329224,-0.0404053,0.976562,-2.58621,-13.6917,209.331,9.59119,0.188965,0,978.139,-93.1433,-1,0.0078125,845.489,965438
-0.183594,0.0216675,0.789856,-6.69373,-6.69373,197.617,9.58446,0.176208,0,1122.46,-145.967,-1,0.0078125,845.509,965468
-0.233032,0.0651245,1.30963,-7.60651,-1.97769,192.597,9.58093,0.169678,0,974.137,-202.347,-1,0.0078125,845.53,965484
-0.0220337,0.00585938,0.956482,4.25964,-2.58621,188.641,9.57735,0.163132,0,1064.11,-188.608,-1,0.0078125,845.549,965498
0.0152588,-0.118958,1.24768,-7.91077,-8.67142,188.337,9.57036,0.149948,0,1078.57,-258.819,-1,0.0078125,845.569,965528
-0.138062,0.0285645,1.20166,10.6491,11.2576,184.534,9.567,0.149948,0,1023.59,-277.085,-1,0.0078125,845.597,965544
-0.0776978,-0.0604248,0.477478,3.65112,-2.73834,183.773,9.56361,0.149887,0,1003.46,-281.207,-1,0.0078125,845.609,965558
0.329346,0.122986,1.41351,-25.8621,2.58621,184.077,9.56039,0.150055,0,1012.5,-297.446,-1,0.0078125,845.63,965573
0.393982,-0.151367,0.843933,-1.82556,5.17242,177.232,9.55489,0.151108,0,969.368,-333.267,-1,0.0078125,845.649,965604
0.175293,0.0571289,1.35168,-3.49899,-2.43408,170.386,9.55275,0.151993,0,1133.92,-346.153,-1,0.03125,845.669,965618
0.0657959,0.0662231,0.828857,-4.86816,4.10751,165.213,9.55077,0.153137,0,1108.52,-307.47,-1,0.046875,845.689,965633
-0.0318604,0.0692749,0.801575,-2.58621,-0.30426,163.692,9.54697,0.156082,0,1208.75,-289.093,-1,0.0546875,845.709,965664
0.131531,0.146423,1.06036,-1.36917,-1.21704,164.301,9.5451,0.157867,0,1180.5,-291.21,-1,0.0546875,845.73,965678
0.135376,0.100891,0.920288,-7.91077,-5.02029,160.802,9.54173,0.162231,0,1054.02,-249.069,-1,0.0546875,845.75,965708
-0.0067749,0.11969,1.33038,-7.91077,5.78094,160.345,9.53868,0.167419,0,1179.25,-299.101,-1,0.0546875,845.784,965738
-0.0067749,0.11969,1.33038,-7.91077,5.78094,160.345,9.53868,0.167419,0,1161.98,-282.072,-1,0.0546875,845.789,965738
-0.167847,0.113464,0.870056,-9.12781,-5.62881,158.824,9.53529,0.173004,0,1139.08,-306.89,-1,0.0546875,845.811,965768
-0.205078,0.140747,1.27631,-7.30225,3.34686,160.041,9.53328,0.175888,0,1019.99,-420.769,-1,0.0546875,845.829,965784
-0.13916,0.123169,0.95874,-5.93307,2.12982,160.802,9.53107,0.178879,0,1164.28,-348.572,-1,0.0546875,845.849,965798
-0.169739,0.0291748,0.486084,1.67343,-14.1481,154.26,9.52638,0.185104,0,1090.45,-297.089,-1,0.0546875,845.869,965828
-0.136536,-0.0108032,1.1944,-15.5173,1.5213,154.26,9.52386,0.188202,0,1272.99,-358.983,-1,0.0546875,845.889,965844
0.0283813,0.0217896,0.973694,1.21704,-1.36917,153.651,9.52136,0.191315,0,1237.62,-402.56,-1,0.0546875,845.909,965858
0.112671,0.0803833,0.796936,-10.9534,-2.12982,151.369,9.51663,0.197968,0,1195.89,-271.128,-1,0.0546875,845.928,965888
-0.0365601,0.0337524,1.17096,7.15012,0.15213,149.088,9.51442,0.201508,0,1111.05,-345.746,-1,0.0546875,845.948,965904
-0.0959473,0.0682373,0.682068,2.73834,-0.608521,148.023,9.51216,0.205124,0,1281.8,-324.454,-1,0.0546875,845.969,965918
-0.0793457,0.0078125,0.994629,-1.21704,-5.02029,143.915,9.50798,0.212601,0,1198.9,-292.475,-1,0.0546875,845.993,965948
0.071228,0.0535278,0.902893,-3.65112,8.0629,144.828,9.50601,0.216446,0,1061.12,-320.79,-1,0.0546875,846.009,965964
0.0386353,-0.0658569,0.96344,5.47668,-2.12982,144.98,9.50418,0.220337,0,1034.02,-254.443,-1,0.0546875,846.029,965978
0.0253296,0.0653076,1.12036,-3.49899,-1.36917,139.96,9.50085,0.228256,0,1123.72,-324.386,-1,0.078125,846.049,966008
-0.092041,0.0213013,0.864807,6.69373,6.84586,137.982,9.49925,0.232346,0,1201.49,-382.922,-1,0.125,846.069,966023
0.0258179,-0.128723,0.794128,6.5416,6.69373,138.895,9.49771,0.236374,0,1087.84,-400.432,-1,0.203125,846.089,966038
0.038269,0.0222778,0.968079,6.69373,10.0406,133.266,9.49539,0.24472,0,1074.86,-422.351,-1,0.34375,846.109,966068
0.233887,0.00469971,1.03809,-1.06491,5.17242,130.984,9.49461,0.249054,0,1122.33,-473.833,-1,0.53125,846.129,966083
0.113831,0.0635986,0.993408,5.02029,12.7789,127.637,9.49416,0.253525,0,1154.6,-512.374,-1,0.71875,846.149,966098
0.119141,-0.093811,1.20856,-3.49899,8.0629,111.055,9.49409,0.262421,0,1101.93,-766.577,-1,0.8125,846.17,966128
0.169067,-0.200989,0.670349,5.17242,-1.97769,90.5174,9.49513,0.270889,0,1250.55,-915.416,-1,0.898438,846.207,966158
0.169067,-0.200989,0.670349,5.17242,-1.97769,90.5174,9.49513,0.270889,0,1115.08,-893.056,-1,0.898438,846.209,966158
0.324585,-0.412964,1.12134,3.34686,-3.19473,61.0042,9.49791,0.277954,0,1184.48,-812.48,-1,0.921875,846.23,966188
0.231812,-0.162598,0.66571,-2.58621,-3.49899,51.7242,9.50006,0.28096,0,1243.86,-1005.08,-1,0.921875,846.249,966203
0.285706,-0.173279,1.07483,-3.34686,0.912781,43.8135,9.50264,0.283829,0,1239.08,-976.658,-1,0.921875,846.269,966218
0.268494,-0.188477,1.11798,-8.67142,-5.17242,27.3834,9.50905,0.288986,0,1194.96,-903.996,-1,0.835938,846.289,966248
0.0914917,-0.247009,0.996948,11.4098,10.3448,20.3854,9.51279,0.291275,0,1170,-1141.55,-1,0.789062,846.309,966263
0.114624,-0.11438,0.926086,-7.15012,0.608521,12.6268,9.51672,0.293396,0,1254.15,-1173.09,-1,0.742188,846.33,966278
-0.152466,-0.0948486,1.32751,5.17242,-7.30225,11.2576,9.52484,0.297516,0,1200.62,-1115.7,-1,0.6875,846.35,966308
-0.113159,-0.181152,0.727661,22.9716,-0.15213,13.5396,9.52876,0.299408,0,1371.08,-1175.5,-1,0.640625,846.369,966323
0.131897,-0.171753,1.22284,-24.0366,25.4057,16.2779,9.53275,0.301132,0,1351.9,-1368.55,-1,0.632812,846.389,966338
0.0596924,0.0754395,0.294189,3.34686,-15.9737,12.1704,9.54099,0.304504,0,1297.19,-1152.41,-1,0.609375,846.409,966368
-0.0621338,-0.0546265,1.46942,4.5639,-1.36917,13.996,9.54514,0.306274,0,1284.6,-1153.4,-1,0.585938,846.43,966383
0.305298,0.15564,1.65192,-14.9088,18.5599,17.1907,9.55382,0.310226,0,1440.2,-1160.83,-1,0.554688,846.458,966413
0.305298,0.15564,1.65192,-14.9088,18.5599,17.1907,9.55382,0.310226,0,1270.33,-1111.48,-1,0.546875,846.469,966413
0.135437,-0.154114,1.09875,40.7709,-8.0629,26.927,9.56342,0.314835,0,1147.25,-1136.17,-1,0.523438,846.489,966443
0.159058,-0.0154419,1.00269,-26.4706,8.82355,27.5356,9.56854,0.317093,0,1289.91,-1299.55,-1,0.476562,846.509,966458
-0.170471,0.28241,1.22986,2.89047,9.27994,23.1238,9.57945,0.322357,0,1283.53,-1263.18,-1,0.453125,846.529,966488
-0.0667114,-0.0488281,0.265808,11.4098,-16.7343,25.71,9.58478,0.325348,0,1423.49,-1161.98,-1,0.421875,846.549,966503
0.0269775,-0.278442,1.18579,-8.97568,10.497,29.6654,9.59012,0.328171,0,1389.76,-1066.27,-1,0.40625,846.57,966518
-0.321777,0.0974731,0.400146,24.6451,-8.36716,33.1644,9.60042,0.333572,0,1310.36,-1073.08,-1,0.375,846.59,966548
-0.250061,-0.0356445,0.84375,-13.5396,0.760651,38.7932,9.60504,0.336349,0,1274.05,-1167.88,-1,0.28125,846.61,966563
0.0787964,0.189026,1.75092,-7.30225,6.69373,41.6837,9.60959,0.339279,0,1279.84,-898.755,-1,0.179688,846.629,966578
-0.0557861,0.348999,1.53845,-13.8438,2.89047,52.0285,9.62392,0.349915,0,1305.48,-1014.92,-1,0.132812,846.664,966623
-0.0557861,0.348999,1.53845,-13.8438,2.89047,52.0285,9.62392,0.349915,0,1328.99,-869.036,-1,0.132812,846.669,966623
-0.191528,0.335938,0.65863,17.495,3.0426,58.7222,9.62848,0.354233,0,1413.93,-769.29,-1,0.09375,846.689,966638
0.137329,0.174194,1.99994,-31.1867,0.608521,69.0671,9.63699,0.363647,0,1314.41,-700.697,-1,0.0234375,846.713,966668
0.228882,0.243713,0.680115,8.51929,17.495,70.4362,9.64154,0.368774,0,1338.87,-674.354,-1,0.0078125,846.729,966683
-0.0319824,0.173828,0.639099,8.21503,4.5639,74.2395,9.64624,0.374222,0,1283.45,-690.131,-1,0.0078125,846.749,966698
-0.217957,0.489075,0.985291,-4.71603,-12.9311,74.5438,9.65465,0.385681,0,1340.39,-777.665,-1,0.0078125,846.77,966728
-0.124756,0.0292358,0.545959,12.7789,-7.91077,71.8054,9.65845,0.391937,0,1245.72,-841.22,-1,0.0078125,846.79,966743
-0.0996704,0.0734863,0.515503,-21.6025,1.82556,68.7628,9.66212,0.398285,0,1341.92,-698.032,-1,0.0078125,846.809,966758
-0.17865,0.169434,0.763428,3.19473,11.8661,65.1117,9.66913,0.411026,0,1300.9,-812.348,-1,0.0078125,846.83,966788
-0.154419,0.0821533,0.913208,-0.45639,-8.82355,65.2638,9.67238,0.417603,0,1388.7,-874.661,-1,0.0078125,846.849,966803
-0.0893555,-0.0753784,0.938782,-10.0406,6.84586,61.6127,9.67551,0.424225,0,1176.54,-782.044,-1,0.0078125,846.869,966818
-0.152222,0.150818,1.17291,-6.23734,20.0812,59.1786,9.68152,0.437469,0,1239.85,-905.428,-1,0.0078125,846.89,966848
0.108643,-0.145447,1.29291,4.5639,0.45639,56.8967,9.68451,0.444183,0,1214.48,-963.066,-1,0.0078125,846.909,966863
0.203857,-0.038269,0.885925,-8.67142,-7.45438,52.637,9.68777,0.450775,0,1308.13,-1000.7,-1,0.0078125,846.93,966878
-0.0703125,-0.0193481,0.775085,-0.45639,12.7789,46.8561,9.69505,0.463806,0,1467.46,-1123.41,-1,0.0078125,846.948,966908
0.0810547,-0.024292,1.30304,-17.7992,-1.21704,43.8135,9.69881,0.463806,0,1255.18,-1024.38,-1,0.0078125,846.97,966923
0.260254,-0.0249634,0.669495,8.21503,3.34686,40.6187,9.70285,0.463776,0,1174.74,-1100.35,-1,0.0078125,846.989,966938
-0.0222778,-0.124878,0.723816,-0,-0.760651,41.0751,9.71141,0.463623,0,1275.43,-995.025,-1,0.0078125,847.009,966968
-0.138184,0.0696411,1.32629,-6.99799,8.67142,36.3591,9.71564,0.463501,0,1227.07,-956.251,-1,0.0078125,847.029,966983
-0.14917,-0.0581055,1.15784,-6.08521,-16.1258,31.3388,9.71974,0.463425,0,1242.85,-1170.07,-1,0.0078125,847.049,966998
-0.0612793,-0.0113525,0.500183,-4.5639,-24.1887,28.6005,9.72771,0.463348,0,1409.34,-777.031,-1,0.0078125,847.069,967028
-0.178772,-0.0854492,0.639832,-3.49899,-0,28.7526,9.73154,0.463287,0,1364.44,-1607.07,-1,0.0078125,847.089,967043
0.125244,-0.109009,1.99994,-8.51929,-22.8195,27.8398,9.73537,0.46312,0,1227.9,-1135.4,-1,0.0078125,847.109,967057
-0.0830688,-0.13269,0.76825,-10.6491,-2.28195,24.3408,9.74365,0.46257,0,1419.45,-1183.29,-1,0.0078125,847.13,967087
-0.0931396,-0.0828247,0.505249,-9.5842,9.43207,24.0366,9.74773,0.462128,0,1414.03,-835.561,-1,0.0078125,847.15,967103
0.0889282,0.0548096,1.28265,-0.30426,15.6694,25.2536,9.75183,0.461685,0,1211.97,-1043.41,-1,0.0078125,847.17,967117
-0.0302124,0.0689697,0.711731,4.5639,-13.5396,23.5802,9.7601,0.460968,0,1239.31,-969.509,-1,0.0078125,847.19,967147
-0.168945,-0.0269165,0.373535,8.51929,1.5213,24.7972,9.76411,0.460709,0,1460.39,-1267.19,-1,0.0078125,847.21,967163
0.230042,0.30011,1.99994,-17.3428,12.4747,28.6005,9.76823,0.460632,0,1267.83,-1229.41,-1,-0.015748,847.229,967177
0.139526,-0.0222168,0.640076,7.91077,3.95538,29.3611,9.77731,0.460663,0,1372.87,-1317,-1,-0.0708661,847.249,967207
-0.121277,0.0236816,1.09076,-8.21503,6.23734,28.2962,9.782,0.460648,0,1186.45,-926.741,-1,-0.173228,847.269,967223
-0.238708,0.205017,0.478271,25.71,-3.19473,29.6654,9.7865,0.460831,0,1294.83,-697.812,-1,-0.259843,847.289,967237
-0.209595,0.217224,1.05463,18.1035,17.7992,59.0265,9.79524,0.46225,0,1220.18,-342.489,-1,-0.362205,847.309,967267
-0.270569,0.216431,0.545776,16.7343,-1.5213,66.7851,9.79935,0.463486,0,1298.79,-135.433,-1,-0.425197,847.329,967283
-0.20105,0.175903,0.810364,-5.62881,8.36716,76.5215,9.80322,0.465027,0,1241.54,-66.1704,-1,-0.456693,847.35,967297
-0.104675,0.0750122,0.985962,18.5599,-6.08521,91.8866,9.80983,0.469696,0,1292.82,-66.1704,-1,-0.480315,847.369,967327
-0.190857,0.247009,0.476624,0.912781,-2.12982,98.1239,9.81285,0.472519,0,1070.89,132.977,-1,-0.496063,847.389,967343
-0.124268,0.104004,0.579712,-15.9737,-8.51929,104.97,9.81573,0.475601,0,1301.32,122.69,-1,-0.511811,847.409,967357
-0.367249,0.257019,0.868958,10.6491,-1.97769,113.489,9.82045,0.483429,0,1172.13,87.403,-1,-0.519685,847.428,967387
-0.138672,0.164978,0.55011,-4.10751,-15.9737,118.205,9.82237,0.488007,0,1253.84,136.087,-1,-0.519685,847.448,967403
-0.0587158,0.181152,0.548279,-15.5173,10.6491,120.791,9.82426,0.492813,0,1114.21,197.198,-1,-0.519685,847.468,967417
-0.137878,0.192688,1.2265,-6.5416,-0.30426,131.897,9.82787,0.503586,0,1064.85,123.109,-1,-0.519685,847.49,967447
-0.139404,0.292236,0.816162,8.36716,3.80325,137.069,9.82962,0.509491,0,1109.39,144.905,-1,-0.519685,847.508,967463
-0.14624,0.266479,0.563049,5.62881,-10.0406,140.872,9.83136,0.515778,0,1040.8,189.753,-1,-0.519685,847.528,967477
-0.151123,0.291748,0.819031,8.36716,13.0832,151.369,9.83469,0.52919,0,1147.91,129.197,-1,-0.519685,847.549,967507
-0.251404,0.313721,0.756653,-10.497,-7.15012,155.477,9.83629,0.536484,0,1207.44,151.446,-1,-0.527559,847.569,967523
-0.163025,0.215942,1.03674,-13.0832,-4.71603,158.367,9.83781,0.544128,0,1123.72,169.848,-1,-0.527559,847.589,967537
-0.0947876,0.145386,1.15759,-6.08521,-8.82355,162.627,9.8409,0.560226,0,1044.39,187.219,-1,-0.527559,847.609,967567
-0.254639,0.270691,0.884949,4.5639,5.78094,164.148,9.84244,0.568649,0,999.45,166.872,-1,-0.527559,847.629,967583
-0.182373,0.178711,0.908081,-6.23734,-4.5639,169.017,9.8439,0.577393,0,1033.38,168.742,-1,-0.527559,847.649,967597
-0.268127,0.287598,1.00372,0.45639,8.0629,169.777,9.84685,0.595627,0,1145.8,188.95,-1,-0.527559,847.669,967627
-0.202942,0.107666,0.728394,-4.86816,-2.43408,172.82,9.84824,0.605209,0,873.057,166.847,-1,-0.527559,847.689,967643
-0.184509,0.0551147,0.782288,-5.02029,-7.45438,175.254,9.84952,0.614929,0,950.661,127.248,-1,-0.527559,847.709,967657
0.00482178,0.226807,0.590027,-1.82556,-2.58621,176.319,9.85208,0.635025,0,992.851,127.747,-1,-0.527559,847.729,967687
-0.184692,0.219299,1.43579,-3.80325,-7.45438,176.471,9.85356,0.645416,0,1036.22,117.254,-1,-0.527559,847.75,967702
0.0232544,0.0320435,0.640625,-3.0426,2.28195,177.688,9.85513,0.655899,0,1014.97,155.249,-1,-0.527559,847.768,967717
-0.026001,0.145508,1.11365,-2.58621,-3.19473,182.1,9.85846,0.67691,0,1221.15,187.834,-1,-0.409449,847.789,967747
-0.0923462,0.143555,0.93396,6.5416,11.2576,182.404,9.86029,0.687546,0,1088.08,180.902,-1,-0.346457,847.809,967762
0.0230713,0.196899,0.927063,-5.93307,7.15012,184.382,9.86232,0.698273,0,999.95,131.399,-1,-0.283465,847.829,967777
-0.175598,0.0899048,1.2298,-9.12781,-8.82355,189.706,9.8665,0.720123,0,1054.74,84.9156,-1,-0.267717,847.849,967807
-0.144165,0.107422,0.709351,10.0406,8.97568,188.641,9.8665,0.731247,0,1056.3,44.2632,-1,-0.244094,847.869,967822
-0.141663,0.0876465,1.091,-9.73633,-5.62881,188.641,9.86652,0.742493,0,997.656,44.2632,-1,-0.188976,847.889,967837
0.0116577,0.0910645,0.715759,-1.97769,2.12982,191.988,9.86664,0.765289,0,968.523,44.2632,-1,-0.0866142,847.909,967867
-0.0509033,0.190552,1.21265,-6.23734,-0.15213,193.51,9.86693,0.776764,0,1050.14,6.5839,-1,-0.015748,847.929,967882
-0.137756,0.161194,1.19739,-0.912781,7.60651,190.923,9.86742,0.788345,0,1031.3,-88.776,-1,0.0078125,847.949,967897
-0.0618286,0.0184937,1.0368,-8.97568,-13.3875,194.727,9.86865,0.811707,0,1067.69,-166.045,-1,0.0078125,847.969,967927
-0.109314,-0.046936,0.839355,-1.67343,-5.32455,195.183,9.86928,0.823349,0,1013.99,-231.388,-0.921875,0.0078125,847.989,967942
-0.0747681,0.0406494,1.2774,1.5213,4.71603,189.402,9.86992,0.834946,0,975.372,-291.89,-0.867188,0.0078125,848.009,967957
-0.00366211,0.0446167,1.1994,-16.1258,-8.97568,181.187,9.87138,0.857773,0,1060,-286.722,-0.859375,0.0078125,848.029,967987
-0.158569,-0.0112915,0.89624,1.5213,-3.49899,176.319,9.87221,0.86908,0,1056.36,-376.882,-0.851562,0.0078125,848.049,968002
0.0291138,0.0284424,0.950439,-5.93307,-3.95538,170.386,9.87305,0.880356,0,1001.25,-345.531,-0.851562,0.0078125,848.069,968017
0.053833,-0.0830688,0.616333,-1.5213,-2.12982,154.108,9.87515,0.902603,0,1044.88,-413.539,-0.851562,0.0078125,848.089,968047
0.134705,0.00360107,1.16858,-8.0629,-3.80325,148.631,9.87634,0.913422,0,960.569,-431.751,-0.851562,0.0078125,848.109,968062
0.115784,-0.0352783,0.93158,5.78094,0.912781,142.546,9.87767,0.923965,0,1022.08,-481.278,-0.851562,0.0078125,848.129,968077
0.186279,-0.0185547,1.08148,0.45639,2.12982,131.593,9.88087,0.944,0,985.319,-477.532,-0.851562,0.0078125,848.15,968107
0.0529785,-0.109131,0.995544,0.608521,-2.73834,117.444,9.8846,0.96283,0,1051.03,-548.607,-0.851562,0.0078125,848.186,968137
0.0529785,-0.109131,0.995544,0.608521,-2.73834,117.444,9.8846,0.96283,0,1012.56,-516.796,-0.851562,0.0078125,848.19,968137
0.0318604,0.0380249,0.847229,-6.38947,-1.36917,109.838,9.88846,0.981033,0,1123.72,-660.437,-0.851562,0.0078125,848.209,968167
-0.0158691,0.032959,1.09491,-11.4098,-8.51929,104.513,9.89053,0.990005,0,1026.33,-581.209,-0.851562,0.0078125,848.229,968182
0.207458,-0.0963135,1.16766,1.21704,2.73834,99.1888,9.8927,0.998734,0,1006.34,-590.267,-0.851562,0.0078125,848.249,968197
-0.010498,0.019104,0.840454,1.21704,1.21704,89.3004,9.8972,1.0155,0,923.83,-655.673,-0.851562,0.0078125,848.269,968227
-0.0537109,-0.0469971,1.20508,-2.73834,-3.0426,86.2578,9.89951,1.02377,0,1015.07,-732.628,-0.84375,0.0078125,848.289,968242
0.0258789,-0.0930786,0.954285,2.58621,-8.36716,82.9109,9.90178,1.03192,0,1097.15,-694.155,-0.835938,0.0078125,848.309,968257
0.0335083,0.079895,1.11395,0.760651,11.2576,74.2395,9.90631,1.04756,0,1084.6,-699.374,-0.835938,0.0078125,848.329,968287
-0.0540771,0.0558472,0.950562,-5.32455,-6.08521,67.5458,9.90875,1.05524,0,1144.89,-723.092,-0.773438,0.0078125,848.35,968302
0.0983276,-0.185791,0.972595,6.08521,-4.71603,64.9596,9.91118,1.06277,0,979.144,-720.254,-0.570312,0.0078125,848.369,968317
0.198059,0.0327759,0.953125,7.60651,5.32455,55.2232,9.91597,1.07736,0,1032.58,-757.346,-0.15625,0.0078125,848.389,968347
0.263245,0.00970459,0.758179,-0.760651,0.30426,49.5944,9.91859,1.08421,0,934.143,-839.983,-0.0078125,0.0078125,848.409,968362
0.413513,0.186584,1.12738,-10.0406,5.62881,35.4463,9.92155,1.09062,0,712.175,-758.668,-0.0078125,0.0078125,848.429,968377
0.177368,0.182495,0.975159,4.41177,5.02029,7.75864,9.92862,1.10208,0,780.092,-853.133,-0.0078125,0.0078125,848.449,968407
0.0865479,0.185425,0.558228,3.19473,-6.99799,-3.34686,9.93265,1.10751,0,744.934,-746.157,-0.0078125,0.0078125,848.47,968422
0.00109863,0.344604,1.36218,-1.97769,7.45438,-8.0629,9.93709,1.11295,0,701.484,-766.049,-0.0078125,0.0078125,848.49,968437
-0.0410767,0.151733,0.991577,-8.97568,-0.45639,0.15213,9.94667,1.12416,0,759.532,-835.596,-0.0078125,0.0078125,848.509,968467
0.0440063,0.0838013,0.855286,-1.67343,7.75864,1.82556,9.95172,1.12982,0,702.79,-860.215,-0.0078125,0.0078125,848.529,968482
-0.060791,0.0738525,0.81366,-2.89047,-0.30426,0.912781,9.95688,1.13548,0,640.985,-715.666,-0.0078125,0.0078125,848.549,968497
0.0333862,0.247803,0.653198,8.82355,7.60651,-1.5213,9.96777,1.14708,0,637.592,-749.906,-0.0078125,0.0078125,848.57,968527
0.0244141,0.219849,1.20038,-6.23734,6.23734,0.912781,9.97369,1.15294,0,658.025,-618.582,-0.0078125,0.0078125,848.592,968542
0.0700073,0.155457,0.930115,3.19473,-4.5639,1.82556,9.99284,1.17036,0,590.65,-577.151,-0.0078125,0.0078125,848.629,968587
0.0280151,0.0925293,0.951355,5.02029,4.5639,-0.15213,9.99963,1.1761,0,583.363,-629.901,-0.0078125,0.0078125,848.653,968602
0.012207,0.157043,1.12726,-0.30426,2.28195,1.82556,10.0066,1.18181,0,608.162,-602.519,-0.0078125,0.0078125,848.668,968617
0.0524292,0.175354,0.849365,-0.912781,-0.15213,2.89047,10.0213,1.19327,0,519.818,-533.903,-0.0078125,0.0078125,848.689,968647
0.0574341,0.0951538,0.942505,-0.760651,-4.25964,0.45639,10.029,1.19894,0,502.437,-542.873,-0.0078125,0.0078125,848.709,968662
-0.134949,0.160706,0.855591,6.08521,-2.12982,0.45639,10.0368,1.2047,0,572.213,-555.463,-0.0078125,0.0078125,848.729,968677
0.0401001,0.081604,0.806519,0.15213,2.73834,0.760651,10.0529,1.21628,0,486.228,-482.754,-0.0078125,0.0078125,848.749,968707
-0.0519409,0.120239,1.02722,-2.12982,-2.43408,-1.36917,10.0611,1.22205,0,521.853,-440.771,-0.0078125,0.0078125,848.769,968722
-0.000793457,0.0960083,1.02051,1.21704,0.760651,-0,10.0694,1.22784,0,511.404,-487.104,-0.0078125,0.0078125,848.789,968736
0.0604248,0.0930176,0.989624,0.912781,-3.65112,-0.15213,10.0866,1.23947,0,532,-471.676,-0.0078125,0.0078125,848.809,968766
-0.00402832,0.115417,0.949585,-0,1.21704,-1.67343,10.0955,1.24524,0,439.976,-428.467,-0.0078125,0.0078125,848.828,968782
-0.0769653,0.122009,0.957275,0.45639,0.45639,-0.912781,10.1044,1.25107,0,467.039,-474.091,0,0.0078125,848.848,968796
-0.0012207,0.113037,0.875549,-1.06491,0.15213,-0.30426,10.1226,1.26268,0,442.145,-452.683,0.0472441,0.0078125,848.869,968826
-0.010498,0.15033,1.09711,-2.28195,-2.89047,0.15213,10.1319,1.26268,0,293.397,-407.564,0.133858,0.0078125,848.889,968842
0.0509033,0.195496,0.932312,-0.912781,1.21704,-0.760651,10.1414,1.26268,0,218.21,-428.78,0.251969,0.0078125,848.91,968856
0.123413,0.284119,0.78064,4.25964,-1.67343,-10.497,10.1613,1.26263,0,159.718,-324.87,0.314961,0.0078125,848.928,968886
0.102661,0.367615,1.01459,0.45639,-1.82556,-14.4524,10.172,1.26256,0,61.7812,-255.47,0.377953,0.0078125,848.949,968902
0.0455322,0.271851,1.03619,1.21704,-1.21704,-16.8864,10.2189,1.26241,0,61.7812,-203.82,0.440945,0.0078125,849.003,968962
0.0455322,0.271851,1.03619,1.21704,-1.21704,-16.8864,10.2189,1.26241,0,61.7812,-179.29,0.440945,0.0078125,849.005,968962
0.0455322,0.271851,1.03619,1.21704,-1.21704,-16.8864,10.2189,1.26241,0,61.7812,-154.812,0.472441,0.0078125,849.011,968962
0.0869141,0.199402,0.959473,1.5213,-0.45639,-20.8418,10.2315,1.26237,0,-5.93005,-94.1256,0.488189,-0.15748,849.029,968976
0.0098877,0.36322,1.01996,-2.43408,-2.73834,-15.3651,10.2577,1.26262,0,-125.652,-62.33,0.488189,-0.204724,849.049,969006
0.00866699,0.337402,0.93219,3.0426,0.45639,-13.6917,10.2999,1.26396,0,-192.875,147.107,0.488189,-0.251969,849.098,969051
-0.0888672,0.325623,0.954163,-0.30426,-0,-12.1704,10.3147,1.26466,0,-201.501,160.773,0.488189,-0.283465,849.11,969066
-0.206421,0.481262,0.902893,-1.67343,1.97769,-7.91077,10.3297,1.2657,0,-232.607,167.615,0.488189,-0.291339,849.13,969082
-0.0567627,0.308105,1.01428,0.15213,2.28195,-1.82556,10.3452,1.26703,0,-262.591,235.422,0.488189,-0.291339,849.149,969096
-0.0500488,0.25415,0.957092,-0.760651,0.608521,-3.19473,10.3768,1.27013,0,-318.218,278.369,0.488189,-0.291339,849.169,969126
0.0762939,0.29071,0.89856,0.15213,1.21704,-3.19473,10.393,1.27179,0,-309.148,281.583,0.488189,-0.291339,849.189,969142
0.0307617,0.17749,0.957886,-0.45639,2.12982,-1.97769,10.4094,1.27179,0,-362.957,361.343,0.488189,-0.291339,849.209,969156
0.0219116,0.21344,0.886475,-0.912781,0.608521,-4.10751,10.4427,1.27179,0,-412.652,385.408,0.488189,-0.291339,849.229,969186
-0.124756,0.210205,0.952942,-1.36917,0.30426,-5.32455,10.4596,1.27188,0,-397.654,368.48,0.488189,-0.291339,849.25,969202
-0.0614014,0.175964,0.867615,3.19473,1.21704,-2.89047,10.4766,1.27213,0,-421.292,424.133,0.488189,-0.291339,849.269,969216
0.0662231,0.126343,0.998535,1.5213,-1.36917,-5.47668,10.5109,1.27267,0,-463.886,361.631,0.488189,-0.291339,849.289,969246
-0.0511475,0.136108,0.923706,1.97769,2.58621,-4.41177,10.5282,1.27292,0,-503.893,478.309,0.488189,-0.291339,849.309,969262
-0.0239258,0.131775,1.04956,-1.67343,-0.15213,-3.49899,10.5455,1.27318,0,-455.882,528.178,0.488189,-0.291339,849.329,969276
-0.0307007,0.100281,0.875977,0.608521,2.28195,-4.86816,10.5803,1.27368,0,-522.807,498.43,0.488189,-0.291339,849.351,969306
-0.0180664,0.16095,0.94165,-2.58621,1.82556,-4.71603,10.5977,1.27394,0,-498.591,443.076,0.488189,-0.291339,849.369,969322
-0.0179443,0.0340576,1.05164,-2.73834,0.760651,-6.23734,10.6152,1.2742,0,-600.763,392.395,0.488189,-0.291339,849.389,969336
0.00756836,-0.00183105,0.859375,0.912781,-1.21704,-10.0406,10.6501,1.27432,0,-541.8,544.307,0.488189,-0.291339,849.409,969366
-0.122742,0.0508423,1.27612,-3.80325,-4.41177,-9.27994,10.6674,1.27431,0,-545.822,491.28,0.488189,-0.291339,849.429,969382
0.155396,0.0548706,0.631836,4.71603,5.78094,-7.15012,10.6847,1.27425,0,-579.492,516.823,0.488189,-0.291339,849.449,969396
-0.0359497,0.0794678,0.877563,0.760651,1.36917,-5.02029,10.7191,1.27405,0,-555.602,426.03,0.488189,-0.291339,849.469,969426
-0.0828857,0.116699,1.01367,-2.58621,-1.21704,-7.60651,10.7362,1.27402,0,-531.378,515.823,0.488189,-0.291339,849.489,969441
0.0020752,0.0109253,0.762634,3.19473,0.30426,-6.99799,10.7533,1.27403,0,-562.62,541.961,0.488189,-0.291339,849.509,969456
-0.126465,0.0479736,1.30444,1.21704,3.19473,-5.93307,10.7874,1.27356,0,-518.376,440.422,0.488189,-0.291339,849.529,969486
0.0338135,0.126038,0.655762,2.12982,4.10751,-4.86816,10.8044,1.2733,0,-540.219,490.906,0.488189,-0.291339,849.555,969501
-0.0527344,0.0656128,0.978577,4.5639,-0,-5.78094,10.8383,1.27271,0,-572.688,581.362,0.488189,-0.291339,849.572,969531
0.0842896,0.0995483,0.901733,-0.760651,-3.49899,-3.49899,10.8552,1.27237,0,-567.247,510.621,0.488189,-0.291339,849.591,969546
0.0178223,-0.052002,1.02649,2.43408,0.608521,-5.78094,10.872,1.27191,0,-563.587,572.918,0.488189,-0.291339,849.609,969561
-0.150208,0.132202,0.922852,1.21704,3.34686,-5.17242,10.8888,1.27148,0,-496.056,499.75,0.488189,-0.291339,849.629,969576
-0.0966797,0.0908203,0.88623,-0,-4.10751,-5.93307,10.9222,1.27072,0,-520.007,411.59,0.488189,-0.291339,849.649,969606
-0.0268555,0.137756,1.05194,-3.49899,-4.5639,-4.25964,10.9389,1.27042,0,-570.89,291.639,0.488189,-0.291339,849.669,969621
0.0579834,0.0358887,0.958984,3.65112,0.760651,-3.49899,10.9557,1.27005,0,-429.59,624.239,0.488189,-0.291339,849.689,969636
-0.100708,-0.0250854,0.829895,5.78094,1.06491,-6.08521,10.9892,1.26912,0,-571.788,575.424,0.488189,-0.291339,849.708,969666
0.0523682,0.060791,1.00293,-5.17242,-0.608521,-5.47668,11.0058,1.26862,0,-570.386,493.316,0.488189,-0.299213,849.729,969681
0.0333862,0.0250854,1.00049,4.5639,1.21704,-6.08521,11.0225,1.26802,0,-649.351,582.394,0.488189,-0.314961,849.749,969696
-0.169128,0.149109,1.01428,-3.49899,-8.82355,-7.75864,11.0554,1.26672,0,-639.141,659.587,0.488189,-0.322835,849.769,969726
-0.00866699,0.0300293,0.945801,3.49899,3.0426,-4.10751,11.0719,1.2662,0,-554.508,527.691,0.488189,-0.338583,849.789,969741
0.0346069,0.122314,0.964844,-7.45438,-2.58621,-4.71603,11.0883,1.26564,0,-593.049,549.345,0.488189,-0.338583,849.809,969756
0.0966797,-0.0164185,0.775757,-1.06491,0.912781,-3.49899,11.1211,1.26434,0,-578.905,637.735,0.488189,-0.338583,849.829,969786
-0.0939331,0.0668335,0.892029,-2.73834,8.82355,-3.95538,11.1374,1.2636,0,-613.403,542.962,0.488189,-0.338583,849.849,969801
0.0714722,0.0571899,1.03394,1.67343,2.89047,-2.58621,11.1537,1.26283,0,-627.018,640.964,0.488189,-0.338583,849.869,969816
0.0447388,0.0428467,0.859924,4.10751,8.67142,-3.95538,11.1864,1.26097,0,-637.796,634.538,0.488189,-0.338583,849.889,969846
-0.0870972,0.0635986,1.22394,-5.02029,-2.28195,-5.17242,11.2027,1.25996,0,-678.265,512.926,0.488189,-0.338583,849.909,969861
-0.0255737,0.0494995,0.952148,4.71603,4.25964,-5.02029,11.2511,1.25706,0,-604.266,643.791,0.488189,-0.338583,849.946,969906
-0.0255737,0.0494995,0.952148,4.71603,4.25964,-5.02029,11.2511,1.25706,0,-628.694,611.154,0.488189,-0.338583,849.956,969906
-0.0548096,0.105286,1.13922,0.45639,1.97769,-5.17242,11.2672,1.25496,0,-595.539,583.294,0.488189,-0.338583,849.983,969936
-0.0548096,0.105286,1.13922,0.45639,1.97769,-5.17242,11.2672,1.25496,0,-633.533,540.818,0.488189,-0.338583,849.989,969936
-0.0979614,0.0426636,1.0307,-3.0426,0.912781,-4.25964,11.267,1.25278,0,-612.164,588.287,0.503937,-0.275591,850.009,969966
-0.0203247,0.0255127,0.839172,1.36917,-0,-4.86816,11.2669,1.25169,0,-655.158,645.849,0.551181,-0.0787402,850.029,969981
-0.0563354,0.0667725,1.0636,-4.25964,-0.760651,-5.32455,11.2666,1.25064,0,-705.268,477.578,0.566929,-0,850.049,969996
0.262085,-0.190063,0.978088,-3.65112,0.15213,-14.6045,11.266,1.24788,0,-742.28,588.062,0.574803,0.0078125,850.069,970026
0.0368042,0.00927734,0.911072,1.97769,-3.19473,-22.3631,11.2655,1.24602,0,-669.21,490.689,0.582677,0.0078125,850.089,970041
-0.0463257,0.162903,1.00171,-9.12781,-0.760651,-16.1258,11.2651,1.24414,0,-592.716,517.13,0.590551,0.0078125,850.109,970056
0.0149536,0.00512695,0.691528,5.47668,3.49899,-7.45438,11.2642,1.2406,0,-619.253,546.642,0.606299,0.0078125,850.129,970086
0.00543213,0.170898,1.34326,-4.10751,-3.0426,-10.0406,11.2638,1.2388,0,-738.962,688.8,0.614173,0.0078125,850.149,970101
-0.106567,0.0532837,0.782288,7.45438,5.93307,-7.45438,11.2634,1.23706,0,-711.44,598.337,0.629921,0.0078125,850.169,970116
-0.0722046,0.137634,1.08557,1.82556,-2.58621,-6.84586,11.2626,1.23372,0,-663.658,603.847,0.637795,0.0078125,850.189,970146
-0.0630493,-0.0420532,0.451599,12.0183,10.8012,-8.82355,11.2622,1.23213,0,-637.471,595.628,0.645669,0.0078125,850.209,970161
0.0576172,0.06073,0.761475,5.62881,12.6268,-10.1927,11.2612,1.22926,0,-658.588,816.526,0.685039,0.0078125,850.231,970191
0.0205078,0.0857544,1.15363,-6.08521,-6.5416,-10.9534,11.2608,1.22781,0,-752.021,637.125,0.716535,0.0078125,850.249,970206
0.00976562,0.0283203,0.93396,5.93307,7.30225,-11.1055,11.2604,1.2263,0,-785.423,713.725,0.76378,0.0078125,850.269,970221
0.134216,0.0844727,1.07977,-3.19473,-7.45438,-12.4747,11.26,1.22469,0,-820.782,594.742,0.787402,0.0078125,850.288,970236
-0.0657349,0.147278,1.26373,-1.06491,-2.58621,-14.7566,11.2595,1.22128,0,-726.665,554.739,0.795276,0.0625,850.309,970266
0.046875,0.0354614,0.571289,1.21704,6.99799,-14.7566,11.2593,1.21962,0,-777.575,505.178,0.811024,0.148438,850.328,970281
0.320618,-0.342346,1.1618,0.15213,-1.67343,-32.2516,11.2589,1.21547,0,-801.507,392.165,0.834646,0.320312,850.35,970311
0.380737,-0.273987,0.741272,-0.608521,-1.5213,-54.3105,11.2583,1.21252,0,-794.628,265.076,0.866142,0.429688,850.369,970326
0.422485,-0.358826,1.09357,-15.213,-5.78094,-66.9373,11.2575,1.20885,0,-829.394,162.639,0.874016,0.523438,850.389,970341
0.347717,-0.138428,0.96167,-1.82556,1.67343,-94.0164,11.2553,1.19978,0,-961.076,26.5702,0.88189,0.554688,850.419,970371
0.383545,-0.427246,1.2674,1.5213,-1.06491,-110.751,11.254,1.19435,0,-924.471,26.5702,0.88189,0.570312,850.43,970386
0.254822,-0.290771,0.676575,3.19473,7.30225,-127.181,11.2524,1.18829,0,-868.697,10.1175,0.88189,0.578125,850.448,970401
0.339783,-0.178833,1.00745,-8.67142,-12.9311,-139.047,11.2506,1.18173,0,-913.492,-73.4336,0.88189,0.601562,850.469,970416
0.475403,-0.359741,0.793823,5.62881,5.32455,-161.258,11.2467,1.16704,0,-869.301,-76.5257,0.88189,0.601562,850.494,970445
0.274475,-0.282654,0.701294,6.08521,6.5416,-181.339,11.2424,1.14996,0,-828.02,-170.965,0.88189,0.601562,850.522,970475
0.343323,-0.124268,0.843018,-1.06491,-3.80325,-190.771,11.2401,1.1407,0,-991.129,-160.555,0.88189,0.609375,850.533,970490
0.417725,-0.137939,1.0965,-5.62881,-10.6491,-199.899,11.238,1.13094,0,-915.081,-136.525,0.88189,0.617188,850.549,970505
0.0566406,-0.109741,0.984497,8.82355,8.82355,-205.832,11.2358,1.12086,0,-809.422,-182.027,0.88189,0.625,850.569,970521
0.101868,0.0139771,0.942505,-1.82556,-5.62881,-208.266,11.2335,1.1107,0,-819.068,-215.813,0.88189,0.625,850.59,970535
0.129883,-0.0228271,1.16077,-2.28195,-12.1704,-223.783,11.2293,1.09006,0,-816.793,-323.06,0.88189,0.625,850.609,970565
0.0404053,0.0342407,0.966614,3.34686,-6.23734,-235.193,11.2293,1.07964,0,-785.855,-253.203,0.88189,0.625,850.629,970581
0.308533,0.179749,0.906677,5.17242,-0,-241.735,11.2295,1.06918,0,-774.893,-332.27,0.88189,0.625,850.649,970595
0.00775146,0.130066,1.10352,9.27994,11.2576,-248.885,11.2306,1.04846,0,-717.463,-429.479,0.88189,0.625,850.67,970625
0.298279,0.0175781,1.09778,-6.08521,0.30426,-256.187,11.2314,1.03816,0,-778.18,-336.655,0.88189,0.625,850.689,970641
0.186157,0.317688,0.966858,-1.67343,3.80325,-264.098,11.2335,1.01768,0,-755.487,-366.529,0.88189,0.625,850.718,970670
0.19458,0.00408936,0.786804,9.88846,14.3002,-269.879,11.235,1.00757,0,-735.159,-446.389,0.88189,0.625,850.729,970685
-0.0475464,0.381104,1.43201,2.89047,5.17242,-271.704,11.2366,0.997665,0,-756.315,-383.759,0.88189,0.625,850.749,970701
-0.0976562,0.135559,0.417664,14.6045,30.2739,-269.727,11.2383,0.988144,0,-693.049,-434.603,0.88189,0.625,850.769,970715
0.0628662,0.196472,1.23505,2.73834,-3.95538,-275.356,11.242,0.969604,0,-785.299,-431.77,0.88189,0.625,850.789,970745
0.15979,0.198853,0.811035,10.0406,6.84586,-278.398,11.2441,0.960617,0,-845.845,-503.499,0.88189,0.632812,850.809,970761
-0.0706787,0.266296,0.896057,-9.12781,-22.3631,-280.224,11.2464,0.951904,0,-769.764,-525.831,0.88189,0.632812,850.829,970775
0.06427,0.266785,1.00787,-1.06491,2.73834,-282.658,11.2509,0.935593,0,-794.218,-505.216,0.88189,0.632812,850.849,970805
-0.0281982,0.23407,1.00415,1.5213,7.75864,-285.244,11.2532,0.927933,0,-875.81,-544.455,0.724409,0.632812,850.869,970821
0.0859985,0.217224,0.63147,10.0406,6.84586,-288.134,11.2556,0.920578,0,-780.062,-447.157,0.393701,0.476562,850.889,970835
0.0432129,0.275696,1.45386,-6.5416,-1.36917,-294.676,11.2606,0.906921,0,-616.295,-515.517,0.181102,0.375,850.909,970865
0.0343628,0.175171,0.650024,14.7566,18.2556,-293.915,11.2631,0.900574,0,-454.38,-528.136,-0.0546875,0.21875,850.929,970881
-0.0510864,0.210083,0.820679,4.41177,6.23734,-288.134,11.2656,0.894501,0,-324.939,-382.431,-0.171875,0.1875,850.95,970895
-0.438171,0.241943,0.946777,0.912781,5.47668,-254.514,11.2699,0.88327,0,-200.775,-372.835,-0.289062,0.1875,850.97,970925
-0.482727,0.205566,0.932068,-1.5213,-1.21704,-237.779,11.2712,0.878235,0,-135.905,-461.808,-0.476562,0.257812,850.989,970941
-0.828491,-0.0430908,0.719055,0.45639,2.28195,-224.696,11.2716,0.873459,0,-75.513,-403.934,-0.617188,0.304688,851.009,970955
-0.583984,-0.341431,0.608582,13.3875,-11.8661,-174.189,11.269,0.863724,0,-15.4425,-372.003,-0.804688,0.328125,851.029,970985
-0.574341,0.0630493,1.83563,-19.7769,20.6897,-148.631,11.2664,0.858643,0,139.835,-397.464,-0.898438,0.328125,851.049,971001
-0.783875,-0.115906,0.811951,-7.30225,3.19473,-123.986,11.2628,0.853622,0,329.544,-489.704,-0.945312,0.335938,851.069,971015
-0.813782,-0.250061,0.926025,3.19473,-4.10751,-73.3267,11.2525,0.842972,0,492.951,-494.242,-0.960938,0.335938,851.089,971045
-0.729492,-0.210754,1.05688,-0,-2.28195,-46.7039,11.2457,0.83728,0,525.376,-473.799,-0.960938,0.335938,851.109,971061
-0.568115,-0.250122,0.810486,-1.36917,-2.28195,-24.9493,11.2381,0.831329,0,612.989,-496.808,-0.96875,0.25,851.13,971075
-0.397827,-0.231384,0.940369,-4.5639,3.19473,13.2353,11.2205,0.818695,0,673.854,-414.714,-0.96875,0.25,851.15,971105
-0.240051,-0.252625,0.833313,-0.30426,15.8215,21.9067,11.2109,0.811981,0,715.461,-524.742,-0.984375,0.21875,851.169,971120
-0.105408,-0.0948486,1.14874,-5.02029,3.19473,25.2536,11.2012,0.805069,0,875.81,-485.437,-1,0.203125,851.189,971135
-0.14978,-0.0691528,0.86908,-2.43408,-0.45639,39.0974,11.1814,0.790878,0,929.973,-488.974,-1,0.203125,851.21,971165
-0.18866,-0.0338135,0.982788,-0.30426,-0.760651,46.2476,11.1713,0.783707,0,973.52,-599.413,-1,0.203125,851.229,971180
-0.187378,-0.0317993,0.85968,-4.25964,-8.67142,51.42,11.161,0.783707,0,1012.3,-532.127,-1,0.203125,851.249,971195
-0.191956,-0.046936,1.08325,-4.5639,3.34686,59.7871,11.1397,0.783386,0,938.615,-564.048,-1,0.203125,851.269,971225
-0.183411,-0.0526733,0.954529,-3.34686,-8.51929,62.3734,11.1288,0.783173,0,855.615,-532.793,-1,0.203125,851.29,971240
-0.237488,0.053894,0.857849,5.02029,-0,68.4586,11.1061,0.783234,0,924.343,-476.054,-1,0.203125,851.313,971270
0.0234985,-0.0168457,0.96936,-9.73633,7.45438,71.9576,11.0945,0.783371,0,1025.75,-563.016,-1,0.203125,851.329,971285
-0.0327759,-0.000671387,0.784119,1.06491,-0.608521,73.4789,11.0829,0.783539,0,1002.2,-545.063,-1,0.203125,851.35,971300
-0.0214233,-0.0402222,1.09222,-3.95538,6.99799,75.6087,11.0714,0.783707,0,1008.22,-519.265,-1,0.203125,851.369,971315
-0.189087,-0.0849609,1.33313,-10.0406,-15.8215,81.3896,11.048,0.784012,0,984.3,-648.34,-1,0.203125,851.389,971345
-0.20929,0.072998,0.953125,1.97769,2.28195,81.5417,11.0361,0.784225,0,1128.35,-526.773,-1,0.203125,851.409,971360
-0.23114,-0.0625,0.546143,0.760651,-11.1055,81.6939,11.0238,0.784515,0,1058.37,-527.482,-1,0.203125,851.429,971375
0.0252686,0.0518188,1.18866,2.73834,3.0426,85.345,10.9991,0.785217,0,1083.25,-587.009,-1,0.203125,851.449,971405
0.0177612,-0.0478516,1.41284,-1.67343,3.65112,89.3004,10.9869,0.785645,0,1075.21,-510.152,-1,0.203125,851.469,971420
0.0202637,-0.0203857,1.00922,4.10751,0.912781,89.4525,10.9748,0.786057,0,1112.29,-572.033,-1,0.203125,851.489,971435
0.0701904,-0.0776978,0.640747,3.34686,-12.0183,92.7994,10.9509,0.786774,0,1225.49,-505.229,-1,0.203125,851.509,971465
-0.15979,0.0645142,1.08551,-2.43408,-8.36716,93.2558,10.9389,0.787125,0,1271.29,-559.19,-1,0.203125,851.529,971480
-0.0354004,0.0352173,0.681213,-2.73834,-1.82556,91.7345,10.927,0.787582,0,1152.14,-534.559,-1,0.203125,851.55,971495
-0.0144653,0.0336914,0.940308,-5.93307,4.41177,95.5377,10.927,0.788956,0,1209.77,-518.229,-1,0.203125,851.569,971525
0.137024,0.0067749,1.38715,2.12982,4.86816,98.1239,10.9272,0.789749,0,1173.16,-577.801,-1,0.203125,851.589,971540
-0.228027,0.182129,0.449524,11.4098,9.43207,97.2112,10.9274,0.790695,0,978.713,-559.597,-1,0.203125,851.609,971555
0.246399,-0.132202,0.856018,12.7789,3.95538,98.5803,10.9281,0.792801,0,1121.64,-503.005,-1,0.203125,851.629,971585
0.0359497,0.0139771,0.827759,5.32455,10.9534,100.406,10.9288,0.793686,0,1171.44,-547.405,-1,0.203125,851.649,971600
0.223755,-0.010437,1.25854,0.45639,7.15012,100.254,10.9297,0.794525,0,1083.42,-562.272,-1,0.203125,851.669,971615
-0.06604,-0.0542603,0.686462,-12.1704,0.45639,100.406,10.932,0.796173,0,1140.06,-479.605,-1,0.203125,851.69,971645
-0.131714,0.0563354,0.995178,4.71603,-1.82556,97.2112,10.9344,0.798004,0,1192.39,-540.468,-1,0.203125,851.718,971675
-0.131714,0.0563354,0.995178,4.71603,-1.82556,97.2112,10.9344,0.798004,0,1156.67,-589.206,-1,0.203125,851.729,971675
0.111938,-0.0078125,1.23846,-13.5396,-0,98.4282,10.9371,0.800034,0,1183.92,-607.552,-1,0.203125,851.749,971705
0.19519,-0.0973511,1.24719,13.996,13.996,98.2761,10.9388,0.800888,0,1177.58,-658.241,-1,0.203125,851.769,971720
-0.134888,0.0231934,0.678833,14.3002,5.32455,96.6026,10.9407,0.801682,0,1200.12,-563.349,-1,0.203125,851.789,971735
1.1015,-0.0927124,1.99994,0.760651,-10.3448,93.56,10.9453,0.803162,0,1204.31,-570.483,-1,0.203125,851.809,971765
-0.0365601,0.0543823,-0.385925,73.9352,51.8764,98.5803,10.9487,0.803436,0,1154.07,-430.33,-1,0.203125,851.83,971780
-0.509644,-0.0393677,0.717163,-79.4119,31.9473,99.6452,10.9518,0.803864,0,1221.3,-543.404,-1,0.296875,851.849,971795
0.0871582,-0.456116,-0.412781,53.7019,-25.2536,100.862,10.9578,0.805847,0,1229.63,-556.731,-1,0.367188,851.869,971825
0.158447,0.351501,1.79877,-7.91077,32.4037,97.9718,10.961,0.806747,0,1125.68,-680.041,-1,0.414062,851.889,971840
0.110229,-0.132996,0.832458,9.5842,-3.19473,95.0813,10.9646,0.807693,0,1212.12,-507.46,-1,0.445312,851.909,971855
-0.101074,0.0362549,0.793762,-5.17242,-0.912781,85.1929,10.9715,0.80957,0,1221.3,-793.179,-1,0.46875,851.929,971885
0.100952,-0.0109253,0.966187,5.47668,8.51929,81.5417,10.9749,0.810593,0,1214.4,-815.228,-1,0.46875,851.949,971900
0.0948486,-0.0934448,1.24371,-8.97568,-16.2779,76.3693,10.9822,0.812378,0,1090.51,-874.126,-1,0.46875,851.97,971930
0.136902,-0.0576782,1.09668,0.912781,13.3875,70.5884,10.986,0.813065,0,1152.74,-861.03,-1,0.46875,851.989,971945
0.0429688,-0.0159302,0.63678,-4.5639,4.10751,66.9373,10.99,0.813644,0,1260,-918.105,-1,0.46875,852.009,971960
0.118225,-0.168518,0.836609,1.06491,5.47668,61.6127,10.9984,0.814285,0,1150.48,-911.245,-1,0.40625,852.031,971990
-0.00390625,0.0734863,1.99994,-11.5619,5.17242,55.5275,11.0028,0.814392,0,1174.54,-911.951,-1,0.390625,852.049,972005
-0.0511475,-0.112488,0.497314,19.6248,-10.9534,53.8541,11.0072,0.814499,0,1116.94,-949.848,-1,0.382812,852.069,972020
0.0543213,-0.026123,0.594604,-4.86816,-11.2576,56.2881,11.0116,0.814545,0,1140.97,-906.454,-1,0.382812,852.089,972035
-0.0502319,0.222961,1.69812,0.15213,1.97769,56.8967,11.0204,0.814575,0,1334.49,-904.445,-1,0.382812,852.109,972065
-0.107605,0.0441895,0.237305,9.43207,-19.7769,59.7871,11.0248,0.81485,0,1150.48,-918.442,-1,0.382812,852.129,972080
0.226868,0.221619,1.8017,-31.0345,17.1907,62.9819,11.0295,0.815231,0,1407.95,-1021.82,-1,0.382812,852.149,972095
-0.0236816,0.0558472,1.24225,-0.912781,12.9311,61.4606,11.0399,0.816498,0,1249.61,-751.399,-1,0.382812,852.17,972124
-0.212402,0.0571899,0.680664,3.80325,-10.6491,61.4606,11.0451,0.817368,0,1295.59,-951.656,-1,0.382812,852.189,972140
-0.0579834,0.0715332,1.35693,-11.1055,-8.21503,63.2861,11.0503,0.81842,0,1140.84,-941.487,-1,0.445312,852.209,972154
0.204651,0.0316772,1.36163,-3.49899,16.2779,65.2638,11.0607,0.820465,0,1263.1,-824.402,-1,0.460938,852.229,972184
-0.0578003,0.0699463,0.545654,0.760651,-6.38947,64.6553,11.0662,0.821442,0,1087.13,-926.999,-1,0.46875,852.249,972200
0.168152,-0.128418,1.04858,-7.60651,2.12982,63.7425,11.0717,0.822327,0,1307.45,-913.159,-1,0.46875,852.269,972214
-0.0172119,-0.0215454,0.634094,-9.43207,6.5416,52.4849,11.0882,0.825119,0,1213.52,-994.58,-1,0.46875,852.307,972260
-0.0172119,-0.0215454,0.634094,-9.43207,6.5416,52.4849,11.0882,0.825119,0,1180.78,-992.014,-1,0.46875,852.309,972260
-0.129883,-0.0366211,1.13403,-8.0629,-5.93307,48.0731,11.1045,0.827835,0,1252.58,-856.494,-1,0.46875,852.354,972304
-0.207336,0.0605469,1.22699,-8.67142,6.08521,43.0528,11.1154,0.829391,0,1255.89,-1033.27,-1,0.304688,852.378,972334
-0.207336,0.0605469,1.22699,-8.67142,6.08521,43.0528,11.1154,0.829391,0,1245.33,-952.88,-1,0.25,852.389,972334
-0.0306396,-0.00360107,1.08856,-2.89047,-6.69373,43.3571,11.1262,0.831436,0,1379.98,-714.95,-1,0.234375,852.409,972364
0.131653,0.180847,1.52765,-19.7769,6.84586,44.422,11.1318,0.832535,0,1333.51,-644.995,-1,0.234375,852.429,972380
-0.128601,0.071106,0.967651,21.9067,14.6045,48.5295,11.1376,0.833755,0,1310.53,-713.14,-1,0.234375,852.449,972394
-0.223572,0.127991,1.53906,-4.25964,-15.5173,62.0691,11.1488,0.836914,0,1250.23,-731.636,-1,0.234375,852.469,972424
-0.10907,0.076355,0.710388,2.73834,-2.89047,66.633,11.1543,0.838852,0,1267.59,-725.61,-1,0.234375,852.489,972440
0.0419312,0.0229492,0.764099,1.82556,5.47668,72.1097,11.1656,0.842896,0,1308.99,-480.088,-1,0.234375,852.511,972469
-0.12207,0.213196,0.983215,2.89047,-3.0426,75.1523,11.1715,0.845047,0,1256.52,-725.005,-1,0.234375,852.529,972484
-0.0919189,0.0988159,0.985046,1.97769,4.86816,79.2598,11.1774,0.847427,0,1316.57,-785.639,-1,0.234375,852.549,972500
-0.152527,0.175537,1.06866,-8.97568,-1.97769,83.6716,11.1893,0.852722,0,1347.8,-644.392,-1,0.234375,852.57,972529
-0.158081,-0.00195312,0.876038,7.30225,8.51929,85.1929,11.1953,0.855682,0,1428.27,-640.41,-1,0.234375,852.59,972544
-0.434204,0.11438,1.0603,1.82556,-10.6491,86.2578,11.2011,0.858948,0,1423.08,-679.417,-1,0.296875,852.609,972560
0.0877686,0.166565,1.06995,-21.2982,-6.5416,89.4525,11.2125,0.866028,0,1265.18,-720.955,-1,0.296875,852.629,972589
-0.257385,0.0267944,0.936584,19.3205,13.6917,89.4525,11.2183,0.86972,0,1246.88,-813.339,-1,0.296875,852.649,972604
-0.201538,0.032959,0.666504,-5.32455,2.12982,87.1706,11.224,0.873627,0,1315.44,-691.085,-1,0.296875,852.669,972620
-0.319214,0.111145,1.64069,9.5842,2.89047,85.1929,11.2353,0.882248,0,1291.74,-699.105,-1,0.304688,852.691,972649
-0.150818,0.10437,1.01166,12.6268,-6.5416,83.8237,11.2409,0.886993,0,1165.77,-768.994,-1,0.304688,852.709,972664
-0.263245,0.106689,0.461426,-2.12982,-1.36917,83.063,11.2464,0.892014,0,1313.46,-813.968,-1,0.3125,852.73,972680
0.0783691,0.239075,0.94574,9.12781,10.6491,83.063,11.2577,0.902161,0,1191.04,-835.038,-1,0.328125,852.749,972709
-0.278076,0.00750732,0.640259,-10.6491,3.49899,84.2801,11.2635,0.907379,0,1369.86,-810.373,-1,0.359375,852.777,972724
-0.102478,0.107239,0.705322,-6.08521,-12.0183,81.9981,11.2692,0.912811,0,1140.19,-696.961,-1,0.445312,852.79,972740
-0.0285645,0.127563,0.940552,11.2576,3.80325,78.0428,11.2809,0.923569,0,1104.48,-787.495,-1,0.523438,852.809,972769
-0.0774536,-0.126343,0.617188,-10.6491,-8.67142,77.2821,11.2868,0.928955,0,1215.36,-782.014,-1,0.632812,852.829,972784
-0.0925903,-0.0784912,1.12006,-7.45438,-10.3448,75.0002,11.2925,0.93428,0,1160.43,-924.684,-1,0.695312,852.849,972799
-0.0316162,-0.238037,0.749695,-6.38947,4.10751,69.0671,11.298,0.939514,0,1261.59,-1028.22,-1,0.710938,852.869,972814
0.0455322,-0.0599365,0.653748,20.8418,0.45639,49.2902,11.3088,0.949677,0,1296.01,-1053.74,-1,0.710938,852.889,972844
0.116394,-0.180054,0.474609,-13.2353,-2.89047,45.0305,11.3141,0.954514,0,1216.47,-1153.14,-1,0.710938,852.909,972859
0.308533,-0.0597534,1.8139,-13.3875,3.65112,41.5315,11.3195,0.958984,0,1338.69,-1054.3,-1,0.710938,852.929,972874
-0.00689697,-0.201233,0.720215,-4.25964,-13.3875,32.0995,11.3304,0.96701,0,1131.67,-958.405,-1,0.710938,852.949,972904
0.0430908,-0.0916748,1.02917,-6.08521,1.82556,25.8621,11.3357,0.970764,0,1380.93,-1074.69,-1,0.710938,852.97,972919
-0.0471802,-0.174683,0.659302,10.3448,3.19473,21.4503,11.346,0.978119,0,1230.16,-1161.31,-1,0.710938,852.99,972949
0.175415,-0.0380859,1.30316,-6.99799,-1.82556,17.9514,11.3511,0.981613,0,1178.97,-1280.74,-1,0.710938,853.009,972964
0.134521,-0.0910034,1.00244,2.89047,-3.19473,16.7343,11.3562,0.984848,0,1176.68,-1060.16,-1,0.710938,853.029,972979
0.123535,-0.0311279,0.860413,9.88846,8.67142,15.0609,11.3615,0.987885,0,1223.69,-1071.41,-1,0.71875,853.049,972994
0.0206299,-0.113159,0.947815,1.06491,-1.97769,9.12781,11.3723,0.993362,0,1295.84,-1251.56,-1,0.71875,853.07,973024
0.259521,-0.142029,0.61499,8.51929,15.5173,10.1927,11.3827,0.998688,0,1393.05,-848.464,-1,0.734375,853.095,973054
0.113037,-0.0924683,0.944458,-11.714,20.5376,8.0629,11.388,1.00099,0,1253.37,-1284.11,-1,0.757812,853.11,973069
-0.0142212,-0.0840454,0.198669,-2.89047,14.1481,10.8012,11.3932,1.00317,0,1276.32,-1288.33,-1,0.789062,853.13,973084
0.266174,0.113647,1.99994,14.9088,-1.5213,5.62881,11.3985,1.0052,0,1413.43,-1071.98,-1,0.796875,853.149,973099
0.983643,0.928894,1.99994,-104.209,43.6613,9.73633,11.4101,1.00821,0,1543.57,-1216.25,-1,0.804688,853.169,973129
0.338867,-0.308228,0.215637,68.7628,14.6045,2.73834,11.4172,1.00899,0,1270.65,-1304.89,-1,0.804688,853.189,973144
0.178955,-0.0905151,1.99994,-19.0163,47.6167,6.69373,11.4244,1.00932,0,1253.68,-1279.02,-1,0.804688,853.209,973159
0.00360107,-0.225342,-0.0513306,19.0163,4.86816,-1.36917,11.4314,1.00943,0,1228.88,-1283.7,-1,0.804688,853.229,973174
0.153687,-0.29126,-2,88.2355,-3.95538,0.760651,11.4508,1.0105,0,1317.7,-1254,-1,0.804688,853.264,973219
0.153687,-0.29126,-2,88.2355,-3.95538,0.760651,11.4508,1.0105,0,1455.5,-1351.99,-1,0.804688,853.27,973219
-0.240356,0.25238,1.53839,51.7242,10.1927,-2.28195,11.4628,1.01239,0,1456.77,-1283.04,-1,0.804688,853.289,973249
-0.265869,0.283386,0.135132,41.9879,-50.5072,-4.5639,11.469,1.01401,0,1367.33,-1585.16,-1,0.804688,853.31,973264
-0.146729,-0.0579224,0.674194,-52.7892,37.5761,1.82556,11.4752,1.01596,0,1329.17,-1374.29,-1,0.804688,853.328,973279
0.417786,-0.318237,0.0639648,59.0265,-20.8418,-3.49899,11.4883,1.01974,0,1354.65,-1078.28,-1,0.804688,853.349,973309
-0.190308,0.034668,0.485718,-51.42,46.0954,-2.28195,11.4949,1.02126,0,1336.81,-1494.66,-1,0.804688,853.369,973324
0.163513,0.297302,0.333679,11.1055,-3.0426,-4.86816,11.5017,1.02292,0,1516.88,-1329.7,-1,0.804688,853.389,973339
-0.0331421,-0.0442505,0.34259,15.213,18.8641,1.67343,11.516,1.0264,0,1337.79,-1323.01,-1,0.804688,853.409,973369
0.202637,0.0463867,1.19177,-35.2942,13.3875,4.41177,11.5233,1.02808,0,1409.44,-1382.36,-1,0.804688,853.429,973384
-0.196106,0.0174561,1.685,16.8864,3.80325,2.12982,11.5307,1.02977,0,1399.97,-1418.54,-1,0.804688,853.449,973399
-0.209106,-0.0943604,0.64679,14.7566,-19.7769,2.58621,11.5379,1.03168,0,1379.98,-1289.08,-1,0.8125,853.469,973414
-0.142029,0.17981,1.64941,-0.30426,-9.43207,-0.45639,11.5522,1.03618,0,1494.43,-1110.31,-1,0.8125,853.489,973444
-0.0358276,-0.055603,-0.118408,37.5761,-3.19473,-0.15213,11.5595,1.0387,0,1311.65,-1538.7,-1,0.8125,853.509,973459
-0.134644,0.186462,1.02405,-4.71603,0.45639,3.95538,11.5735,1.04378,0,1627.34,-1602.05,-1,0.8125,853.529,973489
0.254639,0.0693359,1.29541,4.71603,0.760651,3.80325,11.5808,1.0464,0,1464.66,-1439.47,-1,0.8125,853.55,973504
-0.184814,0.0198364,-0.369446,28.4483,-2.12982,4.86816,11.5882,1.04901,0,1388.41,-1648.26,-1,0.8125,853.569,973519
0.134949,-0.438416,1.86011,74.6959,28.7526,6.99799,11.6033,1.05119,0,1334.94,-1488.54,-1,0.8125,853.589,973549
-0.241455,0.117432,-0.21521,-17.3428,-1.82556,3.34686,11.6108,1.05161,0,1383.7,-1410.14,-1,0.8125,853.609,973564
0.137146,-0.0203247,0.748596,13.8438,25.8621,4.25964,11.6182,1.05211,0,1420.96,-1238.77,-1,0.8125,853.63,973579
-0.00891113,0.0098877,-0.211304,-4.41177,19.3205,1.5213,11.6332,1.05304,0,1732.95,-1556.18,-1,0.8125,853.65,973609
0.0718384,0.0733643,0.994019,1.21704,-15.0609,2.28195,11.6408,1.05351,0,1323.63,-1074.34,-1,0.820312,853.669,973624
-0.795593,0.12323,1.99994,-40.1624,49.7466,12.1704,11.6483,1.05447,0,1299.8,-1551.47,-1,0.828125,853.689,973639
0.494568,-0.384888,0.835754,3.80325,6.08521,5.62881,11.6557,1.05553,0,1561.77,-1508.07,-1,0.828125,853.71,973654
0.430603,0.189697,1.99994,-10.1927,2.89047,17.0386,11.6706,1.05634,0,1377.32,-1322.4,-1,0.828125,853.729,973684
0.153748,0.224792,0.307251,22.8195,-0.912781,10.9534,11.6787,1.05644,0,1561.16,-1416.43,-1,0.828125,853.749,973699
0.0129395,-0.161072,0.831177,-31.3388,12.3225,11.8661,11.6869,1.05647,0,1352.91,-1545.83,-1,0.828125,853.769,973714
-0.179443,0.0845947,0.740356,13.996,-15.213,8.97568,11.7032,1.05753,0,1548.71,-1250.23,-1,0.828125,853.789,973744
0.259338,-0.168335,0.357178,1.82556,-3.34686,10.1927,11.7114,1.0582,0,1598.85,-1611.73,-1,0.828125,853.809,973759
0.123657,-0.0306396,0.485779,43.9656,7.30225,6.84586,11.7284,1.05901,0,1568.14,-1625.09,-1,0.828125,853.829,973789
-0.0705566,-0.0334473,0.0875854,-21.2982,-2.58621,9.12781,11.7371,1.05931,0,1348.53,-1131.03,-1,0.828125,853.849,973804
-0.372314,0.352112,1.99994,-24.493,8.51929,11.4098,11.7458,1.05998,0,1618.12,-1605.91,-1,0.828125,853.869,973819
0.103333,-0.0697632,0.984863,-4.25964,2.89047,8.51929,11.764,1.06166,0,1583.41,-1461.24,-1,0.828125,853.889,973848
-0.182922,-0.0862427,0.826233,-4.41177,9.27994,9.43207,11.7731,1.06239,0,1555.21,-1373.34,-1,0.765625,853.919,973863
-0.0509033,-0.097229,1.21014,14.9088,-21.9067,10.0406,11.7821,1.0632,0,1572.57,-1355.56,-1,0.703125,853.929,973879
-0.0540161,0.0543213,1.41736,-20.5376,16.8864,11.4098,11.8001,1.06451,0,1578.53,-1491.87,-1,0.5625,853.948,973908
0.319031,-0.0460205,0.622375,26.0143,15.3651,12.6268,11.8093,1.06499,0,1663.76,-1376.37,-1,0.4375,853.969,973923
-0.0656738,0.293335,1.68677,-22.8195,19.6248,14.7566,11.8188,1.0654,0,1354.28,-1339.58,-1,0.257812,853.988,973939
-0.413147,0.171326,1.69659,-9.27994,-14.9088,21.7546,11.8285,1.06624,0,1563.11,-1235.41,-1,0.109375,854.009,973953
-0.490112,0.438293,0.336121,-6.69373,-28.7526,35.7506,11.848,1.06973,0,1417.13,-661.463,-1,0.046875,854.029,973983
-0.22052,0.28894,0.733459,1.82556,18.2556,43.9656,11.858,1.07251,0,1683.93,-877.347,-1,0.0078125,854.049,973999
-0.133423,0.211243,0.69397,0.912781,-0.30426,64.351,11.8787,1.07947,0,1415.43,-861.475,-1,0.0078125,854.069,974028
-0.183594,0.347656,0.751953,-11.2576,31.4909,70.132,11.8895,1.08351,0,1419.24,-1033.38,-1,0.0078125,854.091,974043
0.0418701,0.0791016,1.06335,10.3448,-5.78094,72.8703,11.9005,1.08775,0,1260.08,-1108.89,-1,0.0078125,854.109,974059
0.101746,0.0122681,0.792542,6.69373,7.45438,69.9799,11.9115,1.0919,0,1461.35,-885.152,-1,0.0078125,854.13,974073
-0.403137,-0.019043,1.36505,8.67142,-24.493,53.2455,11.934,1.0999,0,1385.04,-1202.57,-1,0.0078125,854.15,974103
-0.218689,-0.0216675,0.491089,-0,-14.1481,44.5741,11.9449,1.10426,0,1305.06,-1173.02,-1,0.0078125,854.17,974119
0.145569,-0.150452,0.696533,8.0629,15.6694,34.0771,11.9666,1.11343,0,1362.77,-1180.29,-1,0.0078125,854.189,974148
0.0158691,0.0619507,0.952087,-10.9534,-12.0183,30.7303,11.9774,1.11784,0,1287.33,-1236.78,-1,0.0078125,854.21,974163
-0.163879,-0.122253,0.839478,3.95538,-3.95538,28.7526,11.9881,1.1223,0,1541.54,-1164.55,-1,0.0078125,854.229,974179
0.15863,-0.125549,0.383301,3.95538,-12.3225,24.3408,12.0095,1.13126,0,1386,-1254,-1,0.0078125,854.25,974208
-0.0570068,0.130737,1.77313,-27.2313,-8.82355,20.2333,12.0202,1.13559,0,1314.84,-897.223,-1,0.0078125,854.269,974223
-0.0618896,-0.0681152,0.565369,26.927,20.8418,18.4077,12.031,1.13998,0,1515.15,-1455.18,-1,0.0078125,854.289,974239
-0.0275269,-0.0167847,1.42297,-1.21704,-8.0629,17.9514,12.0523,1.14906,0,1352.81,-1393.63,-1,0.0078125,854.309,974268
0.0574951,-0.0270386,0.38385,12.6268,14.1481,13.8438,12.063,1.15359,0,1306.93,-1120.45,-1,0.0078125,854.329,974283
0.0159302,0.0947876,1.02643,-3.0426,-6.99799,16.4301,12.0738,1.15807,0,1245.95,-1208.31,-1,0.0078125,854.35,974299
-0.057251,0.100586,1.69684,2.58621,-12.6268,17.7992,12.095,1.16682,0,1395.87,-1469.08,-1,-0.015748,854.371,974328
-0.368469,0.043396,0.437256,10.0406,6.84586,20.5376,12.1056,1.17145,0,1316.31,-1153.14,-1,-0.0314961,854.388,974343
0.0933838,0.00744629,1.16486,-16.2779,-2.73834,22.0589,12.1162,1.17624,0,1470.16,-1295.17,-1,-0.0866142,854.409,974359
-0.0585938,0.0327759,0.629883,9.43207,6.84586,17.495,12.1376,1.1848,0,1383.22,-829.05,-1,-0.125984,854.429,974388
-0.524902,0.413086,0.668091,-8.51929,-2.58621,25.4057,12.1485,1.18941,0,1352.17,-653.702,-1,-0.173228,854.448,974403
-0.166748,0.335632,1.26288,-4.41177,-13.0832,45.0305,12.1597,1.19463,0,1409.34,-362.983,-1,-0.19685,854.469,974419
0.190674,0.250916,1.05951,2.28195,24.493,58.8744,12.1828,1.20528,0,1393.34,-222.98,-1,-0.204724,854.489,974448
-0.0247803,0.174683,0.72644,-8.0629,-3.0426,69.6756,12.1948,1.21053,0,1372.21,-113.777,-1,-0.204724,854.51,974463
-0.258545,0.289551,1.46021,9.43207,9.5842,75.0002,12.2071,1.216,0,1353.91,-72.666,-1,-0.125984,854.529,974478
0.00372314,0.130188,0.633789,3.65112,3.34686,89.4525,12.2324,1.22794,0,1291.82,-44.1682,-1,-0.0787402,854.549,974508
-0.0921021,0.253174,1.06476,0.45639,5.02029,95.842,12.2453,1.23409,0,1459.53,-37.2898,-1,-0.0393701,854.569,974523
-0.296387,0.231262,1.2077,2.28195,0.15213,100.102,12.2585,1.24052,0,1313.8,-78.3714,-1,-0,854.588,974538
-0.301758,0.211792,1.02344,-2.89047,-25.1015,110.751,12.2852,1.25478,0,1165.57,-198.76,-1,0.0078125,854.609,974568
0.0065918,0.048645,1.32812,-1.06491,2.43408,113.641,12.2988,1.26228,0,1337.17,-363.788,-1,0.0078125,854.629,974583
0.00195312,0.139099,0.76825,18.5599,10.497,113.489,12.3124,1.26973,0,1365.37,-308.594,-1,0.0078125,854.649,974598
-0.301392,0.218384,1.96753,-12.7789,-27.9919,114.858,12.3399,1.28516,0,1237.16,-501.668,-1,0.0078125,854.67,974628
-0.086792,0.0289307,0.609741,9.5842,9.88846,110.599,12.3537,1.2932,0,1103.39,-674.741,-1,0.0078125,854.689,974643
-0.250122,0.102722,1.09674,1.36917,-1.67343,106.187,12.3676,1.30139,0,1297.27,-770.951,-1,0.0078125,854.709,974658
-0.148499,0.0609131,1.00305,-17.9514,-1.36917,99.6452,12.3952,1.31839,0,1250.78,-883.587,-1,0.0078125,854.729,974688
0.168091,-0.0998535,0.943848,9.12781,20.2333,87.9312,12.409,1.32686,0,1229.63,-862.924,-1,-0.149606,854.749,974703
0.0562744,-0.121521,0.713074,0.15213,6.08521,81.0854,12.4226,1.33507,0,1267.83,-563.222,-1,-0.291339,854.769,974718
-0.101196,0.451782,0.768188,10.6491,3.95538,84.2801,12.4503,1.35095,0,1253.6,-357.207,-1,-0.566929,854.79,974748
-0.132202,0.195862,0.4552,7.15012,-5.32455,98.4282,12.4648,1.35905,0,1443.73,-207.868,-1,-0.826772,854.809,974763
-0.240601,0.423889,1.6781,-22.5153,-6.99799,106.947,12.4796,1.3674,0,1201.71,196.75,-1,-0.929134,854.829,974778
-0.0892334,0.324768,1.23462,-9.43207,-1.82556,121.248,12.5101,1.38474,0,1109.69,344.863,-1,-0.992126,854.849,974808
-0.231506,0.370483,1.24097,4.10751,1.06491,123.682,12.5259,1.39365,0,1143.25,517.652,-1,-1,854.869,974823
-0.0187378,0.118042,0.555054,0.15213,-3.80325,126.877,12.5419,1.40268,0,1026.96,723.458,-1,-1,854.889,974838
-0.203552,0.228638,1.2168,7.15012,2.89047,134.027,12.5746,1.4209,0,933.838,764.526,-1,-1,854.909,974868
-0.0726318,0.276917,0.613831,0.760651,1.36917,139.503,12.5913,1.43019,0,1067.07,718.675,-1,-1,854.928,974883
-0.081543,0.153198,0.979797,-4.41177,-8.36716,141.481,12.6083,1.43953,0,1127.33,969.603,-1,-1,854.949,974898
-0.237732,0.0949707,0.389832,5.47668,-9.5842,145.589,12.6254,1.44902,0,998.303,838.082,-1,-1,854.969,974913
-0.131348,0.217529,0.692078,4.71603,6.5416,156.542,12.6601,1.4686,0,1013.38,969.509,-1,-1,854.99,974943
-0.252197,0.228821,0.649353,-3.0426,-5.32455,160.954,12.6779,1.47864,0,1000.45,796.495,-1,-1,855.009,974958
-0.0758667,0.158936,0.81604,-0,2.58621,169.777,12.714,1.49918,0,1034.02,788.426,-1,-1,855.029,974988
-0.243835,0.277588,1.08771,7.75864,10.6491,175.102,12.7323,1.50957,0,958.084,905.141,-1,-1,855.049,975003
-0.260803,0.191772,0.550598,-0.608521,-4.5639,181.643,12.7509,1.52017,0,1085.89,743.08,-1,-1,855.069,975018
-0.233398,0.286011,1.36499,-8.51929,-17.495,196.552,12.7889,1.54202,0,997.108,719.839,-1,-1,855.09,975048
-0.103882,0.326721,1.27374,3.65112,7.60651,200.66,12.8084,1.55304,0,1026.48,752.984,-1,-1,855.109,975063
-0.200134,0.229309,0.994751,1.06491,-3.0426,201.725,12.8281,1.56406,0,951.656,803.6,-1,-1,855.129,975078
-0.317444,0.269836,1.29779,-5.32455,-11.5619,207.353,12.8683,1.58607,0,1012.5,885.387,-1,-1,855.149,975108
0.0385132,0.234619,0.969543,-4.25964,6.5416,211.613,12.8887,1.59708,0,842.212,740.439,-1,-1,855.169,975123
-0.0560913,0.338989,1.13977,5.93307,0.30426,214.656,12.9094,1.60786,0,992.999,938.659,-1,-0.937008,855.189,975138
-0.258118,0.282837,0.515381,1.67343,-4.86816,216.938,12.9305,1.61865,0,1074.34,676.544,-1,-0.629921,855.209,975153
-0.317627,0.234375,1.46735,-1.82556,-0,225.305,12.9735,1.64015,0,967.867,606.281,-1,-0.377953,855.229,975183
-0.334839,0.222229,0.661499,-5.02029,-2.58621,227.891,12.9954,1.65106,0,965.81,496.956,-1,-0.0708661,855.249,975198
-0.233948,0.206543,0.832947,3.65112,-12.7789,235.954,13.04,1.67308,0,1035.46,212.353,-1,0.0078125,855.269,975228
-0.179016,0.013916,1.00757,-7.91077,-14.9088,235.802,13.0625,1.68417,0,1065.19,97.2484,-1,0.0078125,855.289,975243
-0.055603,-0.111938,1.25397,-6.23734,5.32455,226.217,13.0849,1.69528,0,943.174,-15.2632,-1,0.0078125,855.309,975258
-0.101318,-0.00817871,0.63208,0.45639,3.65112,209.94,13.1292,1.71764,0,1001.85,-95.4827,-1,0.0078125,855.329,975288
0.122131,0.0209961,1.52783,-23.1238,49.8987,202.485,13.1511,1.72868,0,1002.61,-165.996,-1,0.0078125,855.349,975303
0.00396729,-0.0496826,1.10693,20.3854,-12.1704,197.465,13.1728,1.73949,0,1114.7,-199.934,-1,0.0078125,855.369,975318
0.409363,0.0799561,1.29553,-7.30225,21.2982,196.4,13.2156,1.76091,0,985.513,-237.914,-1,0.0078125,855.389,975348
0.0922852,0.0884399,0.770081,1.82556,-3.0426,192.14,13.2367,1.771,0,1008.67,-247.445,-1,0.0078125,855.41,975363
0.0405273,0.0545044,0.900818,-7.91077,4.5639,191.988,13.2578,1.78084,0,1157.88,-240.749,-1,0.0078125,855.429,975378
-0.0950928,0.0823364,1.07196,14.4524,9.88846,183.621,13.2996,1.80011,0,1223.54,-311.197,-1,0.0078125,855.449,975408
-0.0699463,0.0266113,0.126892,19.1684,-2.73834,181.035,13.3205,1.80968,0,1163.81,-281.357,-1,0.0078125,855.469,975423
0.226318,-0.0910645,0.793701,-29.6654,-3.65112,181.339,13.3413,1.81912,0,1084.48,-314.569,-1,0.0078125,855.489,975438
0.0511475,-0.108093,0.372925,26.3185,-3.80325,172.211,13.3824,1.83759,0,1168.98,-356.824,-1,0.0078125,855.509,975468
-0.271667,0.0623779,0.512939,-18.2556,1.5213,172.211,13.403,1.84686,0,1213.74,-358.121,-1,0.0078125,855.529,975483
0.279663,0.0313721,1.40924,-17.495,0.15213,167.495,13.4235,1.85599,0,1221.3,-410.206,-1,0.0078125,855.549,975498
-0.0457764,0.0812988,0.791748,-2.28195,4.41177,161.106,13.4639,1.87335,0,1156.67,-396.314,-1,0.0078125,855.57,975527
0.0100098,-0.0171509,1.11987,-12.7789,-0.15213,163.388,13.484,1.88181,0,1022.34,-516.222,-1,0.0234375,855.589,975542
0.239075,0.000671387,1.49109,-6.08521,-6.99799,156.542,13.5039,1.89001,0,1211.46,-438.318,-1,0.0546875,855.609,975558
-0.166077,-0.0498047,0.798401,-6.08521,-0.760651,152.13,13.5433,1.90605,0,1006.54,-499.226,-1,0.0703125,855.629,975587
-0.184814,0.0233154,0.978821,-0,-14.4524,151.065,13.563,1.91417,0,1127.52,-292.018,-1,0.0703125,855.649,975602
-0.192139,0.123047,0.677673,6.23734,-0.760651,153.195,13.5829,1.9223,0,1250.39,-368.956,-1,0.0703125,855.669,975618
-0.13678,0.0848389,0.771667,6.99799,1.5213,154.26,13.6232,1.93817,0,1164.82,-441.53,-1,0.0078125,855.689,975647
-0.209534,0.102356,0.622559,2.43408,-8.97568,155.325,13.6436,1.94601,0,1111.61,-443.931,-1,0.0078125,855.709,975662
-0.136169,-0.0552368,0.903992,-19.1684,-8.82355,155.629,13.6641,1.95389,0,1198.39,-488.77,-1,0.0078125,855.729,975678
-0.108765,-0.022583,0.76947,7.15012,-3.19473,142.546,13.7048,1.96974,0,1203.44,-584.163,-1,0.0078125,855.749,975707
-0.0203247,-0.0234985,0.759094,-12.0183,-5.17242,139.96,13.725,1.97768,0,1129.69,-558.94,-1,0.078125,855.769,975722
0.0320435,-0.0273438,1.20874,-5.93307,-8.0629,135.852,13.7451,1.98552,0,1118.88,-576.918,-1,0.257812,855.789,975738
-0.065979,0.0930786,0.896362,2.28195,2.12982,129.919,13.7852,2.00095,0,1092.3,-511.731,-1,0.539062,855.809,975767
0.108215,0.0160522,0.731995,-3.19473,-1.82556,131.288,13.8052,2.00845,0,1212.71,-658.241,-1,0.71875,855.83,975782
0.183655,-0.13385,0.745361,1.36917,-4.5639,128.398,13.8248,2.01585,0,1042.21,-671.659,-1,0.875,855.849,975798
0.425354,-0.160339,1.16669,8.82355,6.84586,106.947,13.8636,2.03099,0,1180.78,-661.573,-1,0.90625,855.869,975827
0.479248,-0.474426,1.1709,-7.30225,0.608521,96.6026,13.882,2.03853,0,1131.22,-1039.34,-1,0.914062,855.889,975842
0.461426,-0.364319,1.07025,-3.80325,9.27994,76.0651,13.8994,2.04614,0,1148.37,-776.247,-1,0.914062,855.909,975858
0.216614,-0.186829,0.943237,1.67343,5.62881,50.8115,13.9318,2.06151,0,1202.14,-998.452,-1,0.914062,855.929,975887
0.124207,-0.202576,0.62738,0.45639,-0.15213,42.4443,13.9473,2.06926,0,1210.07,-942.463,-1,0.914062,855.95,975902
0.235535,-0.280334,1.05701,-18.8641,-11.714,33.4686,13.9624,2.07709,0,1256.04,-1135.52,-1,0.914062,855.969,975918
-0.00201416,-0.157532,0.428528,0.30426,-7.45438,12.0183,13.9918,2.09283,0,1315.36,-1189.34,-1,0.914062,855.989,975947
0.127441,-0.245544,0.65509,-4.71603,-3.19473,8.82355,14.0062,2.10088,0,1282.79,-1060.16,-1,0.921875,856.01,975962
-0.106079,-0.227661,1.56769,-3.0426,-21.6025,5.62881,14.0204,2.10909,0,1294.08,-1160.16,-1,0.953125,856.029,975978
0.00146484,-0.149353,0.794006,-4.41177,-3.95538,2.58621,14.0484,2.12569,0,1214.18,-1214.33,-1,0.960938,856.049,976007
0.053833,-0.155334,0.523132,0.608521,5.78094,3.65112,14.0621,2.13411,0,1260.56,-1276.89,-1,0.960938,856.069,976022
0.0582886,-0.123535,0.490784,19.4727,31.9473,1.21704,14.0891,2.1512,0,1313.72,-1327.84,-1,0.960938,856.091,976052
-0.0339355,-0.000732422,0.893311,-23.8844,4.86816,3.34686,14.1024,2.15976,0,1370.52,-1519.18,-1,0.898438,856.109,976067
-0.511597,0.0337524,1.11005,-1.06491,-28.4483,2.58621,14.1161,2.16838,0,1218.47,-1333.24,-1,0.84375,856.129,976082
0.141907,-0.0400391,0.615784,14.6045,-3.19473,2.89047,14.1299,2.17702,0,1409.64,-1376.65,-1,0.75,856.149,976098
0.181274,0.0391846,1.21808,-30.426,7.15012,4.86816,14.1573,2.19383,0,1481.15,-1190.9,-1,0.59375,856.169,976127
-0.0410156,-0.0344238,0.693115,15.3651,8.97568,6.84586,14.1708,2.20197,0,1470.7,-1443.31,-1,0.5,856.189,976142
0.0237427,0.144104,0.792236,15.3651,-10.9534,6.84586,14.1844,2.20998,0,1472.1,-1282.46,-1,0.390625,856.209,976158
0.253235,0.21698,1.99994,-14.1481,-2.28195,11.4098,14.2114,2.226,0,1382.93,-1215.81,-1,0.328125,856.229,976187
0.106628,0.171265,-0.132996,31.0345,5.17242,22.0589,14.2247,2.23351,0,1355.84,-1011.38,-1,0.1875,856.249,976202
-0.134949,0.0665894,1.36176,-17.1907,3.19473,30.1218,14.2381,2.24081,0,1552.8,-852.37,-1,0.1875,856.269,976217
-0.228271,0.372131,1.52551,8.21503,13.8438,46.7039,14.2663,2.25508,0,1506.82,-778.24,-1,0.015625,856.289,976247
-0.279114,0.158813,0.199219,0.760651,-8.36716,52.4849,14.2811,2.26186,0,1331.65,-972.621,-1,0.015625,856.31,976262
-0.24115,-0.0133667,1.56964,-4.71603,-16.7343,56.7445,14.2963,2.26862,0,1286.26,-1018.69,-1,0.0078125,856.329,976277
-0.0550537,-0.0531616,0.763367,-15.213,-13.5396,51.5721,14.3275,2.28229,0,1409.44,-1111.73,-1,0.0078125,856.349,976307
0.288818,-0.170654,0.806396,3.65112,6.38947,45.4869,14.3429,2.28914,0,1403.9,-1311.39,-1,0.0078125,856.37,976322
-0.0369263,-0.0550537,1.72668,-6.84586,-3.95538,42.4443,14.3581,2.29594,0,1327.05,-1271.21,-1,0.0078125,856.389,976337
0.0709229,-0.239014,0.754944,-29.9696,10.6491,37.5761,14.3883,2.30965,0,1241.46,-1370.52,-1,0.0078125,856.409,976367
0.129517,0.178162,1.03064,7.75864,2.12982,28.7526,14.4178,2.32339,0,1232.36,-1108.89,-1,0.0078125,856.444,976397
0.129517,0.178162,1.03064,7.75864,2.12982,28.7526,14.4178,2.32339,0,1420.76,-1096.91,-1,0.0078125,856.45,976397
-0.35321,0.316956,1.81897,-20.3854,-24.6451,26.1664,14.448,2.33633,0,1328.11,-1285.35,-1,0.0078125,856.469,976427
0.531128,0.088562,1.7077,-11.8661,9.27994,18.4077,14.4938,2.35426,0,1317.87,-1238.47,-1,0.0078125,856.521,976472
0.531128,0.088562,1.7077,-11.8661,9.27994,18.4077,14.4938,2.35426,0,1327.93,-1195.89,-1,0.0078125,856.522,976472
0.116272,0.190857,0.646667,5.17242,1.21704,17.495,14.5082,2.35956,0,1463.7,-1219.36,-1,0.0078125,856.529,976487
-0.147095,0.100342,0.719116,-11.2576,-2.12982,19.1684,14.5227,2.36461,0,1258.02,-909.38,-1,0.0078125,856.549,976502
0.0388184,0.0136719,1.25458,2.12982,-16.8864,15.213,14.5372,2.36957,0,1467.03,-1063.15,-1,0.0078125,856.569,976517
0.21106,-0.0292358,0.702026,17.1907,8.51929,14.4524,14.5664,2.37933,0,1292.66,-1380.17,-1,0.0078125,856.591,976547
-0.0687256,-0.078064,0.609985,-3.80325,-8.21503,16.2779,14.5809,2.38417,0,1077.35,-1243.78,-1,0.0078125,856.609,976562
0.283752,-0.114624,1.83148,-17.0386,-23.8844,12.7789,14.5951,2.38899,0,1318.91,-1487.87,-1,0.0078125,856.629,976577
0.0194702,-0.0404663,0.860901,-4.86816,9.5842,11.4098,14.6234,2.39883,0,1357.4,-1160.56,-1,0.0078125,856.65,976607
0.0837402,-0.0863647,0.927612,9.12781,-11.714,11.5619,14.6375,2.39883,0,1394.51,-1214.92,-1,0.0078125,856.669,976622
-0.217468,-0.0291138,0.599121,3.0426,0.912781,10.497,14.6516,2.3989,0,1438.95,-985.513,-1,0.0078125,856.689,976637
-0.0471802,0.00854492,0.775513,-0.608521,-9.43207,14.3002,14.6801,2.39922,0,1315.7,-1331.47,-1,0.0078125,856.709,976667
0.0184937,-0.0324097,0.786743,-0,-3.19473,11.8661,14.6944,2.39937,0,1443.73,-1245.41,-1,0.0078125,856.729,976682
-0.160706,0.0043335,0.973145,13.8438,13.996,13.3875,14.7087,2.39951,0,1392.37,-1406.57,-1,0.0078125,856.751,976697
-0.0377197,0.137512,1.23639,-10.6491,-15.213,12.7789,14.7373,2.39987,0,1339.41,-1443.83,-1,0.0078125,856.77,976727
-0.104431,0.0258179,1.36407,5.47668,-10.1927,15.213,14.7517,2.39987,0,1398.31,-1138.82,-1,0.0078125,856.789,976742
0.148926,-0.0293579,0.599915,6.38947,1.5213,15.6694,14.7661,2.39981,0,1310.02,-1256.2,-1,0.0078125,856.809,976757
0.140015,0.0229492,1.51874,10.0406,26.927,15.6694,14.7938,2.39934,0,1344.09,-1274.7,-1,0.0078125,856.829,976787
-0.15155,0.123962,0.431274,14.4524,-13.3875,16.8864,14.8076,2.39888,0,1278.69,-1313.54,-1,0.0078125,856.849,976802
0.0405884,-0.106506,0.680176,-14.9088,-9.27994,18.5599,14.8214,2.39841,0,1353.09,-1150.75,-1,0.0078125,856.869,976817
-0.0413208,0.00878906,0.408386,23.428,-4.5639,14.4524,14.8485,2.39697,0,1458.9,-1370.71,-1,0.0078125,856.889,976847
-0.158142,-0.0192261,0.884338,-11.8661,16.5822,14.1481,14.8622,2.39618,0,1386.29,-1193.67,-1,0.0078125,856.91,976862
0.000427246,-0.157104,1.58704,-15.0609,-4.5639,13.3875,14.8758,2.39546,0,1434.21,-1278.94,-1,0.0078125,856.929,976877
-0.00756836,-0.0385132,1.07507,-7.91077,4.86816,13.6917,14.9029,2.39403,0,1461.13,-1265.34,-1,0.0078125,856.949,976907
-0.0524292,-0.159058,0.590515,19.0163,-17.1907,13.3875,14.9163,2.39337,0,1250.23,-1469.72,-1,0.0078125,856.969,976922
-0.115601,-0.0394287,1.4715,-6.23734,18.8641,12.7789,14.9299,2.39284,0,1323.19,-1276.24,-1,0.0078125,856.989,976937
-0.169556,-0.121765,0.224365,-5.47668,-3.34686,12.3225,14.9574,2.39186,0,1505.46,-1352.72,-1,0.0078125,857.019,976967
-0.106506,0.0723267,1.6778,-2.73834,-10.0406,11.4098,14.9713,2.39148,0,1504.78,-1369.96,-1,0.0078125,857.029,976982
0.0594482,-0.0731812,0.957825,7.15012,-6.23734,10.0406,14.9853,2.39104,0,1463.38,-1402.62,-1,0.0078125,857.049,976997
0.198669,0.0166016,0.969849,0.15213,-1.36917,13.5396,15.0131,2.38988,0,1411.93,-1358.7,-1,0.0078125,857.07,977027
0.104797,0.129028,0.420776,13.2353,5.32455,11.4098,15.0268,2.38904,0,1521.72,-1591.72,-1,0.0078125,857.09,977042
-0.201477,0.0802612,1.20538,-7.45438,-4.10751,12.4747,15.0406,2.38803,0,1381.12,-1155.33,-1,0.0078125,857.109,977057
0.361389,0.158875,0.644043,4.41177,11.8661,12.9311,15.0678,2.38519,0,1284.27,-1273.4,-1,0.0078125,857.129,977087
0.322021,0.108704,1.51782,-21.1461,23.7323,13.0832,15.0808,2.38321,0,1357.68,-1171.92,-1,0.0078125,857.149,977102
-0.217407,0.0875244,1.1842,20.2333,-6.5416,12.1704,15.0937,2.38101,0,1266.7,-1549.31,-1,0.0078125,857.169,977117
0.0911865,-0.0905151,0.944275,-4.25964,-10.9534,12.4747,15.1195,2.37677,0,1519.87,-1315.79,-1,0.0078125,857.189,977147
-0.067627,-0.157898,0.826965,3.80325,-1.67343,11.5619,15.1321,2.3748,0,1468.32,-1239.62,-1,0.0078125,857.209,977161
-0.148132,0.05896,1.30371,7.45438,-1.82556,12.1704,15.1449,2.37289,0,1395.97,-1482.8,-1,0.0078125,857.229,977177
0.367188,0.0425415,1.7699,-26.6228,1.67343,11.8661,15.1701,2.36909,0,1513.66,-1261.43,-1,0.0078125,857.249,977206
-0.215942,0.0217896,0.933472,9.43207,2.43408,10.497,15.1825,2.367,0,1385.52,-1356.85,-1,0.0078125,857.27,977221
0.0671387,0.0142212,0.887329,8.97568,9.27994,12.6268,15.1949,2.3649,0,1614.07,-1370.71,-1,0.0078125,857.29,977237
0.104614,-0.0112915,0.487122,17.9514,19.929,8.21503,15.2307,2.35863,0,1404.1,-1423.08,-1,0.0078125,857.326,977281
0.104614,-0.0112915,0.487122,17.9514,19.929,8.21503,15.2307,2.35863,0,1464.34,-1249.84,-1,0.0078125,857.329,977281
-0.0516357,0.0543213,0.472168,-10.3448,12.0183,9.27994,15.2422,2.35645,0,1315.27,-1083.83,-1,0.0078125,857.351,977297
0.159973,0.0133667,0.681274,40.1624,32.2516,9.43207,15.2646,2.35184,0,1516.19,-1219.74,-1,0.0078125,857.378,977326
-0.303162,0.192017,0.694702,-19.7769,23.1238,9.88846,15.2758,2.34937,0,1577.91,-1341.56,-1,0.0078125,857.39,977341
-0.0892944,-0.098938,1.35413,-2.12982,-14.4524,10.497,15.2872,2.34688,0,1372.87,-1454.76,-1,0.0078125,857.41,977357
-0.00531006,-0.00720215,0.595154,1.21704,2.89047,10.497,15.2986,2.34196,0,1600.51,-1256.28,-1,0.0078125,857.429,977386
-0.37854,-0.0266113,1.54974,-12.4747,-3.95538,12.7789,15.2988,2.33957,0,1402.43,-1205.47,-1,0.0078125,857.448,977401
-0.137512,-0.216858,1.08496,3.49899,6.23734,15.3651,15.2992,2.33739,0,1537.52,-1259.92,-1,0.0078125,857.468,977417
0.046936,-0.0512695,1.47052,-27.0792,4.5639,14.4524,15.3001,2.33339,0,1394.12,-1433.9,-1,0.0078125,857.489,977446
0.0122681,0.165039,0.608032,20.2333,10.3448,12.3225,15.3004,2.33127,0,1536.92,-1244.94,-0.90625,0.0078125,857.51,977461
0.0490112,0.00469971,0.427856,20.2333,-5.78094,11.8661,15.3007,2.32903,0,1325.82,-1367.24,-0.890625,0.0078125,857.529,977477
0.147034,-0.0332642,1.1825,20.8418,15.0609,11.8661,15.3008,2.32428,0,1435.34,-1172.54,-0.882812,0.0078125,857.549,977506
-0.20874,0.010376,0.625427,12.0183,-3.65112,8.82355,15.3007,2.32187,0,1505,-1476.45,-0.875,0.0078125,857.57,977521
-0.0111694,-0.155334,0.706604,-11.8661,-10.8012,7.45438,15.3007,2.31958,0,1424.6,-1438.43,-0.867188,0.0078125,857.589,977537
0.0448608,0.0387573,0.310303,30.7303,8.0629,6.84586,15.3006,2.31491,0,1211.46,-1356.12,-0.859375,0.0078125,857.609,977566
0.0959473,0.0556641,1.3147,2.58621,5.62881,2.58621,15.3006,2.31013,0,1296.26,-1264.14,-0.851562,0.0078125,857.643,977597
0.0959473,0.0556641,1.3147,2.58621,5.62881,2.58621,15.3006,2.31013,0,1405.98,-1266.62,-0.84375,0.0078125,857.65,977597
-0.05896,0.145142,1.61609,-26.6228,-7.30225,7.91077,15.3008,2.30501,0,1332.98,-1481.92,-0.8125,0.0078125,857.669,977626
-0.331665,0.0560913,0.822815,10.6491,10.1927,4.71603,15.3013,2.30229,0,1420.96,-1340.03,-0.8125,0.0078125,857.689,977641
-0.0669556,0.0280151,0.763855,-6.23734,-18.4077,5.47668,15.3019,2.29959,0,1259.45,-1280.08,-0.789062,0.0078125,857.711,977657
0.198181,0.0253296,0.866638,-2.28195,-14.6045,3.19473,15.303,2.29387,0,1378.74,-1284.69,-0.679688,0.0078125,857.729,977686
-0.177124,0.109863,0.649658,-0.912781,23.1238,4.71603,15.3035,2.29082,0,1282.79,-1314.15,-0.679688,0.0078125,857.749,977701
-0.259277,0.308899,1.565,-13.5396,-8.21503,6.08521,15.3042,2.28758,0,1227.6,-1415.03,-0.648438,0.0078125,857.769,977717
0.0368652,0.329468,1.17358,-10.3448,-4.10751,3.65112,15.3055,2.2803,0,1189.48,-1311.73,-0.625,0.0078125,857.792,977746
-0.00408936,0.158447,0.757263,-2.89047,-2.28195,1.67343,15.3061,2.27618,0,1202.14,-1165.3,-0.617188,0.0078125,857.81,977761
0.065979,0.125,1.39307,-0.15213,-5.47668,2.73834,15.3067,2.27185,0,1124.54,-1347.71,-0.617188,0.0078125,857.83,977777
0.0378418,0.0976562,1.42371,-6.69373,8.82355,1.82556,15.3077,2.26276,0,1180.64,-1266.87,-0.617188,0.0078125,857.849,977806
0.0123901,0.113831,0.896301,6.23734,6.08521,0.760651,15.3081,2.25798,0,1171.1,-1220.41,-0.609375,0.0078125,857.869,977821
0.0283813,0.144592,1.30011,-3.49899,5.32455,0.30426,15.3086,2.24788,0,1132.89,-1235.25,-0.59375,0.0078125,857.894,977851
-0.0814819,0.296265,1.39154,-4.5639,5.62881,1.06491,15.3088,2.24245,0,1097.51,-1172.13,-0.554688,0.0078125,857.918,977866
0.00604248,0.102051,0.658081,6.99799,1.21704,0.45639,15.3092,2.23677,0,1101.26,-1373.82,-0.5,0.0078125,857.929,977881
-0.132446,0.0994873,1.40564,-0.912781,-5.62881,0.45639,15.3096,2.231,0,1078.81,-828.02,-0.429688,0.0078125,857.949,977896
-0.012146,0.122192,0.909546,3.19473,-1.06491,-1.21704,15.3106,2.2193,0,1035.3,-1009.18,-0.304688,0.078125,857.969,977926
0.0762329,0.203491,0.720154,10.497,9.27994,-3.80325,15.3111,2.2132,0,1010.87,-898.634,-0.203125,0.132812,857.99,977941
-0.0195923,0.342041,1.01495,-7.45438,-12.0183,-5.78094,15.3117,2.20674,0,864.79,-671.096,-0.164062,0.195312,858.01,977956
-0.0331421,0.521118,0.968018,16.2779,1.5213,3.95538,15.3134,2.19197,0,792.048,-578.637,-0.132812,0.210938,858.029,977986
-0.0720825,0.607239,0.548584,-4.25964,5.78094,4.86816,15.3147,2.18356,0,694.541,-705.716,-0.101562,0.210938,858.049,978001
0.239502,0.475708,0.640015,3.80325,-3.80325,0.912781,15.3173,2.1642,0,602.591,-610.016,-0.078125,0.210938,858.086,978031
0.0375977,0.434692,1.09955,12.4747,-3.65112,-5.32455,15.3185,2.15349,0,534.688,-613.046,-0.078125,0.210938,858.09,978046
-0.0186768,0.49231,0.910522,-18.4077,-10.8012,-4.5639,15.3199,2.14226,0,544.203,-672.111,-0.03125,0.210938,858.115,978061
-0.0136108,0.458923,0.675354,10.3448,3.0426,-5.93307,15.3214,2.13045,0,501.266,-523.423,-0.0078125,0.210938,858.129,978076
-0.146301,0.244507,1.35504,-0.912781,-0.30426,-5.62881,15.3249,2.10561,0,577.217,-431.723,-0.0078125,0.210938,858.149,978106
-0.115967,0.0647583,0.783875,7.60651,5.32455,2.58621,15.3268,2.09297,0,529.325,-450.521,-0.0078125,0.210938,858.169,978121
-0.0325317,0.148071,0.837585,0.15213,1.36917,6.99799,15.3289,2.08029,0,438.164,-523.423,-0.0078125,0.210938,858.19,978136
0.132629,0.0913696,0.7276,-4.41177,11.5619,2.58621,15.333,2.05458,0,410.097,-391.321,-0.0078125,0.210938,858.21,978166
-0.0974731,0.133545,1.2251,-2.12982,-3.65112,-1.06491,15.3349,2.04158,0,426.667,-420.045,-0.0078125,0.210938,858.229,978181
-0.0471802,-0.0278931,0.660645,11.1055,-11.4098,-1.21704,15.3369,2.02864,0,371.906,-356.366,-0.0078125,0.210938,858.249,978196
0.00396729,0.0883789,0.843567,6.5416,5.93307,0.760651,15.3409,2.00273,0,379.298,-407.415,-0.0078125,0.210938,858.269,978226
0.0460815,0.182678,0.958191,-2.58621,1.97769,0.45639,15.3428,1.98965,0,385.223,-394.828,-0.0078125,0.210938,858.289,978241
-0.0432739,0.148682,0.995972,-5.78094,-7.60651,0.15213,15.3447,1.97644,0,369.952,-393.244,-0.0078125,0.210938,858.309,978256
-0.0368652,0.0761108,0.888489,3.19473,0.912781,-0.608521,15.3485,1.94994,0,318.583,-357.124,-0.0078125,0.210938,858.329,978286
-0.0169067,0.126526,1.06628,-1.06491,-1.06491,0.30426,15.3504,1.93665,0,307.697,-335.937,-0.0078125,0.210938,858.349,978301
0.0286865,0.0548706,0.82135,1.21704,0.760651,-2.28195,15.3523,1.92331,0,282.183,-347.959,-0.0078125,0.210938,858.369,978316
-0.0393677,0.118958,0.80658,3.65112,-2.28195,-0.608521,15.356,1.89655,0,303.619,-331.802,-0.0078125,0.210938,858.389,978346
0.0370483,0.0717163,1.10883,-1.67343,-2.28195,-1.82556,15.3579,1.8831,0,339.616,-380.3,-0.0078125,0.210938,858.41,978361
-0.0233154,0.0456543,0.86438,3.80325,-0.760651,-2.28195,15.3598,1.8831,0,301.987,-199.635,-0.0078125,0.210938,858.429,978376
0.0506592,0.0541992,0.871399,0.760651,-0,0.45639,15.3634,1.8831,0,295.919,-282.382,0,0.210938,858.449,978406
-0.0152588,0.0447998,0.994141,-1.5213,-1.21704,-0.608521,15.3652,1.88312,0,309.521,-324.533,0.015748,0.210938,858.469,978421
0.00732422,0.0163574,0.880981,0.760651,0.760651,-1.5213,15.3669,1.88316,0,270.449,-329.989,0.0393701,0.210938,858.489,978436
0.00683594,0.0822144,0.94928,-1.67343,2.28195,0.30426,15.3703,1.88335,0,209.89,-276.491,0.0866142,0.210938,858.509,978466
0.0354004,0.142578,0.942322,-0,3.49899,-1.21704,15.372,1.88336,0,164.912,-285.213,0.141732,0.21875,858.529,978481
0.126465,0.216492,0.907715,-0.30426,0.760651,-6.99799,15.3736,1.88319,0,145.25,-259.084,0.19685,0.265625,858.549,978496
0.0810547,0.197205,0.970886,-0.30426,0.608521,-12.4747,15.3767,1.88216,0,90.1579,-243.944,0.322835,0.3125,858.569,978526
0.0834351,0.220093,0.914307,2.12982,-0.15213,-13.6917,15.3782,1.8813,0,55.7395,-208.117,0.440945,0.335938,858.589,978541
0.126953,0.145081,0.915833,0.45639,-0.45639,-24.0366,15.3808,1.87909,0,11.263,-231.388,0.496063,0.351562,858.618,978571
0.135437,0.108337,0.961487,1.82556,0.760651,-30.1218,15.3818,1.87778,0,-11.2062,-232.739,0.527559,0.367188,858.628,978586
0.13092,0.116882,0.950195,-0.45639,-0.30426,-36.207,15.3827,1.87637,0,-163.455,-194.611,0.527559,0.375,858.649,978601
0.129211,0.110107,0.929321,1.97769,1.06491,-41.3794,15.3834,1.87485,0,-192.827,-201.741,0.527559,0.398438,858.669,978616
0.12085,0.113342,0.901489,1.67343,-0,-53.2455,15.3844,1.87154,0,-214.447,-226.303,0.535433,0.40625,858.689,978646
0.145874,0.0803833,0.892639,0.760651,-1.67343,-58.8744,15.3847,1.86972,0,-243.733,-229.253,0.535433,0.429688,858.709,978661
0.160156,0.0670776,0.99707,1.67343,0.45639,-65.5681,15.3848,1.86786,0,-278.342,-252.064,0.535433,0.460938,858.73,978676
0.17157,0.043396,0.932373,1.36917,0.608521,-78.4991,15.3844,1.864,0,-287.134,-275.923,0.535433,0.476562,858.749,978706
0.143555,0.0648804,1.02698,-0.30426,0.15213,-83.063,15.3838,1.862,0,-277.639,-279.755,0.535433,0.484375,858.769,978721
0.117737,0.0213013,0.772156,1.5213,0.45639,-94.0164,15.3821,1.85785,0,-332.27,-319.066,0.535433,0.492188,858.795,978751
0.158875,0.0422363,0.958008,-0,3.0426,-99.1888,15.381,1.85573,0,-285.645,-313.73,0.535433,0.515625,858.809,978766
0.236389,0.0130005,0.934875,-0.608521,3.19473,-104.818,15.3796,1.85356,0,-282.211,-268.987,0.543307,0.53125,858.829,978781
0.0996094,0.0306396,1.00958,2.43408,2.43408,-108.621,15.378,1.85139,0,-321.069,-301.223,0.543307,0.546875,858.849,978796
0.113586,0.0802002,0.873901,3.0426,1.06491,-114.706,15.3744,1.85136,0,-308.114,-355.625,0.543307,0.554688,858.869,978826
0.246277,-0.0209961,0.930054,0.45639,0.45639,-120.943,15.3723,1.85129,0,-316.997,-299.442,0.543307,0.554688,858.889,978841
0.105164,0.0128174,1.18066,3.65112,2.43408,-127.333,15.3701,1.85123,0,-339.789,-362.733,0.543307,0.554688,858.909,978856
0.210815,0.00738525,0.96875,0.912781,-0.608521,-137.526,15.3651,1.85098,0,-340.211,-371.092,0.543307,0.554688,858.93,978885
0.222412,0.0411987,1.25232,1.21704,-1.67343,-142.546,15.3623,1.85078,0,-334.314,-407.058,0.543307,0.554688,858.95,978901
0.203857,0.0200195,0.824585,0.15213,1.82556,-147.87,15.3593,1.85051,0,-331.214,-479.272,0.480315,0.554688,858.969,978916
0.0528564,0.0692139,0.832397,1.5213,-2.43408,-154.26,15.3562,1.84988,0,-285.01,-438.423,0.417323,0.476562,858.989,978945
0.114929,0.106506,0.985168,1.67343,0.30426,-157.15,15.3561,1.84952,0,-271.197,-394.104,0.362205,0.4375,859.009,978960
0.0194702,0.0830688,1.10052,4.41177,0.45639,-157.303,15.3561,1.84911,0,-239.55,-359.266,0.23622,0.421875,859.029,978976
0.0474243,0.0714111,1.20673,-2.58621,-2.73834,-155.021,15.3561,1.84822,0,-199.322,-403.747,0.110236,0.40625,859.048,979005
0.126709,-0.0108643,1.08026,2.58621,1.36917,-151.522,15.356,1.84779,0,-115.669,-343.808,0.0393701,0.40625,859.069,979020
-0.0681763,-0.0485229,1.16443,4.86816,3.80325,-146.806,15.3558,1.8475,0,-96.5461,-422.583,-0.0078125,0.40625,859.089,979036
-0.183899,-0.0893555,0.976929,0.760651,2.73834,-134.483,15.3558,1.84781,0,-78.1403,-375.792,-0.0078125,0.40625,859.109,979065
-0.272339,-0.0369873,0.951843,0.30426,-1.06491,-128.246,15.356,1.8485,0,-55.9236,-419.806,-0.0078125,0.40625,859.129,979080
-0.237061,-0.10321,0.789551,7.75864,8.97568,-123.682,15.3565,1.84956,0,-30.7523,-392.065,-0.0078125,0.40625,859.149,979096
-0.215393,-0.0542603,1.04114,-2.73834,2.43408,-110.599,15.3578,1.85266,0,-30.7523,-445.653,-0.0078125,0.40625,859.169,979125
-0.19928,-0.0665894,0.884216,4.86816,9.27994,-102.992,15.3586,1.85471,0,-30.7523,-379.975,-0.0078125,0.40625,859.189,979140
-0.171448,0.0864868,1.04108,-0.608521,3.95538,-98.1239,15.3596,1.85698,0,76.6096,-471.02,-0.0078125,0.40625,859.21,979156
-0.124023,-0.00012207,1.12653,0.30426,3.95538,-87.9312,15.3622,1.86203,0,126.45,-287.72,-0.0078125,0.40625,859.229,979185
-0.129333,-0.0400391,0.825378,2.58621,0.608521,-81.2375,15.3636,1.86487,0,130.551,-320.78,-0.0078125,0.40625,859.249,979200
-0.205078,-0.0236816,1.00519,-0.608521,-0,-73.1746,15.3651,1.86795,0,137.507,-443.154,-0.0078125,0.46875,859.269,979216
-0.074707,0.0278931,0.662476,1.36917,4.86816,-65.1117,15.3686,1.87483,0,161.567,-380.062,-0.0078125,0.46875,859.289,979245
-0.205139,-0.0505371,1.03802,-0.30426,0.608521,-60.5478,15.3706,1.87856,0,181.936,-422.52,-0.0078125,0.476562,859.309,979260
-0.0422363,-0.0568848,0.821533,-0,2.58621,-55.3754,15.3726,1.88252,0,216.018,-442.703,-0.0078125,0.492188,859.329,979276
-0.170532,-0.0800171,0.940735,-2.89047,4.41177,-49.5944,15.3765,1.89099,0,237.462,-431.118,-0.0078125,0.492188,859.349,979305
-0.147583,0.00421143,0.870605,0.912781,2.58621,-44.422,15.3786,1.89558,0,255.974,-361.219,-0.0078125,0.5,859.369,979320
-0.132874,-0.0548096,1.02612,-0.912781,-0.760651,-39.0974,15.3807,1.90039,0,277.004,-473.059,-0.0078125,0.5,859.389,979336
-0.267029,-0.00897217,0.977539,0.15213,1.21704,-32.2516,15.3852,1.91072,0,293.328,-403.698,-0.0078125,0.5,859.409,979365
-0.0213623,-0.0709839,1.06439,0.912781,-0.30426,-27.2313,15.3875,1.91624,0,303.154,-457.697,-0.0078125,0.507812,859.428,979380
-0.0776978,-0.0513916,0.95697,2.89047,-1.97769,-24.7972,15.3898,1.92192,0,316.286,-452.151,-0.0078125,0.515625,859.449,979396
-0.0952148,-0.0896606,1.09479,1.82556,0.45639,-19.3205,15.3898,1.93379,0,317.632,-512.229,-0.0078125,0.515625,859.469,979425
-0.0466919,-0.0479736,0.862183,1.5213,-2.89047,-19.6248,15.3898,1.94,0,372.71,-450.704,-0.0078125,0.515625,859.489,979440
-0.020874,-0.10498,0.93219,3.80325,1.06491,-17.1907,15.3898,1.94635,0,392.596,-445.861,-0.0078125,0.523438,859.51,979456
-0.0263062,-0.0836792,0.768555,3.95538,3.49899,-13.5396,15.3896,1.95955,0,416.155,-467.99,-0.0078125,0.523438,859.529,979485
-0.108887,-0.0404663,0.960938,-4.25964,-5.62881,-12.1704,15.3894,1.96638,0,481.777,-468.582,-0.0078125,0.523438,859.549,979500
-0.0423584,-0.0931396,0.954712,3.80325,0.760651,-9.5842,15.3893,1.97337,0,496.339,-556.065,-0.0078125,0.523438,859.57,979515
-0.0737915,-0.12616,0.982361,-0.15213,-1.21704,-8.97568,15.3889,1.98764,0,446.19,-515.956,-0.0078125,0.523438,859.589,979545
0.00201416,-0.0201416,0.960327,-0,-1.06491,-9.73633,15.388,2.00244,0,506.894,-529.241,-0.0078125,0.523438,859.624,979575
-0.0140381,-0.0723267,1.18866,1.82556,4.5639,-8.0629,15.3875,2.00996,0,500.338,-611.808,-0.0078125,0.523438,859.633,979590
-0.0164185,0.010376,0.831238,0.15213,0.45639,-8.82355,15.387,2.01753,0,542.446,-618.372,-0.0078125,0.523438,859.649,979605
0.134766,-0.0616455,0.911072,6.08521,2.89047,-8.21503,15.3864,2.0251,0,556.282,-640.594,-0.0078125,0.53125,859.669,979620
-0.0101318,0.00311279,1.07233,1.97769,6.5416,-3.65112,15.3849,2.04028,0,602.065,-572.918,-0.0078125,0.546875,859.689,979650
0.0149536,-0.151611,0.921265,2.58621,-1.67343,-5.93307,15.384,2.04797,0,579.022,-576.801,-0.0078125,0.554688,859.709,979665
0.0581665,-0.107544,0.759277,3.19473,8.51929,-6.5416,15.3823,2.0638,0,646.872,-730.327,-0.0078125,0.570312,859.748,979695
0.0581665,-0.107544,0.759277,3.19473,8.51929,-6.5416,15.3823,2.0638,0,602.337,-478.515,-0.0078125,0.570312,859.749,979695
0.0621338,-0.0275879,0.708801,0.760651,3.65112,-6.38947,15.3805,2.07991,0,593.437,-621.523,-0.0078125,0.59375,859.77,979725
0.0159302,-0.0454712,1.08563,2.12982,-1.5213,-9.5842,15.3795,2.088,0,522.766,-645.224,0.0944882,0.632812,859.794,979740
-0.0570679,-0.134583,0.864685,3.65112,-0.912781,-8.67142,15.3784,2.09619,0,490.653,-739.946,0.133858,0.648438,859.809,979755
0.186707,0.0618286,1.05103,2.58621,-8.51929,-15.3651,15.3761,2.11247,0,313.598,-748.195,0.173228,0.648438,859.829,979785
0.264282,0.136169,0.870422,0.760651,1.06491,-27.6877,15.3749,2.12022,0,205.575,-787.929,0.19685,0.648438,859.849,979800
0.30603,0.0605469,0.813477,3.19473,3.65112,-44.7263,15.3722,2.13477,0,114.032,-783.607,0.23622,0.648438,859.869,979830
0.214966,0.120605,1.1308,3.65112,1.82556,-54.3105,15.3707,2.14156,0,66.0775,-667.49,0.267717,0.648438,859.889,979845
0.210999,0.0680542,0.900269,0.15213,-5.93307,-62.5255,15.3691,2.14806,0,66.0775,-663.57,0.275591,0.648438,859.909,979860
0.262939,0.1427,0.763062,6.08521,5.17242,-69.3713,15.3674,2.15425,0,66.0775,-625.117,0.283465,0.648438,859.929,979875
0.176636,0.147522,0.704773,0.912781,6.99799,-80.0204,15.3641,2.1658,0,8.66576,-607.423,0.291339,0.648438,859.949,979905
0.09729,0.119995,1.17059,0.45639,1.06491,-84.128,15.3625,2.17125,0,8.66576,-805.283,0.291339,0.53125,859.969,979920
0.125977,0.0959473,1.00922,1.5213,-3.80325,-88.2355,15.3609,2.17653,0,8.66576,-670.488,0.173228,0.445312,859.99,979935
