raw_accel_x,raw_accel_y,raw_accel_z,world_accel_x,world_accel_y,yaw,fused_heading,x,y,z,left_encoder_rate,right_encoder_rate,left_motor,right_motor,temp,fpga time,navx time
0.029541,0.00170898,1.01764,0.004,0,0.14,0.14,0.37709,0.982773,0,0,0,0,0,36.17,25.6351,3558931
0.024292,0.00115967,1.02014,-0.001,0,0,359.99,0,0,0,0,0,0.00763359,0,36.17,25.6434,3558947
0.0274658,0.00262451,1.01953,0.002,0.001,0,359.99,0,0,0,0,0,0.00763359,0,36.17,25.6614,3558961
0.0258789,0.00402832,1.0199,0,0.002,0,359.99,0,0,0,0,0,0.00763359,0,36.17,25.6803,3558976
0.0256348,0.000305176,1.02136,0,-0.001,0,359.99,0,0,0,0,0,0.00763359,0,36.17,25.6992,3558991
0.0261841,0.00299072,1.01617,0,0.001,0,359.99,0,0,0,0,0,0.00763359,0,36.17,25.72,3559021
0.0290527,0.00128174,1.01904,0.003,0,0,359.99,0,0,0,0,0,0.00763359,0,36.17,25.7408,3559036
0.0249634,0.000915527,1.01715,0,0,0,359.99,0,0,0,0,0,0.00763359,0,36.17,25.7591,3559051
0.0279541,-0.00262451,1.01819,0.002,-0.003,0,359.99,0,0,0,0,0,0.00763359,0,36.17,25.7785,3559067
0.027832,-0.000305176,1.0224,0.002,-0.001,0,359.99,0,0,0,0,0,0.00763359,0,36.17,25.7996,3559096
0.0253906,0.00158691,1.02252,0,0,0,359.99,0,0,0,0,0,0.00763359,0,36.17,25.8186,3559112
0.0245972,0.00244141,1.02081,0,0.001,0,359.99,0,0,0,0,0,0.00763359,0,36.17,25.8385,3559141
0.0276489,0.000366211,1.02191,0.002,-0.001,0,359.99,0,0,0,0,0,0.00763359,0,36.17,25.8588,3559156
0.0222778,-0.000305176,1.01727,-0.003,-0.001,0,359.99,0,0,0,0,0,0.00763359,0,36.21,25.8856,3559187
0.0222778,-0.000305176,1.01727,-0.003,-0.001,0,359.99,0,0,0,0,0,0.00763359,0,36.21,25.8988,3559187
0.0257568,-0.0012207,1.01819,0,-0.002,0,0,0,0,0,0,0,0.00763359,0,36.21,25.9192,3559216
0.026001,0.00012207,1.01672,0,-0.001,0,0,0,0,0,0,0,0.00763359,0,36.21,25.9388,3559231
0.024353,0.00280762,1.02069,-0.001,0.001,0,359.99,0,0,0,0,0,0.00763359,0,36.21,25.9591,3559247
0.0249023,0.00323486,1.02246,0,0.001,0,0,0,0,0,0,0,0.00763359,0,36.21,25.9801,3559277
0.0257568,0.0012207,1.01923,0,0,0,0,0,0,0,0,0,0.00763359,0,36.21,25.9996,3559292
0.0247803,0.00189209,1.02234,0,0,0,0,0,0,0,0,0,0.00763359,0,36.21,26.0188,3559307
0.0271606,0.00128174,1.01807,0.001,0,0,0,0,0,0,0,0,0.00763359,0,36.21,26.039,3559337
0.024292,0.00268555,1.02185,-0.001,0.001,0,359.99,0,0,0,0,0,0.00763359,0,36.21,26.0595,3559352
0.0255737,0.00012207,1.0199,0,-0.001,0,359.99,0,0,0,0,0,0.00763359,0,36.21,26.0793,3559367
0.0251465,0.003479,1.02185,0,0.002,0,359.99,0,0,0,0,0,0.00763359,0,36.21,26.0991,3559397
0.0245972,0.00341797,1.02399,0,0.002,0,359.99,0,0,0,0,0,0.00763359,0,36.21,26.1198,3559412
0.0263672,0.00360107,1.01794,0,0.002,0,359.99,0,0,0,0,0,0.00763359,0,36.21,26.1393,3559442
0.0241699,0.00189209,1.02484,-0.001,0,0,359.99,0,0,0,0,0,0.00763359,0,36.21,26.1589,3559457
0.0238037,0.000732422,1.02301,-0.001,0,0,359.99,0,0,0,0,0,0.00763359,0,36.21,26.1814,3559472
0.0267944,0.00311279,1.02216,0.001,0.001,0,359.99,0,0,0,0,0,0.00763359,0,36.21,26.2165,3559517
0.0267944,0.00311279,1.02216,0.001,0.001,0,359.99,0,0,0,0,0,0.00763359,0,36.21,26.2255,3559517
0.026062,0.00109863,1.02258,0,0,0,359.99,0,0,0,0,0,0.00763359,0,36.21,26.2448,3559547
0.0261841,0.0020752,1.01526,0,0,0,359.99,0,0,0,0,0,0.00763359,0,36.21,26.2598,3559562
0.0215454,0.00390625,1.02289,-0.004,0.002,0,359.99,0,0,0,0,0,0.00763359,0,36.21,26.2793,3559577
0.0271606,0.00250244,1.01758,0.001,0.001,0,359.99,0,0,0,0,0,0.00763359,0,36.21,26.2989,3559592
0.0272217,0.00268555,1.0155,0.001,0.001,0,359.99,0,0,0,0,0,0.00763359,0,36.21,26.319,3559622
0.0216675,-0.000305176,1.02893,-0.004,-0.001,0,359.99,0,0,0,0,0,0.00763359,0,36.21,26.3391,3559637
0.0267334,-0.000915527,1.0155,0.001,-0.002,0,359.99,0,0,0,0,0,0.00763359,0,36.21,26.3597,3559652
0.0268555,-0.00152588,1.02063,0.001,-0.002,0,359.99,0,0,0,0,0,0.00763359,0,36.18,26.381,3559682
0.0253296,0.000244141,1.01923,0,0,0,359.99,0,0,0,0,0,0.00763359,0,36.18,26.3987,3559697
0.0227661,0.00256348,1.01849,-0.002,0.001,0,359.99,0,0,0,0,0,0.00763359,0,36.18,26.4184,3559712
0.0255737,-0.000183105,1.02515,0,-0.001,0,359.99,0,0,0,0,0,0.00763359,0,36.18,26.4386,3559742
0.0251465,0.0032959,1.0199,0,0.002,0,359.99,0,0,0,0,0,0.00763359,0,36.18,26.4582,3559757
0.0283813,0.000549316,1.01477,0.002,0,0,359.99,0,0,0,0,0,0.00763359,0,36.18,26.4786,3559772
0.0221558,0.00213623,1.02209,-0.003,0.001,0,359.99,0,0,0,0,0,0.00763359,0,36.18,26.4986,3559787
0.0247192,-0.00274658,1.02228,0,-0.003,0,359.99,0,0,0,0,0,0.00763359,0,36.18,26.5195,3559817
0.0259399,0.000488281,1.01465,0,0,0,359.99,0,0,0,0,0,0.00763359,0,36.18,26.5383,3559832
0.0250244,0.00305176,1.02118,0,0.001,0,359.99,0,0,0,0,0,0.00763359,0,36.18,26.5591,3559862
0.0240479,0.00244141,1.02032,-0.001,0.001,0,359.99,0,0,0,0,0,0.00763359,0,36.18,26.5802,3559877
0.0238647,0.000488281,1.02045,-0.001,0,0,359.99,0,0,0,0,0,0.00763359,0,36.18,26.5987,3559892
0.0278931,-0.000427246,1.0224,0.002,-0.001,0,359.99,0,0,0,0,0,0.00763359,0,36.18,26.6187,3559907
0.0252686,-0.00195312,1.01447,0,-0.003,0,359.99,0,0,0,0,0,0.00763359,0,36.18,26.6391,3559937
0.0273438,0.00280762,1.01495,0.002,0.001,0,359.99,0,0,0,0,0,0.00763359,0,36.18,26.6609,3559952
0.0240479,0.00177002,1.02362,-0.001,0,0,0,0,0,0,0,0,0.00763359,0,36.18,26.7018,3559997
0.0234985,0.00140381,1.01807,-0.001,0,0,0,0,0,0,0,0,0.00763359,0,36.18,26.7209,3560012
0.0249023,-0.000244141,1.01898,0,-0.001,0,359.99,0,0,0,0,0,0.00763359,0,36.18,26.7393,3560042
0.0256348,0.00128174,1.02081,0,0,0,359.99,0,0,0,0,0,0.00763359,0,36.18,26.7592,3560057
0.0267944,-0.00109863,1.01532,0.001,-0.002,0,359.99,0,0,0,0,0,0.00763359,0,36.18,26.7797,3560072
0.0252075,0.000427246,1.01746,0,0,0,359.99,0,0,0,0,0,0.00763359,0,36.18,26.7991,3560102
0.0258789,0.000183105,1.02283,0,0,0,359.99,0,0,0,0,0,0.00763359,0,36.18,26.8192,3560117
0.0272217,0.000793457,1.02386,0.001,0,0,359.99,0,0,0,0,0,0.00763359,0,36.18,26.8391,3560132
0.0227661,0.000549316,1.0202,-0.002,0,0,359.99,0,0,0,0,0,0.00763359,0,36.18,26.8595,3560147
0.026123,0.00262451,1.01648,0,0.001,0,359.99,0,0,0,0,0,0.00763359,0,36.18,26.8784,3560177
0.0263672,-0.00177002,1.02112,0,-0.002,0,359.99,0,0,0,0,0,0.00763359,0,36.19,26.8978,3560192
0.0257568,0.00128174,1.01666,0,0,0,359.99,0,0,0,0,0,0.00763359,0,36.19,26.9197,3560222
0.0275269,0.00164795,1.01733,0.002,0,0,359.99,0,0,0,0,0,0.00763359,0,36.19,26.9409,3560237
0.0237427,0.000610352,1.01709,-0.001,0,0,359.99,0,0,0,0,0,0.00763359,0,36.19,26.959,3560252
0.0248413,0.00341797,1.01892,0,0.002,0,359.99,0,0,0,0,0,0.00763359,0,36.19,26.9788,3560267
0.0219727,0.000976562,1.0152,-0.003,0,0,359.99,0,0,0,0,0,0.00763359,0,36.19,26.9988,3560297
0.0263672,0.00445557,1.02667,0,0.003,0,359.99,0,0,0,0,0,0.00763359,0,36.19,27.0189,3560312
0.0246582,0.00164795,1.02325,0,0,0,359.99,0,0,0,0,0,0.00763359,0,36.19,27.0393,3560342
0.0270386,0.00213623,1.01617,0.001,0.001,0,359.99,0,0,0,0,0,0.00763359,0,36.19,27.059,3560357
0.0275879,0.00213623,1.01794,0.002,0.001,0,359.99,0,0,0,0,0,0.00763359,0,36.19,27.0796,3560372
0.0247192,-0.000549316,1.02228,0,-0.001,0,359.99,0,0,0,0,0,0.00763359,0,36.19,27.1008,3560402
0.0263062,0.00128174,1.02173,0,0,0,359.99,0,0,0,0,0,0.00763359,0,36.19,27.1192,3560417
0.0234985,0.000671387,1.01971,-0.001,0,0,359.99,0,0,0,0,0,0.00763359,0,36.19,27.14,3560432
0.0228882,0.00262451,1.01819,-0.002,0.001,0,359.99,0,0,0,0,0,0.00763359,0,36.19,27.1596,3560448
0.0282593,-0.000244141,1.02026,0.002,-0.001,0,359.99,0,0,0,0,0,0.00763359,0,36.19,27.1793,3560477
0.0253296,0.000671387,1.02661,0,0,0,359.99,0,0,0,0,0,0.00763359,0,36.19,27.199,3560492
0.0249634,0.000549316,1.0213,0,0,0,359.99,0,0,0,0,0,0.00763359,0,36.19,27.2197,3560522
0.0253906,-0.000793457,1.01422,0,-0.001,0,359.99,0,0,0,0,0,0.00763359,0,36.19,27.2392,3560537
0.0272827,0.00164795,1.02228,0.001,0,0,359.99,0,0,0,0,0,0.00763359,0,36.19,27.2586,3560552
0.0249634,-0.0032959,1.01648,0,-0.004,0,359.99,0,0,0,0,0,0.00763359,0,36.19,27.2784,3560568
0.0239258,0.000671387,1.01715,-0.001,0,0,359.99,0,0,0,0,0,0.00763359,0,36.19,27.2994,3560597
0.0233765,0.00280762,1.02417,-0.002,0.001,0,359.99,0,0,0,0,0,0.00763359,0,36.19,27.3193,3560612
0.0234985,-0.00012207,1.01672,-0.001,-0.001,0,359.99,0,0,0,0,0,0.00763359,0,36.19,27.339,3560628
0.0266724,0.00109863,1.01733,0.001,0,0,359.99,0,0,0,0,0,0.00763359,0,36.19,27.3593,3560657
0.0250854,0.00231934,1.02173,0,0.001,0,359.99,0,0,0,0,0,0.00763359,0,36.19,27.3787,3560672
0.0271606,-0.000732422,1.01526,0.001,-0.001,0,359.99,0,0,0,0,0,0.00763359,0,36.19,27.3987,3560688
0.0264282,0.00317383,1.01349,0.001,0.002,0,359.99,0,0,0,0,0,0.00763359,0,36.19,27.419,3560717
0.026062,0.00238037,1.0235,0,0.001,0,359.99,0,0,0,0,0,0.00763359,0,36.19,27.439,3560732
0.0246582,0.00262451,1.02386,0,0.001,0,359.99,0,0,0,0,0,0.00763359,0,36.19,27.4589,3560762
0.0254517,6.10352e-05,1.01715,0,-0.001,0,359.99,0,0,0,0,0,0.00763359,0,36.19,27.4789,3560777
0.0254517,0.00415039,1.02289,0,0.003,-0.01,359.98,0,0,0,0,0,0.00763359,0,36.19,27.5008,3560792
0.0283203,0.00183105,1.02136,0.002,0,-0.01,359.98,0,0,0,0,0,0.00763359,0,36.19,27.5198,3560822
0.0289307,0.003479,1.01843,0.003,0.002,-0.01,359.98,0,0,0,0,0,0.00763359,0,36.19,27.5389,3560837
0.0263672,-0.000488281,1.01996,0,-0.001,-0.01,359.98,0,0,0,0,0,0.00763359,0,36.19,27.5591,3560852
0.0271606,-0.000732422,1.02087,0.001,-0.001,-0.01,359.98,0,0,0,0,0,0.00763359,0,36.19,27.5796,3560882
0.0235596,0.00183105,1.0174,-0.001,0,-0.01,359.98,0,0,0,0,0,0.00763359,0,36.19,27.5984,3560897
0.0252075,0.00128174,1.02466,0,0,-0.01,359.98,0,0,0,0,0,0.00763359,0,36.19,27.6192,3560912
0.0254517,0.00305176,1.02106,0,0.001,-0.01,359.98,0,0,0,0,0,0.00763359,0,36.19,27.6391,3560943
0.0245972,0.00213623,1.02014,0,0,-0.01,359.98,0,0,0,0,0,0.00763359,0,36.19,27.6593,3560958
0.0231323,0.000427246,1.02087,-0.002,0,-0.01,359.98,0,0,0,0,0,0.00763359,0,36.19,27.6792,3560973
0.0282593,0.000976562,1.01648,0.002,0,-0.01,359.98,0,0,0,0,0,0.00763359,0,36.19,27.6992,3560988
0.0252686,-0.00274658,1.0174,0,-0.003,-0.01,359.98,0,0,0,0,0,0.00763359,0,36.19,27.7193,3561018
0.0236206,0.000793457,1.02191,-0.001,0,-0.01,359.98,0,0,0,0,0,0.00763359,0,36.19,27.739,3561033
0.0237427,-0.00256348,1.01782,-0.001,-0.003,-0.01,359.98,0,0,0,0,0,0.00763359,0,36.19,27.7592,3561048
0.0258179,0.000976562,1.01971,0,0,-0.01,359.98,0,0,0,0,0,0.00763359,0,36.19,27.7791,3561078
0.0219116,-0.00140381,1.02118,-0.003,-0.002,-0.01,359.98,0,0,0,0,0,0.00763359,0,36.19,27.7989,3561093
0.0254517,0.00518799,1.02515,0,0.003,-0.01,359.98,0,0,0,0,0,0.00763359,0,36.19,27.8192,3561123
0.02771,-0.000610352,1.01978,0.002,-0.001,-0.01,359.98,0,0,0,0,0,0,0,36.19,27.8394,3561138
0.0274658,-0.00158691,1.0202,0.001,-0.002,-0.01,359.98,0,0,0,0,0,0.0992366,0,36.19,27.8597,3561153
0.0262451,-0.00146484,1.02075,0,-0.002,-0.01,359.98,0,0,0,0,-267.251,0.0992366,0,36.19,27.8791,3561168
0.233643,-0.50061,1.00067,0.207,-0.497,-0.06,359.93,0.000183105,-0.000350952,0,0,-478.801,0.0992366,0,36.19,27.8997,3561198
0.344421,-0.471741,1.2218,0.31,-0.461,-0.17,359.82,0.000701904,-0.00135803,0,73.9295,-547.241,0.0992366,0,36.17,27.9214,3561213
0.437378,-0.363953,0.807007,0.413,-0.349,-0.35,359.64,0.00172424,-0.00291443,0,80.72,-425.795,0.0992366,0,36.17,27.9391,3561228
0.340759,-0.374512,0.894714,0.311,-0.347,-0.78,359.21,0.00482178,-0.00764465,0,74.0072,-596.232,0.0992366,0,36.17,27.9592,3561258
0.290344,-0.215759,1.13647,0.248,-0.179,-1.05,358.94,0.00691223,-0.0106506,0,155.486,-597.657,0.0992366,0,36.17,27.9795,3561273
0.121643,-0.23822,0.948303,0.087,-0.208,-1.36,358.63,0.00923157,-0.013916,0,265.601,-571.935,0.0992366,0,36.17,27.9994,3561288
0.182922,-0.221436,1.00171,0.146,-0.176,-2.85,357.14,0.0198364,-0.0294189,0,316.296,-752.899,0.0992366,0,36.17,28.0558,3561348
0.125793,-0.193237,0.994873,0.088,-0.147,-3.67,356.32,0.0257568,-0.0384521,0,297.252,-805.997,0.0992366,0,36.17,28.0803,3561378
0.017395,-0.23053,0.965881,-0.013,-0.191,-4.11,355.88,0.0288086,-0.0433044,0,316.356,-804.861,0.0992366,0,36.17,28.1043,3561393
0.180786,-0.171082,0.865173,0.151,-0.119,-5.01,354.98,0.0353088,-0.0534515,0,271.466,-876.962,0.0992366,0,36.17,28.1208,3561423
0.0109863,-0.00701904,1.2041,-0.048,0.042,-5.48,354.51,0.0387268,-0.0586243,0,364.106,-942.951,0.0992366,0,36.17,28.1394,3561438
0.147095,-0.1073,0.78186,0.116,-0.059,-5.96,354.03,0.0421906,-0.0638275,0,365.35,-1015.33,0.0992366,0,36.17,28.1595,3561453
0.140747,-0.12793,1.18054,0.091,-0.063,-6.44,353.55,0.0458069,-0.0691071,0,440.199,-1045.48,0.0992366,0,36.17,28.1791,3561468
0.26886,-0.0958862,0.850159,0.233,-0.025,-7.43,352.56,0.052948,-0.0798798,0,384.01,-1005.38,0.0992366,0,36.17,28.1984,3561498
0.105225,-0.0789795,1.36737,0.042,-0.008,-7.94,352.05,0.0567169,-0.0853271,0,416.571,-1044.39,0.0992366,0,36.17,28.2185,3561513
0.043335,-0.102295,0.651855,0.022,-0.068,-8.45,351.54,0.0605469,-0.0908203,0,407.465,-548.637,0.0992366,0,36.17,28.2387,3561528
0.122803,-0.153809,1.07446,0.086,-0.088,-9.48,350.51,0.0684204,-0.101959,0,442.811,-1179.87,0.0992366,0,36.17,28.2636,3561558
0.16803,-0.121643,1.00146,0.13,-0.049,-10.01,349.98,0.0725555,-0.107635,0,448.964,-838.926,0.0992366,0,36.17,28.2799,3561573
-0.0348511,0.0686646,1.36804,-0.122,0.115,-10.53,349.46,0.0766907,-0.113281,0,462.107,-891.981,0.0992366,0,36.17,28.2989,3561588
0.0195923,-0.00482178,0.65448,-0.017,0.024,-11.57,348.42,0.0850983,-0.12439,0,469.451,-1002.61,0.0992366,0,36.17,28.3204,3561618
0.0308228,-0.0723877,1.62781,-0.051,-0.003,-12.13,347.86,0.0892944,-0.129929,0,460.035,-942.063,0.0992366,0,36.17,28.3391,3561633
0.166992,-0.220947,0.577454,0.175,-0.157,-12.71,347.28,0.0935822,-0.13559,0,474.552,-968.476,0.0992366,0,36.17,28.3595,3561648
0.178284,-0.191528,0.702393,0.175,-0.118,-13.85,346.14,0.102203,-0.147079,0,436.5,-1170.82,0.0992366,0,36.17,28.3791,3561678
0.00811768,0.0155029,0.771729,-0.044,0.043,-14.4,345.59,0.106613,-0.152893,0,411.896,-1214.03,0.0992366,0,36.17,28.3983,3561693
0.0479736,0.0090332,1.31311,-0.037,0.065,-14.97,345.02,0.110977,-0.15863,0,479.49,-947.373,0.0992366,0,36.17,28.4185,3561708
0.133789,0.0687866,0.861694,0.057,0.131,-16.09,343.9,0.11998,-0.169891,0,491.957,-1038.37,0.0992366,0,36.16,28.4383,3561738
0.0975342,-0.0611572,0.779846,0.061,-0.006,-16.63,343.36,0.124634,-0.175369,0,451.6,-1052.3,0.0992366,0,36.16,28.4589,3561753
0.0239868,-0.0187378,1.39105,-0.057,0.03,-17.17,342.82,0.129303,-0.180847,0,521.281,-1061.29,0.0992366,0,36.16,28.4783,3561768
0.0530396,0.0288086,0.806641,-0.007,0.068,-18.22,341.77,0.138321,-0.191879,0,448.24,-624.239,0.0992366,0,36.16,28.4984,3561798
0.141663,0.098877,0.75592,0.055,0.161,-18.75,341.24,0.142838,-0.19725,0,448.964,-1231.83,0.0992366,0,36.16,28.5186,3561813
0.0515137,-0.0349121,1.01526,-0.001,0.012,-19.77,340.22,0.151932,-0.207596,0,501.882,-1002.96,0.0992366,0,36.16,28.5392,3561843
0.147095,-0.0384521,1.17694,0.081,0.046,-20.28,339.71,0.15654,-0.212708,0,445.961,-1126.06,0.0992366,0,36.16,28.5595,3561858
0.0494995,0.0139771,0.892334,-0.011,0.054,-20.78,339.21,0.161194,-0.217743,0,497.24,-1169.66,0.0992366,0,36.16,28.5795,3561873
0.179626,-0.0317383,1.11353,0.11,0.065,-21.79,338.2,0.170593,-0.227524,0,429.997,-1088.32,0.0992366,0,36.16,28.6061,3561903
0.0178223,-0.00390625,1.02698,-0.043,0.028,-22.3,337.69,0.175385,-0.2323,0,485.154,-1014.61,0.0992366,0,36.16,28.619,3561919
0.0967407,-0.0643311,1.10272,0.046,0.005,-22.8,337.19,0.180176,-0.237061,0,471.065,-1191.9,0.0992366,0,36.16,28.6389,3561933
0.0425415,0.0153198,0.941711,-0.024,0.053,-23.81,336.18,0.189804,-0.246414,0,522.575,-1142.47,0.0992366,0,36.16,28.6596,3561963
0.0663452,-0.0106812,1.35449,-0.016,0.048,-24.32,335.67,0.19458,-0.250977,0,477.806,-1084.6,0.0992366,0,36.16,28.6789,3561978
0.212341,-0.166077,0.733948,0.218,-0.045,-24.82,335.17,0.199493,-0.255539,0,485.296,-998.054,0.0992366,0,36.16,28.6987,3561993
0.0842285,0.0495605,0.906982,0,0.1,-25.34,334.65,0.204544,-0.260071,0,502.74,-1074.86,0.0992366,0,36.16,28.7199,3562009
0.137817,-0.0164185,1.03473,0.068,0.066,-26.39,333.6,0.214615,-0.268753,0,472.791,-704.201,0.0992366,0,36.16,28.7391,3562038
-0.0283203,0.00646973,1,-0.088,0.011,-26.92,333.07,0.21965,-0.272995,0,537.129,-1098.66,0.0992366,0,36.16,28.7594,3562053
0.175171,0.0388184,0.927795,0.081,0.131,-27.45,332.54,0.22467,-0.27713,0,455.726,-841.645,0.0992366,0,36.16,28.7791,3562069
0.117737,0.0289307,0.936584,0.032,0.095,-28.5,331.49,0.234787,-0.284851,0,461.766,-1136.56,0.0992366,0,36.16,28.8037,3562098
-0.0488892,-0.0319824,1.09491,-0.092,-0.036,-29.02,330.97,0.239792,-0.288589,0,557.864,-1067.18,0.0992366,0,36.16,28.8192,3562113
0.057373,0.0206909,1.15546,-0.029,0.062,-29.52,330.47,0.24472,-0.292313,0,502.614,-956.069,0.0992366,0,36.16,28.8386,3562129
-0.00244141,0.0203857,0.983704,-0.072,0.026,-30.51,329.48,0.254913,-0.299438,0,596.321,-975.419,0.0992366,0,36.16,28.8597,3562158
0.0419312,0.0875244,1.39716,-0.089,0.111,-31,328.99,0.259933,-0.302856,0,524.178,-956.617,0.0992366,0,36.16,28.8792,3562173
0.0507812,0.119507,0.892395,-0.071,0.137,-31.49,328.5,0.264847,-0.306122,0,627.668,-1044.11,0.0992366,0,36.16,28.899,3562189
0.00524902,0.00115967,1.09888,-0.06,0.01,-32.48,327.51,0.274689,-0.312149,0,456.871,-925.497,0.0992366,0,36.16,28.9196,3562218
0.262573,-0.0258179,0.916443,0.18,0.126,-32.97,327.02,0.279694,-0.315018,0,582.785,-957.075,0.0992366,0,36.12,28.9394,3562233
0.260559,0.076355,0.722412,0.13,0.21,-34,325.99,0.289749,-0.320282,0,490.689,-998.851,0.0992366,0,36.12,28.9634,3562263
-0.105103,0.0852051,1.01184,-0.191,0.01,-34.51,325.48,0.294754,-0.322662,0,502.993,-1053.46,0.0992366,0,36.12,28.979,3562278
0.159485,0.0498047,0.825012,0.054,0.131,-35.02,324.97,0.299652,-0.324936,0,491.787,-1123.22,0.0992366,0,36.12,28.9991,3562293
0.121033,0.137268,1.0014,-0.04,0.179,-36.05,323.94,0.309372,-0.328903,0,525.859,-866.363,0.0992366,0,36.12,29.0249,3562323
0.292847,-0.130859,0.916077,0.259,0.064,-36.57,323.42,0.314346,-0.330612,0,521.866,-940.69,0.0992366,0,36.12,29.0394,3562338
0.0276489,0.118286,1.31915,-0.125,0.103,-37.11,322.88,0.319412,-0.332199,0,530.87,-979.72,0.0992366,0,36.12,29.0595,3562353
0.282349,0.100281,0.854675,0.111,0.245,-37.65,322.34,0.324478,-0.333557,0,514.668,-1102.48,0.0992366,0,36.12,29.0787,3562369
0.219238,-0.0367432,0.702148,0.153,0.101,-38.72,321.27,0.334488,-0.335846,0,566.604,-1130.97,0.0992366,0,36.12,29.0986,3562398
0.0592651,0.133057,1.08099,-0.1,0.128,-39.26,320.73,0.339523,-0.336792,0,531.646,-951.249,0.0992366,0,36.12,29.119,3562413
0.144714,-0.00335693,0.93042,0.06,0.078,-39.79,320.2,0.344543,-0.337616,0,540.001,-1016.93,0.0992366,0,36.12,29.1385,3562429
0.169312,0.0305176,0.582458,0.074,0.125,-40.89,319.1,0.35434,-0.338928,0,510.204,-1139.34,0.0992366,0,36.12,29.1598,3562458
0.205688,0.0570068,1.09973,0.054,0.161,-41.45,318.54,0.359299,-0.339325,0,518.726,-1056.08,0.0992366,0,36.12,29.1788,3562473
0.121521,-0.0392456,0.982788,0.061,0.035,-42.01,317.98,0.364334,-0.3396,0,480.25,-1041.56,0.0992366,0,36.12,29.1984,3562489
0.264648,-0.0560303,0.612305,0.197,0.128,-43.08,316.91,0.374405,-0.339828,0,515.504,-1011.07,0.0992366,0,36.12,29.2188,3562518
-0.139832,0.0186157,1.18164,-0.176,-0.105,-43.62,316.37,0.379486,-0.339859,0,523.396,-996.562,0.0992366,0,36.12,29.2402,3562533
0.195374,-0.140869,0.817627,0.196,0.017,-44.14,315.85,0.384567,-0.339951,0,608.291,-1034.34,0.0992366,0,36.12,29.2589,3562549
-0.000427246,0.0257568,0.424805,-0.039,0.009,-45.17,314.82,0.394516,-0.34024,0,577.734,-1130.84,0.0992366,0,36.12,29.2789,3562578
0.213745,0.120544,1.01105,0.01,0.213,-45.69,314.3,0.399384,-0.340256,0,529.535,-928.85,0.0992366,0,36.12,29.2988,3562593
-0.0905762,0.0320435,1.77905,-0.171,-0.085,-46.75,313.24,0.409042,-0.33992,0,583.686,-1035.2,0.0992366,0,36.12,29.3195,3562623
0.0560303,-0.148132,0.763855,0.11,-0.077,-47.27,312.72,0.413788,-0.33989,0,483.945,-1083.66,0.0992366,0,36.12,29.3393,3562638
0.093811,0.153381,0.80957,-0.089,0.152,-47.79,312.2,0.418549,-0.339783,0,523.396,-956.343,0.0992366,0,36.12,29.3617,3562653
0.00421143,0.0327148,0.994324,-0.018,0.042,-48.83,311.16,0.42778,-0.339371,0,533.333,-965.437,0.0992366,0,36.12,29.3795,3562684
0.0969238,-0.010498,1.12872,0.02,0.037,-49.36,310.63,0.432373,-0.339081,0,544.321,-1198.97,0.0992366,0,36.12,29.3992,3562699
0.171692,0.0932617,0.876892,0,0.167,-49.9,310.09,0.436981,-0.338669,0,486.559,-1122.4,0.0992366,0,36.12,29.4201,3562714
0.0748291,-0.000976562,0.832642,0.011,0.032,-50.44,309.55,0.441589,-0.338104,0,464.63,-1232.67,0.0992366,0,36.12,29.4392,3562729
0.0513306,-0.00323486,1.27863,-0.024,-0.001,-51.54,308.45,0.451172,-0.336761,0,475.647,-1052.35,0.0992366,0,36.1,29.4593,3562759
0.333191,-0.157288,0.853455,0.289,0.139,-52.11,307.88,0.456192,-0.335953,0,459.105,-1097.33,0.0992366,0,36.1,29.479,3562774
-0.043457,0.0221558,0.779663,-0.08,-0.047,-52.69,307.3,0.461349,-0.335098,0,442.742,-1086.25,0.0992366,0,36.1,29.4994,3562789
0.0534058,0.0691528,0.932251,-0.067,0.051,-53.81,306.18,0.471497,-0.333572,0,458.926,-1164.89,0.0992366,0,36.1,29.5191,3562819
0.0167847,0.0706177,1.26508,-0.105,0.009,-54.38,305.61,0.47641,-0.332779,0,458.789,-958.222,0.0992366,0,36.1,29.5409,3562834
0.234131,-0.0117188,0.850464,0.105,0.153,-54.96,305.03,0.481339,-0.331879,0,480.111,-1031.62,0.0992366,0,36.1,29.5596,3562849
-0.126648,0.0713501,1.36078,-0.19,-0.119,-56.09,303.9,0.49118,-0.330017,0,456.381,-1035.57,0.0992366,0,36.1,29.5792,3562879
0.23468,0.171692,1.21442,-0.068,0.242,-56.66,303.33,0.49585,-0.329056,0,471.22,-1045.53,0.0992366,0,36.1,29.5988,3562894
-0.000732422,0.020813,0.682129,-0.048,-0.017,-57.21,302.78,0.500443,-0.327942,0,472.144,-1243.47,0.0992366,0,36.1,29.6194,3562909
-0.0279541,0.0214233,0.909729,-0.072,-0.05,-58.3,301.69,0.509262,-0.326004,0,492.502,-935.104,0.0992366,0,36.1,29.6394,3562939
0.0200806,0.148682,1.36163,-0.174,0.038,-58.83,301.16,0.513443,-0.325089,0,533.746,-1059.21,0.0992366,0,36.1,29.6611,3562954
0.0789185,0.0148315,0.745789,-0.004,0.044,-59.37,300.62,0.517487,-0.324127,0,512.518,-1021.76,0.0992366,0,36.1,29.6791,3562969
0.026123,0.03125,1.1178,-0.059,-0.009,-60.44,299.55,0.52562,-0.322052,0,514.814,-1137.92,0.0992366,0,36.1,29.6991,3562999
0.0315552,0.112366,1.4942,-0.142,0.016,-60.98,299.01,0.529541,-0.320984,0,535.92,-654.686,0.0992366,0,36.1,29.7191,3563014
0.0458374,-0.00842285,0.834045,-0.004,-0.002,-61.53,298.46,0.533356,-0.320984,0,525.97,-1288.49,0.0992366,0,36.1,29.7382,3563029
0.0230713,-0.135193,0.549866,0.108,-0.067,-62.59,297.4,0.540985,-0.320892,0,455.664,-992.014,0.0992366,0,36.1,29.7596,3563059
0.229248,0.0637207,1.30432,-0.003,0.173,-63.12,296.87,0.544907,-0.32077,0,534.088,-1197.82,0.0992366,0,36.1,29.7817,3563074
0.360229,-0.0098877,0.875183,0.132,0.279,-64.2,295.79,0.552979,-0.32016,0,545.137,-979.24,0.0992366,0,36.1,29.8019,3563104
-0.0800171,-0.00280762,1.19012,-0.076,-0.13,-64.73,295.26,0.557129,-0.319672,0,497.847,-999.101,0.0992366,0,36.1,29.8189,3563119
0.0479126,0.0440063,1.11066,-0.061,0.009,-65.27,294.72,0.561172,-0.319275,0,532.893,-1006.95,0.0992366,0,36.1,29.8384,3563134
-0.0223999,0.065918,1.21307,-0.114,-0.049,-65.82,294.17,0.565109,-0.318893,0,573.017,-1165.23,0.0992366,0,36.1,29.8587,3563149
0.173706,0.0124512,0.8172,0.025,0.124,-66.9,293.09,0.572632,-0.318085,0,523.122,-1194.17,0.0992366,0,36.1,29.8785,3563179
0.261963,-0.0402222,0.851868,0.106,0.183,-67.43,292.56,0.576462,-0.317413,0,500.877,-1101.99,0.0992366,0,36.1,29.8988,3563194
-0.128296,-0.0142822,1.177,-0.078,-0.183,-67.97,292.02,0.580307,-0.316742,0,511.587,-1075.15,0.0992366,0,36.1,29.9188,3563209
-0.0140381,0.0670776,0.886047,-0.1,-0.034,-69.07,290.92,0.587799,-0.314972,0,591.051,-1098.54,0.0992366,0,36.1,29.9387,3563239
0.235413,-0.0545654,0.865234,0.1,0.155,-69.63,290.36,0.591522,-0.313889,0,463.757,-630.159,0.0992366,0,36.07,29.9592,3563254
-0.11261,0.053894,1.07422,-0.128,-0.145,-70.19,289.8,0.595215,-0.31282,0,498.554,-1243.86,0.0992366,0,36.07,29.9792,3563269
0.0526123,0.0390015,1.04407,-0.058,0.005,-71.31,288.68,0.602097,-0.311829,0,469.451,-993.739,0.0992366,0,36.07,30,3563299
0.0369873,0.0315552,1.37433,-0.066,-0.029,-71.84,288.15,0.605392,-0.311844,0,457.07,-1060.16,0.0992366,0,36.07,30.0212,3563314
0.034668,0.00592041,1.14062,-0.035,-0.026,-72.85,287.14,0.612152,-0.311569,0,474.586,-1111.36,0.0992366,0,36.07,30.0411,3563344
0.311462,-0.0282593,0.918823,0.083,0.24,-73.36,286.63,0.615601,-0.311249,0,496.007,-1070.21,0.0992366,0,36.07,30.06,3563359
-0.0282593,0.0807495,1.24005,-0.128,-0.072,-73.9,286.09,0.619034,-0.310806,0,486.452,-938.967,0.0992366,0,36.07,30.0796,3563374
0.1698,0.0410767,1.35815,-0.039,0.1,-74.42,285.57,0.62233,-0.310333,0,481.371,-1030.77,0.0992366,0,36.07,30.0994,3563389
0.269592,0.00549316,0.589233,0.041,0.228,-75.45,284.54,0.628815,-0.309113,0,481.244,-1104.79,0.0992366,0,36.07,30.1189,3563419
0.00976562,0.120605,1.10291,-0.152,-0.026,-76,283.99,0.631973,-0.308289,0,520.888,-1184.41,0.0992366,0,36.07,30.1397,3563434
0.121948,-0.0714722,1.1604,0.06,0.033,-76.56,283.43,0.635071,-0.307449,0,492.477,-960.015,0.0992366,0,36.07,30.1604,3563449
0.0157471,0.0444946,0.786743,-0.065,-0.022,-77.67,282.32,0.64122,-0.305542,0,508.997,-1215.73,0.0992366,0,36.07,30.1839,3563479
0.145508,0.0728149,1.27411,-0.082,0.08,-78.24,281.75,0.644165,-0.30452,0,476.52,-1133.72,0.0992366,0,36.07,30.1992,3563494
0.250732,-0.0458374,0.94812,0.062,0.177,-79.37,280.62,0.649841,-0.302155,0,490.004,-1246.18,0.0992366,0,36.07,30.2214,3563524
-0.055481,-0.0944824,1.37579,0.042,-0.157,-79.93,280.06,0.652756,-0.300888,0,432.246,-984.737,0.0992366,0,36.07,30.2388,3563539
0.232849,-0.115173,0.448914,0.138,0.181,-80.47,279.52,0.655807,-0.299591,0,493.9,-1142.66,0.0992366,0,36.07,30.2603,3563554
0.0187378,0.142639,1.40753,-0.18,-0.05,-81.04,278.95,0.658813,-0.298218,0,499.988,-1172.95,0.0992366,0,36.07,30.2784,3563569
0.0505981,0.0228882,1.15759,-0.048,-0.022,-82.16,277.83,0.664612,-0.2957,0,474.327,-1008.73,0.0992366,0,36.07,30.2995,3563599
0.120911,-0.0838013,0.617554,0.081,0.068,-82.7,277.29,0.667542,-0.294434,0,479.076,-1001.9,0.0992366,0,36.07,30.3182,3563614
0.228088,0.000366211,1.33008,-0.009,0.138,-83.26,276.73,0.670502,-0.29303,0,493.157,-1075.27,0.0992366,0,36.07,30.3384,3563629
-0.137634,0.130859,1.62732,-0.183,-0.231,-84.38,275.61,0.67038,-0.290268,0,459.126,-888.455,0.0992366,0,36.07,30.3633,3563659
0.183289,-0.0022583,0.4375,0.007,0.152,-84.92,275.07,0.670135,-0.289032,0,494.535,-958.681,0.0992366,0,36.07,30.3782,3563674
0.0189819,0.0919189,1.13116,-0.116,-0.052,-85.46,274.53,0.66983,-0.287735,0,490.412,-1033.11,0.0992366,0,36.07,30.3988,3563689
-0.0491943,0.19342,1.04797,-0.217,-0.107,-86.53,273.46,0.668793,-0.285187,0,572.05,-1088.67,0.0992366,0,36.07,30.4185,3563719
0.321533,0.0802612,0.69696,-0.077,0.275,-87.03,272.96,0.667999,-0.283829,0,461.936,-589.901,0.0992366,0,36.07,30.4385,3563734
0.129333,0.0131226,1.00665,-0.026,0.059,-87.54,272.45,0.66713,-0.282242,0,558.488,-1108.28,0.0992366,0,36.07,30.4588,3563750
0.287537,-0.00616455,0.640259,0.002,0.24,-88.58,271.41,0.665375,-0.278931,0,478.114,-1036.7,0.0992366,0,36.02,30.4815,3563779
-0.124695,0.0647583,1.43164,-0.088,-0.225,-89.11,270.88,0.664444,-0.277206,0,463.951,-937.295,0.0992366,0,36.02,30.4985,3563794
0.186584,0.0339355,0.942993,-0.046,0.119,-89.63,270.36,0.663422,-0.275558,0,482.625,-1104.85,0.0992366,0,36.02,30.5189,3563810
0.0477905,-0.0217896,1.09448,0.006,-0.032,-90.68,269.31,0.661362,-0.27179,0,438.77,-1067.86,0.0992366,0,36.02,30.5398,3563839
-0.105042,0.0629883,1.28693,-0.076,-0.199,-91.23,268.76,0.660294,-0.27002,0,480.377,-994.431,0.0992366,0,36.02,30.559,3563854
0.34082,0.00836182,0.595825,-0.026,0.294,-91.78,268.21,0.659164,-0.268188,0,492.283,-1004.77,0.0992366,0,36.02,30.5789,3563870
0.378845,-0.0367432,0.917542,0.007,0.308,-92.9,267.09,0.656555,-0.263977,0,505.318,-1078.17,0.0992366,0,36.02,30.5991,3563899
0.0740967,-0.0123291,1.15527,-0.003,-0.013,-93.46,266.53,0.655212,-0.261581,0,451.101,-1111.11,0.0992366,0,36.02,30.6193,3563914
-0.0181885,0.0890503,1.10986,-0.098,-0.108,-94.01,265.98,0.653793,-0.259277,0,532.127,-1017.86,0.0992366,0,36.02,30.6388,3563930
0.00292969,-0.000427246,1.11188,-0.008,-0.083,-95.11,264.88,0.65065,-0.254791,0,499.788,-1069.75,0.0992366,0,36.02,30.6592,3563959
-0.114929,0.0223999,1.09473,-0.018,-0.202,-95.67,264.32,0.65065,-0.252777,0,541.243,-549.707,0.0992366,0,36.02,30.6791,3563974
0.103394,0.00744629,0.85614,-0.024,0.036,-96.22,263.77,0.65062,-0.250854,0,526.746,-1241.93,0.0992366,0,36.02,30.699,3563990
0.000549316,0.0107422,1.30798,-0.015,-0.103,-97.34,262.65,0.650177,-0.246246,0,474.316,-1062.64,0.0992366,0,36.02,30.7189,3564019
0.196777,0.0560913,0.680237,-0.085,0.132,-97.9,262.09,0.649841,-0.24382,0,482.509,-1097.27,0.0992366,0,36.02,30.7392,3564034
-0.0948486,0.12146,1.66156,-0.11,-0.238,-98.46,261.53,0.649368,-0.241455,0,501.14,-1179.11,0.0992366,0,36.02,30.7592,3564050
-0.125549,0.122803,1.3526,-0.1,-0.247,-99.57,260.42,0.648346,-0.23674,0,491.618,-974.706,0.0992366,0,36.02,30.7812,3564079
0.307373,0.0201416,0.859924,-0.073,0.231,-100.1,259.89,0.647705,-0.234406,0,492.574,-969.415,0.0992366,0,36.02,30.7992,3564094
-0.11792,0.181824,1.35809,-0.155,-0.252,-100.63,259.36,0.646912,-0.232086,0,478.893,-1089.92,0.0992366,0,36.02,30.8192,3564110
0.244019,-0.0322876,0.721802,-0.015,0.19,-101.64,258.35,0.644897,-0.227264,0,541.521,-1008.37,0.0992366,0,36.02,30.8396,3564139
0.145813,0.0693359,1.17596,-0.093,0.039,-102.16,257.83,0.643768,-0.224564,0,490.918,-1071.98,0.0992366,0,36.02,30.8601,3564154
0.0541382,0.0855713,1.14246,-0.09,-0.052,-102.69,257.3,0.642517,-0.221893,0,516.596,-921.447,0.0992366,0,36.02,30.8792,3564170
-0.0485229,0.0592651,0.841553,-0.04,-0.125,-103.75,256.24,0.639771,-0.216324,0,538.721,-1200.19,0.0992366,0,36.02,30.9059,3564199
0.122192,0.0402832,1.09753,-0.061,0.026,-104.28,255.71,0.63829,-0.213593,0,527.704,-610.37,0.0992366,0,36.02,30.9196,3564214
0.186951,0.055542,1.01666,-0.093,0.089,-104.8,255.19,0.636719,-0.210785,0,599.107,-1233.27,0.0992366,0,36.02,30.9393,3564230
0.167297,0.0447388,0.901611,-0.08,0.079,-105.91,254.08,0.633286,-0.205139,0,471.62,-1058.99,0.0992366,0,36.02,30.9596,3564259
0.139709,-0.0357056,0.916626,0.004,0.073,-106.46,253.53,0.63147,-0.202209,0,520.373,-1070.95,0.0992366,0,35.95,30.9786,3564274
0.261597,-0.135925,0.982971,0.065,0.213,-107.01,252.98,0.629715,-0.199097,0,544.647,-1149.76,0.0992366,0,35.95,30.9983,3564290
0.276733,0.0334473,0.776184,-0.108,0.191,-108.11,251.88,0.626251,-0.192734,0,476.077,-952.789,0.0992366,0,35.95,31.0186,3564320
0.0777588,0.123108,1.43835,-0.122,-0.077,-108.68,251.31,0.624329,-0.189453,0,517.96,-990.933,0.0992366,0,35.95,31.0382,3564334
0.162292,-0.0748901,0.835876,0.028,0.113,-109.21,250.78,0.62236,-0.186157,0,493.024,-1123.09,0.0992366,0,35.95,31.0586,3564350
0.0518188,-0.012207,0.765808,0.004,-0.006,-110.32,249.67,0.618362,-0.179337,0,459.284,-1126.51,0.0992366,0,35.95,31.0788,3564380
0.121338,0.0570068,0.759277,-0.084,0.032,-110.87,249.12,0.616302,-0.175903,0,446.847,-1078.75,0.0992366,0,35.95,31.0987,3564395
0.211975,0.0330811,1.47797,-0.084,0.068,-111.43,248.56,0.61412,-0.172394,0,447.487,-1112.53,0.0992366,0,35.95,31.119,3564410
0.0311279,0.0740356,0.819763,-0.066,-0.063,-112.55,247.44,0.609695,-0.165436,0,490.906,-1164.55,0.0992366,0,35.95,31.1385,3564440
-0.0484619,0.072998,1.00873,-0.03,-0.152,-113.09,246.9,0.607407,-0.162155,0,438.596,-731.743,0.0992366,0,35.95,31.1599,3564455
0.0918579,0.0634155,0.889709,-0.079,-0.008,-113.62,246.37,0.605042,-0.158981,0,501.505,-1436.27,0.0992366,0,35.95,31.1791,3564470
0.191833,0.115601,1.25983,-0.16,0.031,-114.67,245.32,0.599976,-0.153076,0,529.493,-1030.34,0.0992366,0,35.95,31.2005,3564500
0.393494,-0.0162354,0.771179,-0.137,0.303,-115.19,244.8,0.597168,-0.149979,0,492.817,-1197.89,0.0992366,0,35.95,31.2191,3564515
0.157471,0.0929565,0.82843,-0.133,0.038,-115.69,244.3,0.594177,-0.146637,0,603.646,-1146.92,0.0992366,0,35.95,31.2392,3564530
0.299011,0.000671387,1.15955,-0.107,0.179,-116.73,243.26,0.587967,-0.139877,0,508.44,-897.989,0.0992366,0,35.95,31.2591,3564560
0.131348,-0.0512085,0.899536,0.008,0.071,-117.26,242.73,0.584747,-0.136292,0,533.319,-1059.27,0.0992366,0,35.95,31.2792,3564575
0.359863,0.142822,0.995056,-0.268,0.176,-117.81,242.18,0.581375,-0.132538,0,506.74,-1152.67,0.0992366,0,35.95,31.2992,3564590
-0.0682983,0.144836,1.61938,-0.048,-0.249,-118.9,241.09,0.574341,-0.125,0,482.952,-1228.88,0.0992366,0,35.95,31.319,3564620
0.244263,0.0290527,0.378052,-0.134,0.168,-119.44,240.55,0.570709,-0.121368,0,533.333,-1079.33,0.0992366,0,35.95,31.3387,3564635
-0.109131,0.0739136,1.31989,0.029,-0.231,-120,239.99,0.567001,-0.117783,0,451.539,-1106.07,0.0992366,0,35.95,31.3601,3564650
0.0535278,-0.0552368,1.12537,0.055,-0.014,-121.11,238.88,0.559616,-0.110748,0,531.943,-1139.67,0.0992366,0,35.95,31.38,3564680
0.0526123,0.160156,1.18414,-0.126,-0.129,-121.67,238.32,0.555893,-0.1073,0,440.946,-708.516,0.0992366,0,35.95,31.3992,3564695
0.312134,0.0544434,0.628174,-0.191,0.184,-122.21,237.78,0.551941,-0.103806,0,504.936,-1391.69,0.0992366,0,35.95,31.4189,3564710
0.207214,0.00628662,0.937927,-0.087,0.097,-123.3,236.69,0.543823,-0.0968018,0,560.852,-1088.44,0.0992366,0,35.95,31.4393,3564740
0.0866699,-0.00012207,1.19232,-0.007,-0.018,-123.84,236.15,0.539688,-0.0932465,0,559.206,-1132.44,0.0992366,0,35.95,31.46,3564755
0.147339,0.0528564,0.771301,-0.099,0.031,-124.38,235.61,0.535492,-0.0896912,0,510.608,-1186.24,0.0992366,0,35.95,31.4793,3564770
0.168152,-0.126282,0.785461,0.035,0.148,-125.48,234.51,0.526886,-0.082489,0,478.423,-993.394,0.0992366,0,35.88,31.4993,3564800
0.141846,0.0479736,1.55457,-0.063,-0.03,-126.05,233.94,0.522583,-0.0787811,0,477.088,-1019.21,0.0992366,0,35.88,31.5193,3564815
0.163574,-0.0755615,0.703064,-0.009,0.122,-126.6,233.39,0.518219,-0.0749817,0,507.382,-1082.49,0.0992366,0,35.88,31.5391,3564830
-0.0203857,0.139343,1.29456,-0.045,-0.196,-127.68,232.31,0.518173,-0.0677185,0,455.726,-1092.96,0.0992366,0,35.88,31.5597,3564860
0.124817,0.00848389,0.721863,-0.054,0.039,-128.21,231.78,0.518066,-0.0643311,0,487.936,-1157.34,0.0992366,0,35.88,31.5792,3564875
0.183167,0.074646,1.10156,-0.128,0.016,-128.73,231.26,0.517838,-0.0608826,0,554.063,-1046.41,0.0992366,0,35.88,31.599,3564890
0.0471191,-0.0313721,0.908875,0.033,-0.01,-129.8,230.19,0.517075,-0.0541077,0,475.105,-1024.64,0.0992366,0,35.88,31.6194,3564920
0.251831,-0.134827,0.96759,-0.016,0.207,-130.34,229.65,0.516678,-0.0506134,0,489.86,-1172.13,0.0992366,0,35.88,31.6382,3564935
0.210693,0.247742,1.99994,-0.245,-0.134,-130.85,229.14,0.516113,-0.0470581,0,460.946,-1181.89,0.0992366,0,35.88,31.6596,3564950
-0.380127,0.0584106,1.84528,0.292,-0.449,-131.84,228.15,0.514099,-0.0395508,0,478.126,-1221.37,0.0992366,0,35.88,31.6789,3564980
0.25116,-0.133728,0.475769,-0.049,0.242,-132.35,227.64,0.513229,-0.0359497,0,535.217,-905.797,0.0992366,0,35.88,31.6985,3564995
-0.0518188,0.200989,1.4884,-0.046,-0.272,-132.85,227.14,0.512299,-0.0323639,0,503.69,-1012.56,0.0992366,0,35.88,31.7183,3565010
-0.0686035,0.128967,0.522034,-0.021,-0.173,-133.85,226.14,0.5103,-0.0254822,0,547.75,-1091.7,0.0992366,0,35.88,31.739,3565040
0.289246,-0.111755,0.852478,-0.08,0.225,-134.35,225.64,0.509232,-0.0220337,0,518.713,-1130.26,0.0992366,0,35.88,31.7584,3565055
0.00836182,0.0192261,1.46912,0.048,-0.103,-134.86,225.13,0.508133,-0.0185089,0,511.065,-976.467,0.0992366,0,35.88,31.7787,3565070
-0.0460815,-0.026123,1.16589,0.106,-0.089,-135.9,224.09,0.505753,-0.0111847,0,471.42,-1082.78,0.0992366,0,35.88,31.8008,3565100
0.155396,-0.032959,0.579285,-0.062,0.092,-136.42,223.57,0.504578,-0.00747681,0,554.585,-1124.99,0.0992366,0,35.88,31.8192,3565115
-0.0379028,0.0224609,1.6214,0.089,-0.147,-136.94,223.05,0.503433,-0.00379944,0,517.117,-922.594,0.0992366,0,35.88,31.8402,3565130
0.146729,0.0827026,1.37482,-0.099,-0.051,-138.02,221.97,0.501175,0.00369263,0,469.362,-973.615,0.0992366,0,35.88,31.8591,3565160
0.103638,-0.145386,0.647461,0.05,0.135,-138.56,221.43,0.499969,0.0075531,0,518.215,-1038.31,0.0992366,0,35.88,31.8788,3565175
0.105835,0.000305176,1.46338,-0.009,-0.024,-139.12,220.87,0.49881,0.0114899,0,545.986,-1232.67,0.0992366,0,35.88,31.9,3565190
0.193054,0.0692749,0.96106,-0.145,0.008,-140.22,219.77,0.496445,0.019455,0,469.241,-987.996,0.0992366,0,35.88,31.9275,3565220
0.359741,-0.0112305,0.788025,-0.231,0.184,-140.76,219.23,0.494965,0.0235901,0,483.501,-1001.1,0.0992366,0,35.88,31.9391,3565235
-0.0345459,0.11731,1.11102,0.009,-0.182,-141.31,218.68,0.493347,0.0277252,0,514.509,-990.148,0.0992366,0,35.88,31.9597,3565250
0.105225,0.116455,0.973145,-0.104,-0.088,-142.41,217.58,0.489838,0.0352631,0,438.279,-1071.01,0.0992366,0,35.88,31.9785,3565280
0.163879,0.0673828,1.03864,-0.117,-0.018,-142.96,217.03,0.487869,0.0388489,0,494.866,-1077.12,0.0992366,0,35.88,31.9991,3565295
0.385559,-0.0742188,0.858276,-0.219,0.235,-143.49,216.5,0.485672,0.042572,0,511.797,-823.113,0.0992366,0,35.88,32.0184,3565310
0.128906,0.117554,1.53961,-0.09,-0.112,-144.62,215.37,0.480942,0.0499725,0,490.088,-1033.75,0.0992366,0,35.88,32.0401,3565340
0.253296,-0.146973,0.54187,-0.093,0.232,-145.18,214.81,0.478439,0.0536652,0,531.42,-1154.8,0.0992366,0,35.88,32.0585,3565355
0.0100708,0.164246,1.14581,-0.035,-0.196,-145.75,214.24,0.475845,0.0573883,0,462.299,-1109.88,0.0992366,0,35.88,32.0791,3565370
-0.10907,0.17688,1.22754,0.065,-0.276,-146.92,213.07,0.470444,0.0644684,0,426.13,-1020.67,0.0992366,0,35.88,32.0997,3565400
0.237549,0.000305176,0.971558,-0.142,0.071,-147.51,212.48,0.467682,0.0677948,0,456.204,-1042.37,0.0992366,0,35.88,32.1189,3565415
0.139465,0.0452271,0.959717,-0.084,-0.019,-148.1,211.89,0.464752,0.0711517,0,432.685,-1113.46,0.0992366,0,35.88,32.1387,3565431
0.15741,0.0274048,1.32562,-0.067,-0.016,-149.31,210.68,0.45871,0.0780334,0,419.489,-1160.63,0.0992366,0,35.88,32.1596,3565460
0.00622559,0.0354614,0.807495,0.027,-0.072,-149.91,210.08,0.455627,0.0814362,0,461.99,-973.425,0.0992366,0,35.88,32.1788,3565475
0.114136,0.104126,0.919312,-0.091,-0.085,-150.52,209.47,0.452499,0.0847321,0,531.463,-1090.27,0.0992366,0,35.88,32.1993,3565491
0.115723,-0.128601,0.727234,0.006,0.128,-151.74,208.25,0.446213,0.0911865,0,465.333,-1158.08,0.0992366,0,35.88,32.2189,3565520
0.184326,0.123169,1.0033,-0.154,-0.078,-152.37,207.62,0.442978,0.0944824,0,488.675,-1136.75,0.0992366,0,35.88,32.239,3565535
-0.0691528,0.0112305,1.02386,0.125,-0.096,-153,206.99,0.439713,0.0976562,0,446.04,-1090.63,0.0992366,0,35.88,32.2592,3565551
0.264343,-0.00878906,1.06964,-0.159,0.065,-154.25,205.74,0.433243,0.103714,0,487.615,-1197.6,0.0992366,0,35.88,32.2798,3565580
0.286377,-0.0812988,1.02271,-0.154,0.141,-154.86,205.13,0.429733,0.106873,0,474.08,-1140.12,0.0992366,0,35.88,32.3003,3565595
0.10791,0.145325,0.971802,-0.091,-0.137,-155.48,204.51,0.426056,0.110046,0,494.205,-1050.09,0.0992366,0,35.88,32.3188,3565611
-0.0977173,0.0269775,1.18146,0.161,-0.119,-157.26,202.73,0.414963,0.119049,0,520.82,-1001.55,0.0992366,0,35.88,32.356,3565655
0.234924,0.0534058,0.866638,-0.177,-0.003,-157.84,202.15,0.411285,0.121918,0,469.848,-1142.2,0.0992366,0,35.88,32.3788,3565671
-0.0786133,0.0701904,1.18842,0.132,-0.148,-159.04,200.95,0.403687,0.127411,0,406.827,-1167.47,0.0992366,0,35.88,32.399,3565700
0.326599,0.132019,1.09131,-0.274,-0.062,-159.62,200.37,0.399811,0.129944,0,546.135,-881.096,0.0992366,0,35.88,32.4191,3565715
-0.0993042,-0.03302,0.972839,0.173,-0.043,-160.17,199.82,0.395874,0.132401,0,514.681,-1163.87,0.0992366,0,35.88,32.4395,3565732
-0.026062,0.086853,1.08752,0.073,-0.134,-161.24,198.75,0.388382,0.137283,0,483.465,-1288.91,0.0992366,0,35.88,32.4593,3565760
0.199768,0.0545044,0.493164,-0.169,-0.01,-161.78,198.21,0.384613,0.139618,0,483.103,-1066.61,0.0992366,0,35.88,32.4797,3565775
-0.06073,0.181946,1.39545,0.102,-0.245,-162.35,197.64,0.380783,0.141754,0,517.331,-1257.78,0.0992366,0,35.88,32.4997,3565791
0.106079,-0.129639,0.723572,-0.011,0.126,-163.49,196.5,0.373459,0.145477,0,390.678,-1261.19,0.0992366,0,35.88,32.5193,3565820
0.159119,-0.231323,0.867065,-0.028,0.232,-164.69,195.3,0.366394,0.14949,0,444.474,-1017.5,0.0992366,0,35.88,32.5572,3565851
0.152649,0.0502319,0.898743,-0.091,-0.044,-165.91,194.08,0.359283,0.15387,0,437.092,-1139.41,0.0992366,0,35.88,32.5795,3565880
-0.00170898,-0.0397949,1.06091,0.093,0,-166.52,193.47,0.355682,0.156006,0,464.932,-716.872,0.0992366,0,35.88,32.5999,3565895
0.245239,0.019165,1.29736,-0.145,-0.01,-167.12,192.87,0.352051,0.158142,0,429.747,-1116.69,0.0992366,0,35.88,32.6203,3565911
-0.00823975,0.121704,1.37207,0.089,-0.168,-168.34,191.65,0.344269,0.162369,0,450.319,-1007.96,0.0992366,0,35.88,32.6393,3565940
0.0496216,0.0524902,0.951355,0.016,-0.075,-168.93,191.06,0.340408,0.164276,0,407.216,-1183.5,0.0992366,0,35.88,32.6583,3565955
-0.00787354,0.0633545,1.27148,0.095,-0.107,-169.52,190.47,0.336639,0.166061,0,446.758,-1157.61,0.0992366,0,35.88,32.6782,3565971
0.123779,0.0470581,1.27484,-0.029,-0.068,-170.72,189.27,0.328506,0.169434,0,383.988,-1015.18,0.0992366,0,35.88,32.6984,3566000
-0.140503,-0.0415039,1.10815,0.233,-0.015,-171.3,188.69,0.324463,0.171051,0,453.176,-998.702,0.0992366,0,35.88,32.7185,3566015
0.134399,0.067627,0.95697,-0.067,-0.078,-171.86,188.13,0.320526,0.172592,0,423.513,-1145.67,0.0992366,0,35.88,32.7392,3566031
0.0210571,-0.0032959,0.970947,0.057,-0.023,-173.02,186.97,0.312866,0.175339,0,439.57,-1267.19,0.0992366,0,35.88,32.7583,3566060
0.103394,-0.0319214,1.25195,0.002,0.005,-173.6,186.39,0.309143,0.176666,0,402.877,-1114.64,0.0992366,0,35.88,32.7785,3566075
0.0900879,-0.0458984,0.977417,-0.006,0.026,-174.18,185.81,0.309143,0.177994,0,466.32,-1158.28,0.0992366,0,35.88,32.7995,3566091
0.115784,0.0010376,0.905823,-0.04,-0.017,-175.32,184.67,0.30899,0.180542,0,457.007,-1213,0.0992366,0,35.88,32.8192,3566121
0.119202,-6.10352e-05,1.08771,-0.029,-0.021,-175.9,184.09,0.308838,0.181763,0,425.641,-745.212,0.0992366,0,35.88,32.8394,3566136
0.180542,0.0605469,0.978455,-0.102,-0.076,-176.47,183.52,0.308578,0.182907,0,482.567,-1024.38,0.0992366,0,35.88,32.8592,3566151
-0.0531616,0.0830078,1.01569,0.134,-0.11,-177.67,182.32,0.307861,0.184937,0,475.477,-1082.78,0.0992366,0,35.88,32.8792,3566181
0.0476685,0.0968628,1.11853,0.043,-0.122,-178.28,181.71,0.307648,0.185745,0,474.563,-1328.64,0.0992366,0,35.88,32.8998,3566196
0.0508423,-0.0151978,0.820374,0.018,-0.003,-178.87,181.12,0.307465,0.186462,0,435.189,-1041.02,0.0992366,0,35.88,32.9191,3566211
0.151489,-0.0812988,0.7547,-0.087,0.064,179.92,179.92,0.306961,0.187653,0,486.523,-1064.57,0.0992366,0,35.88,32.9389,3566241
-0.0316772,0.0253906,0.873352,0.106,-0.043,179.34,179.34,0.306686,0.188217,0,494.401,-1164.14,0.0992366,0,35.88,32.9595,3566256
0.107544,0.0255737,1.0426,-0.017,-0.049,178.75,178.75,0.306458,0.188736,0,516.836,-1199.4,0.0992366,0,35.88,32.9791,3566271
0.14679,-0.0175781,0.642517,-0.09,-0.001,177.59,177.59,0.305939,0.189423,0,454.174,-1179.11,0.0992366,0,35.88,33.0002,3566301
-0.00170898,0.0106201,1.23969,0.108,-0.032,177,177,0.305649,0.189713,0,444.79,-1127.33,0.0992366,0,35.86,33.0193,3566316
-0.142761,0.115112,1.75909,0.3,-0.133,175.81,175.81,0.305115,0.190536,0,479.34,-1010,0.0992366,0,35.86,33.044,3566346
0.204041,0.108276,0.640137,-0.138,-0.135,175.24,175.24,0.305008,0.190781,0,513.123,-960.476,0.0992366,0,35.86,33.0618,3566361
0.119141,0.0997925,0.929749,-0.027,-0.124,174.66,174.66,0.304779,0.190857,0,467.771,-1135.98,0.0992366,0,35.86,33.079,3566376
0.0244141,0.0142822,1.3136,0.092,-0.034,174.09,174.09,0.304611,0.190811,0,498.231,-1067.98,0.0992366,0,35.86,33.0997,3566391
0.0430908,0.0906982,0.824768,0.04,-0.105,173,173,0.304016,0.190781,0,539.302,-1259.68,0.0992366,0,35.86,33.1193,3566421
0.236816,0.0571899,1.11041,-0.129,-0.099,172.44,172.44,0.303619,0.190613,0,462.717,-962.835,0.0992366,0,35.86,33.1401,3566436
0.0541382,-0.0849609,0.454651,-0.024,0.072,171.88,171.88,0.303116,0.19043,0,442.312,-1100.17,0.0992366,0,35.86,33.1602,3566451
0.137451,-0.225098,-0.197693,-0.187,0.201,170.84,170.84,0.302734,0.190155,0,505.638,-1020.56,0.0992366,0,35.86,33.18,3566481
-0.138855,0.0775757,1.39642,0.268,-0.062,170.32,170.32,0.302673,0.190155,0,462.257,-1246.88,0.0992366,0,35.86,33.1999,3566496
0.150818,-0.120483,1.09991,-0.079,0.084,169.78,169.78,0.302734,0.190186,0,490.569,-1023.8,0.0992366,0,35.86,33.2193,3566511
0.00683594,-0.0598755,1.32977,0.093,0.049,168.7,168.7,0.302399,0.190216,0,433.783,-1185.89,0.0992366,0,35.86,33.2383,3566541
0.18927,0.116333,0.975098,-0.08,-0.157,168.15,168.15,0.3022,0.190155,0,517.197,-1180.01,0.0992366,0,35.86,33.2591,3566556
0.151367,-0.0637207,0.733948,-0.098,0.027,167.59,167.59,0.301865,0.190018,0,453.432,-1204.6,0.0992366,0,35.86,33.2788,3566571
0.0984497,0.00769043,0.871704,-0.018,-0.031,166.48,166.48,0.301331,0.189407,0,538.895,-1070.32,0.0992366,0,35.86,33.2984,3566601
0.248962,-0.00531006,0.884705,-0.164,-0.056,165.89,165.89,0.300964,0.188995,0,518.054,-1129.05,0.0992366,0,35.86,33.3182,3566616
-0.00878906,-0.0730591,1.1571,0.09,0.073,165.3,165.3,0.300568,0.188583,0,487.116,-1089.15,0.0992366,0,35.86,33.3382,3566631
0.0270996,0.0598145,1.08612,0.086,-0.063,164.14,164.14,0.299255,0.187851,0,517.117,-939.099,0.0992366,0,35.86,33.3588,3566661
0.0460815,0.106689,1.12061,0.083,-0.113,163.57,163.57,0.298645,0.187363,0,501.09,-1018.64,0.0992366,0,35.86,33.3785,3566676
0.290894,0.0715332,0.829407,-0.182,-0.151,162.98,162.98,0.297958,0.186691,0,511.326,-1166.93,0.0992366,0,35.86,33.3992,3566691
0.372864,0.0373535,1.19647,-0.238,-0.146,161.84,161.84,0.2966,0.185303,0,465.604,-1068.49,0.0992366,0,35.86,33.4184,3566721
0.164673,0.165588,1.22345,0.006,-0.202,160.69,160.69,0.294693,0.183762,0,489.165,-1043.19,0.0992366,0,35.86,33.4585,3566751
-0.124695,-0.0130615,1.09357,0.208,0.064,159.56,159.56,0.29483,0.181824,0,393.174,-1170.34,0.0992366,0,35.86,33.4794,3566781
0.261658,0.100769,1.12372,-0.11,-0.179,159,159,0.295029,0.180771,0,504.936,-975.515,0.0992366,0,35.86,33.4996,3566796
0.0411377,0.0673218,0.733765,0.05,-0.071,158.42,158.42,0.295181,0.17955,0,525.914,-1079.51,0.0992366,0,35.86,33.5199,3566811
0.0543823,0.0585327,0.904846,0.049,-0.065,157.3,157.3,0.295837,0.176743,0,479.249,-1184.06,0.0992366,0,35.87,33.5413,3566841
0.181152,0.141785,1.26208,-0.003,-0.187,156.75,156.75,0.296265,0.17511,0,479.731,-1263.26,0.0992366,0,35.87,33.5606,3566856
0.0498047,0.0264282,0.92157,0.041,-0.032,156.2,156.2,0.296707,0.173325,0,526.357,-947.463,0.0992366,0,35.87,33.5797,3566871
0.0865479,-0.0167847,1.01465,-0.001,-0.005,155.09,155.09,0.297745,0.169525,0,417.606,-1144.95,0.0992366,0,35.87,33.5991,3566901
0.0206909,0.135498,1.16437,0.134,-0.113,154.53,154.53,0.29837,0.167511,0,463.124,-1270.97,0.0992366,0,35.87,33.6192,3566916
0.0378418,0.0579834,0.90509,0.067,-0.053,153.97,153.97,0.299133,0.16539,0,488.639,-1245.64,0.0992366,0,35.87,33.6388,3566931
0.00994873,-0.0175171,1.24915,0.088,0.033,152.83,152.83,0.300507,0.16098,0,425.432,-1192.61,0.0992366,0,35.87,33.6592,3566961
0.122559,-0.069458,0.999268,-0.054,0.022,152.24,152.24,0.301193,0.158798,0,482.032,-1266.22,0.0992366,0,35.87,33.6792,3566976
0.015564,0.0110474,0.899658,0.069,0,151.65,151.65,0.30188,0.156631,0,427.487,-1042.48,0.0992366,0,35.87,33.6981,3566991
0.0446167,0.147156,0.951233,0.113,-0.131,151.03,151.03,0.302704,0.154388,0,471.065,-1103.39,0.0992366,0,35.87,33.7182,3567006
0.19696,0.00543213,0.740356,-0.105,-0.087,149.89,149.89,0.304733,0.14975,0,420.089,-1129.18,0.0992366,0,35.87,33.7382,3567036
0.115967,0.0708008,0.641235,-0.009,-0.105,149.31,149.31,0.305679,0.147293,0,449.559,-1113.65,0.0992366,0,35.87,33.7595,3567051
-0.0845337,-0.0773926,1.08508,0.12,0.137,148.13,148.13,0.307465,0.142288,0,431.583,-1172.61,0.0992366,0,35.87,33.7814,3567081
0.293762,0.110962,0.862183,-0.114,-0.228,147.54,147.54,0.30838,0.139755,0,431.891,-1236.4,0.0992366,0,35.87,33.802,3567096
0.261536,0.135132,0.797913,-0.077,-0.234,146.97,146.97,0.309158,0.136902,0,425.858,-1140.25,0.0992366,0,35.87,33.8193,3567111
0.127441,-0.130798,0.944336,-0.098,0.066,145.79,145.79,0.310623,0.130875,0,453.042,-941.708,0.0992366,0,35.87,33.8391,3567141
0.000244141,-0.0863647,1.48486,0.075,0.117,145.21,145.21,0.311325,0.127991,0,525.031,-1110,0.0992366,0,35.87,33.8614,3567156
0.161926,-0.0826416,0.835754,-0.11,0,144.65,144.65,0.311996,0.125183,0,474.665,-1148.11,0.0992366,0,35.87,33.8792,3567172
0.0219116,-0.0423584,1.06464,0.045,0.057,143.51,143.51,0.313431,0.119461,0,449.297,-1116.57,0.0992366,0,35.87,33.8989,3567201
0.284302,-0.0145264,1.01013,-0.153,-0.125,142.96,142.96,0.314117,0.116531,0,455.342,-1282.63,0.0992366,0,35.87,33.9188,3567216
0.0464478,-0.000488281,0.937561,0.04,0.004,142.38,142.38,0.314728,0.113525,0,495.933,-1125.68,0.0992366,0,35.87,33.9388,3567232
-0.0584106,0.0975952,0.923218,0.181,-0.006,141.22,141.22,0.316086,0.107269,0,436.614,-1210.14,0.0992366,0,35.87,33.9591,3567261
-0.0144043,0.0330811,1.34326,0.14,0.031,140.64,140.64,0.317032,0.104111,0,458.432,-1285.18,0.0992366,0,35.87,33.979,3567276
0.307861,0.0141602,0.637085,-0.175,-0.185,140.08,140.08,0.317947,0.100845,0,478.538,-1035.68,0.0992366,0,35.87,33.9991,3567292
0.198242,-0.167542,0.821533,-0.193,0.027,138.9,138.9,0.319717,0.0941925,0,444.711,-1139.93,0.0992366,0,35.87,34.019,3567321
0.0618286,0.0749512,1.09106,0.091,-0.055,138.31,138.31,0.320526,0.0908661,0,429.544,-1103.57,0.0992366,0,35.84,34.0398,3567336
0.0960693,0.00439453,1.11346,0.021,-0.024,137.74,137.74,0.321396,0.0874939,0,477.407,-1201.78,0.0992366,0,35.84,34.059,3567352
0.0349121,0.0101318,1.23279,0.078,0.018,136.59,136.59,0.322891,0.0803375,0,519.44,-1112.16,0.0992366,0,35.84,34.0837,3567381
0.239441,-0.0612183,0.854736,-0.146,-0.086,136.02,136.02,0.323563,0.0766602,0,438.76,-1187.72,0.0992366,0,35.84,34.0989,3567396
0.0827637,0.0714722,1.27539,0.09,-0.057,135.45,135.45,0.324203,0.072876,0,506.022,-1036.75,0.0992366,0,35.84,34.1189,3567412
0.407715,-0.00408936,0.539612,-0.247,-0.262,134.86,134.86,0.324722,0.0688629,0,475.477,-833.472,0.0992366,0,35.84,34.1392,3567426
0.221008,0.00915527,0.899719,-0.075,-0.126,133.66,133.66,0.325623,0.0604248,0,552.547,-1045.37,0.0992366,0,35.84,34.1594,3567456
0.0141602,0.0162964,1.29626,0.1,0.034,133.08,133.08,0.326096,0.0561066,0,498.89,-962.186,0.0992366,0,35.84,34.1791,3567472
0.182129,0.0430298,1.08447,-0.007,-0.114,131.92,131.92,0.327011,0.0471954,0,474.113,-1165.84,0.0992366,0,35.84,34.1993,3567501
0.0756836,-0.0307007,0.931824,-0.002,0.007,131.34,131.34,0.327438,0.0425873,0,452.161,-1024.38,0.0992366,0,35.84,34.2214,3567516
0.261963,-0.0130615,1.22028,-0.09,-0.132,130.77,130.77,0.327805,0.0378876,0,507.975,-1032.26,0.0992366,0,35.84,34.2393,3567532
0.140137,0.105408,1.133,0.074,-0.12,129.62,129.62,0.328949,0.0284119,0,431.881,-1146.59,0.0992366,0,35.84,34.264,3567561
0.085144,-0.144165,0.641602,-0.119,0.057,129.05,129.05,0.329605,0.0236206,0,453.165,-1000.8,0.0992366,0,35.84,34.2789,3567576
0.201904,-0.00518799,1.12561,-0.049,-0.099,127.92,127.92,0.331055,0.0144196,0,474.35,-1213.81,0.0992366,0,35.84,34.3083,3567606
0.168457,0.0686035,1.02905,0.024,-0.122,127.34,127.34,0.331818,0.00970459,0,456.934,-1184.06,0.0992366,0,35.84,34.3274,3567621
0.0102539,0.0353394,0.82666,0.08,0.014,126.75,126.75,0.332642,0.00491333,0,495.798,-1061.63,0.0992366,0,35.84,34.3397,3567636
0.0203857,-0.0856934,0.901917,-0.019,0.082,125.59,125.59,0.334686,-0.00445557,0,436.119,-1095.47,0.0992366,0,35.84,34.362,3567666
0.0203857,-0.0856934,0.901917,-0.019,0.082,125.59,125.59,0.334686,-0.00445557,0,400.81,-948.542,0.0992366,0,35.84,34.3791,3567666
0.266907,-0.0335693,1.16998,-0.098,-0.134,124.38,124.38,0.336395,-0.0140991,0,403.82,-1167.82,0.0992366,0,35.84,34.4,3567696
0.0866089,-0.0374146,1.14996,0,0.014,123.79,123.79,0.337097,-0.019104,0,476.826,-1092.96,0.0992366,0,35.84,34.4193,3567712
0.0580444,0.0897217,0.996094,0.113,-0.039,122.61,122.61,0.338806,-0.0292206,0,442.233,-1030.87,0.0992366,0,35.84,34.4387,3567741
0.385742,-0.0409546,0.848511,-0.181,-0.254,122.03,122.03,0.339676,-0.0344849,0,477.669,-1074.86,0.0992366,0,35.84,34.4605,3567756
0.147034,-0.0639038,1.21564,-0.049,-0.018,121.44,121.44,0.340393,-0.0399475,0,432.76,-1112.41,0.0992366,0,35.84,34.4785,3567772
0.0032959,0.0154419,1.00409,0.078,0.049,120.86,120.86,0.341141,-0.0453949,0,450.785,-1256.99,0.0992366,0,35.84,34.4982,3567786
0.198425,0.06604,1.05951,0.029,-0.138,119.67,119.67,0.342926,-0.0565033,0,460.766,-1050.48,0.0992366,0,35.84,34.5189,3567816
0.189575,0.00878906,1.04144,-0.015,-0.103,119.08,119.08,0.343857,-0.0623016,0,415.973,-978.809,0.0992366,0,35.84,34.5387,3567832
0.0706787,0.038208,1.05646,0.069,-0.012,117.89,117.89,0.345642,-0.0741577,0,457.174,-1135.4,0.0992366,0,35.81,34.559,3567862
-0.113586,0.0115356,0.980164,0.125,0.159,117.31,117.31,0.346664,-0.0800171,0,379.327,-1189.06,0.0992366,0,35.81,34.5787,3567877
0.046875,0.120483,1.03662,0.152,-0.028,116.73,116.73,0.347885,-0.0858002,0,460.024,-1030.77,0.0992366,0,35.81,34.5993,3567892
0.122986,0.00219727,1.00745,0.01,-0.043,115.6,115.6,0.350739,-0.0978241,0,390.992,-995.421,0.0992366,0,35.81,34.6192,3567922
0.14032,0.0767822,1.13074,0.078,-0.082,115.05,115.05,0.352264,-0.104004,0,488.484,-1127.46,0.0992366,0,35.81,34.64,3567937
0.0967407,0.0736084,0.916016,0.081,-0.056,114.5,114.5,0.353897,-0.110275,0,455.384,-1056.13,0.0992366,0,35.81,34.66,3567952
-0.0501099,0.0941772,1.34973,0.184,0.1,113.36,113.36,0.357529,-0.123016,0,508.582,-1136.82,0.0992366,0,35.81,34.6796,3567982
0.295898,0.0491333,0.528442,-0.038,-0.253,112.78,112.78,0.359528,-0.129486,0,457.844,-1125.94,0.0992366,0,35.81,34.6995,3567997
0.0305176,0.0403442,1.30328,0.099,0.047,112.2,112.2,0.361572,-0.136093,0,486.76,-766.107,0.0992366,0,35.81,34.7195,3568012
0.139221,0.036438,1.07654,0.043,-0.067,111.02,111.02,0.365936,-0.149139,0,445.951,-1273.4,0.0992366,0,35.81,34.7396,3568042
0.113831,0.0664673,1.0611,0.08,-0.054,110.42,110.42,0.36824,-0.155746,0,425.994,-1282.79,0.0992366,0,35.81,34.7647,3568057
0.185669,-0.0889893,0.933838,-0.096,-0.077,109.83,109.83,0.370529,-0.16243,0,453.289,-1175.64,0.0992366,0,35.81,34.7784,3568072
0.281311,-0.0220337,0.9823,-0.061,-0.187,109.23,109.23,0.372711,-0.169296,0,443.597,-1209.34,0.0992366,0,35.81,34.7982,3568087
0.172363,0.045105,1.10266,0.047,-0.098,108.04,108.04,0.376892,-0.183777,0,485.625,-1114.02,0.0992366,0,35.81,34.8186,3568117
0.175537,0.111267,1.26276,0.118,-0.11,107.46,107.46,0.379074,-0.191269,0,428.192,-1198.68,0.0992366,0,35.81,34.8393,3568132
0.0971069,-0.0101318,0.808167,0.003,-0.03,106.88,106.88,0.381348,-0.198853,0,426.576,-1264.3,0.0992366,0,35.81,34.8585,3568147
0.18866,-0.0304565,0.959412,-0.031,-0.102,105.69,105.69,0.381332,-0.21434,0,425.695,-1000,0.0992366,0,35.81,34.879,3568177
0.229248,0.109253,0.83905,0.087,-0.187,105.09,105.09,0.381348,-0.222351,0,449.297,-1126.89,0.0992366,0,35.81,34.9006,3568192
0.160095,-0.0366211,1.24689,-0.013,-0.052,103.86,103.86,0.381424,-0.238846,0,417.101,-1212.34,0.0992366,0,35.81,34.9188,3568222
0.213623,0.13739,0.706604,0.118,-0.185,103.26,103.26,0.381485,-0.247314,0,558.223,-930.579,0.0992366,0,35.81,34.9389,3568237
0.170532,0.015686,0.881775,0.019,-0.1,102.65,102.65,0.381653,-0.255966,0,449.357,-1151.81,0.0992366,0,35.81,34.9592,3568252
-0.19165,0.20874,1.52057,0.31,0.257,102.06,102.06,0.38205,-0.264511,0,478.16,-1160.36,0.0992366,0,35.81,34.9793,3568267
0.0778809,0.25769,1.26776,0.291,-0.029,100.89,100.89,0.383575,-0.281555,0,524.99,-1199.9,0.0992366,0,35.81,34.9991,3568297
0.053894,0.10498,1.01971,0.135,0.007,100.29,100.29,0.38475,-0.290161,0,485.178,-995.074,0.0992366,0,35.81,35.0193,3568312
0.0576172,-0.0613403,1.20142,-0.022,0.046,99.13,99.13,0.38739,-0.307724,0,521.635,-1123.09,0.0992366,0,35.81,35.0394,3568342
0.184143,-0.116394,0.728271,-0.114,-0.106,98.53,98.53,0.388626,-0.316605,0,492.32,-1154.67,0.0992366,0,35.79,35.0592,3568357
-0.0189209,0.0927734,1.18048,0.138,0.098,97.92,97.92,0.389893,-0.325485,0,481.313,-1179.66,0.0992366,0,35.79,35.0828,3568372
-0.00811768,0.124634,1.29047,0.171,0.096,96.74,96.74,0.392822,-0.343094,0,475.014,-1115.57,0.0992366,0,35.79,35.1019,3568402
0.172241,0.0010376,0.889709,0.014,-0.099,96.14,96.14,0.394501,-0.351883,0,393.236,-1062.98,0.0992366,0,35.79,35.1222,3568417
0.0862427,0.0750732,1.04401,0.102,-0.008,95.52,95.52,0.396255,-0.360748,0,485.402,-1110.56,0.0992366,0,35.79,35.1412,3568432
-0.212646,0.00561523,1.52985,0.07,0.337,94.26,94.26,0.399811,-0.378433,0,422.217,-1161.91,0.0992366,0,35.79,35.1598,3568462
0.115417,0.0466919,0.719788,0.062,-0.057,93.61,93.61,0.401672,-0.386993,0,518.014,-536.466,0.0992366,0,35.79,35.1794,3568477
-0.0210571,0.147949,1.23737,0.187,0.117,92.98,92.98,0.403702,-0.395523,0,487.27,-1240.46,0.0992366,0,35.79,35.1985,3568492
0.0350952,0.0180054,1.25073,0.052,0.068,91.78,91.78,0.408051,-0.412186,0,484.59,-1094.51,0,0,35.79,35.2192,3568522
0.310669,-0.213013,0.731323,-0.199,-0.243,91.19,91.19,0.410141,-0.420593,0,513.769,-1178.69,0,0,35.79,35.2386,3568537
-0.145813,0.09552,1.29114,0.131,0.252,90.58,90.58,0.41217,-0.428986,0,482.602,-1285.51,0,0,35.79,35.259,3568552
-0.0591431,0.0513306,1.2666,0.081,0.168,89.37,89.37,0.416718,-0.445709,0,449.661,-1108.95,0,0,35.79,35.2786,3568582
0.1297,0.0327148,1.15594,0.062,-0.033,88.78,88.78,0.419159,-0.453995,0,443.784,-1134.37,0,0,35.79,35.299,3568597
0.242004,-0.104492,0.534363,-0.084,-0.198,88.18,88.18,0.421585,-0.462448,0,473.339,-1098.54,0,0,35.79,35.3189,3568612
-0.0145264,0.184875,1.26312,0.21,0.126,87.58,87.58,0.424088,-0.470932,0,498.107,-1062.59,0,0,35.79,35.3389,3568627
-0.10553,0.227417,1.03833,0.239,0.203,86.43,86.43,0.429581,-0.487259,0,604.43,-854.628,0,0,35.79,35.3595,3568657
-0.244873,0.198303,0.798645,0.193,0.319,85.98,85.98,0.432693,-0.494949,0,634.518,-723.014,0,0,35.79,35.379,3568672
-0.296509,0.130432,1.1358,0.118,0.385,85.4,85.4,0.439713,-0.508728,0,586.252,-866.063,0,0,35.79,35.3998,3568702
-0.30426,0.120422,0.937927,0.102,0.375,85.22,85.22,0.443466,-0.514832,0,612.52,-744.297,0,0,35.79,35.4205,3568717
-0.126892,0.212097,1.29047,0.204,0.215,84.94,84.94,0.455963,-0.530472,0,644.351,-648.109,0,0,35.79,35.4632,3568762
0.187378,0.0647583,0.844971,0.083,-0.135,84.94,84.94,0.460556,-0.535263,0,597.693,-623.908,0,0,35.79,35.4819,3568777
-0.0856323,0.128296,1.15143,0.12,0.158,84.96,84.96,0.470093,-0.544876,0,588.703,-507.061,0,0,35.79,35.5068,3568807
0.019165,0.0899658,0.972107,0.089,0.039,84.99,84.99,0.475067,-0.549484,0,599.916,-591.646,0,0,35.79,35.5218,3568822
-0.0662231,0.106262,1.10944,0.096,0.132,85,85,0.480164,-0.553986,0,646.747,-521.512,0,0,35.79,35.5404,3568837
-0.0231934,0.15094,0.935242,0.144,0.083,85.02,85.02,0.485428,-0.558334,0,521.771,-452.53,0,0,35.79,35.5645,3568852
0.0180054,0.25647,1.0166,0.25,0.054,85.04,85.04,0.496613,-0.566711,0,536.74,-563.428,0,0,35.74,35.5806,3568882
0.108582,0.141602,1.03473,0.142,-0.044,85.06,85.06,0.502609,-0.570831,0,524.783,-514.84,0,0,35.74,35.6005,3568897
0.0303955,0.139648,1.03741,0.132,0.032,85.08,85.08,0.508789,-0.574982,0,500.513,-584.129,0,0,35.74,35.6194,3568915
0.067627,0.127625,1.00519,0.122,-0.006,85.09,85.09,0.515152,-0.579102,0,543.523,-525.942,0,0,35.74,35.6384,3568927
-0.0623169,0.135498,1.1076,0.116,0.127,85.11,85.11,0.528183,-0.587341,0,507.73,-552.914,0,0,35.74,35.6591,3568957
0.148865,0.0680542,0.919617,0.068,-0.098,85.12,85.12,0.534866,-0.5914,0,490.665,-503.031,0,0,35.74,35.6809,3568973
-0.0360718,0.114441,1.02728,0.096,0.095,85.13,85.13,0.541672,-0.595474,0,511.561,-403.242,0,0,35.74,35.6986,3568987
0.0900269,0.00933838,0.942017,0.002,-0.044,85.16,85.16,0.555649,-0.603195,0,457.697,-540.205,0,0,35.74,35.7195,3569017
-0.0872192,0.0969238,1.09808,0.069,0.146,85.19,85.19,0.570007,-0.610916,0,404.449,-402.998,0,0,35.74,35.7445,3569047
-0.00439453,0.0637207,1.03778,0.044,0.057,85.2,85.2,0.577316,-0.614609,0,438.299,-442.821,0,0,35.74,35.7593,3569062
0.0727539,0.0889893,0.921448,0.077,-0.022,85.23,85.23,0.584717,-0.618286,0,390.396,-338.507,0,0,35.74,35.7788,3569077
0.00543213,0.129272,1.16162,0.106,0.058,85.24,85.24,0.592255,-0.621933,0,441.034,-387.875,0,0,35.74,35.8008,3569093
0.000976562,0.0970459,0.98938,0.076,0.052,85.24,85.24,0.599899,-0.625504,0,359.221,-410.669,0,0,35.74,35.8192,3569107
0.0797119,0.0547485,1.12292,0.035,-0.024,85.26,85.26,0.623627,-0.635803,0,362.155,-394.781,0,0,35.74,35.8515,3569153
0.0797119,0.0547485,1.12292,0.035,-0.024,85.26,85.26,0.623627,-0.635803,0,335.109,-358.667,0,0,35.74,35.8617,3569153
0.0915527,0.0272217,1.09137,0.008,-0.04,85.28,85.28,0.631683,-0.639252,0,334.113,-338.868,0,0,35.74,35.8791,3569167
0.0384521,0.102905,1.11047,0.077,0.019,85.29,85.29,0.647903,-0.642715,0,329.87,-331.873,0,0,35.74,35.8995,3569197
0.0142212,0.0880127,1.07263,0.06,0.04,85.29,85.29,0.656128,-0.642685,0,291.881,-292.252,0,0,35.74,35.9217,3569213
-0.0100098,0.0585938,1.07794,0.028,0.062,85.3,85.3,0.664429,-0.642578,0,310.082,-287.266,0,0,35.74,35.939,3569227
0.00238037,0.0998535,1.06744,0.069,0.052,85.32,85.32,0.681229,-0.64238,0,301.327,-303.693,0,0,35.74,35.9592,3569257
-0.0284424,0.105408,1.03174,0.072,0.082,85.32,85.32,0.689758,-0.642197,0,265.922,-254.498,0,0,35.74,35.9786,3569273
0.0442505,0.0629883,0.932434,0.038,0.001,85.33,85.33,0.707108,-0.641678,0,259.178,-251.383,0,0,35.74,35.9987,3569302
0.078186,0.100464,1.01715,0.075,-0.025,85.33,85.33,0.715897,-0.641434,0,262.75,-227.053,0,0,35.74,36.0189,3569317
-0.053772,0.127136,1.0788,0.087,0.109,85.33,85.33,0.724808,-0.641129,0,232.499,-150.553,0,0,35.74,36.039,3569333
0.0823364,0.0679932,0.965759,0.042,-0.035,85.35,85.35,0.742905,-0.640381,0,235.195,-186.837,0,0,35.74,36.061,3569362
-0.0321655,0.0783081,1.07324,0.038,0.083,85.36,85.36,0.75206,-0.639984,0,195.758,-198.525,0,0,35.74,36.0794,3569377
-0.00964355,0.0845337,1.01117,0.048,0.058,85.35,85.35,0.761261,-0.639481,0,187.262,-191.254,0,0,35.74,36.1018,3569393
0.0227661,0.0878296,1.08667,0.05,0.028,85.37,85.37,0.779938,-0.638367,0,192.957,-178.854,0,0,35.74,36.1264,3569422
0.0220337,0.0930176,0.999023,0.057,0.025,85.37,85.37,0.789383,-0.637756,0,159.546,-169.906,0,0,35.74,36.139,3569438
0.0283813,0.139893,0.99231,0.104,0.022,85.38,85.38,0.79895,-0.6371,0,155.785,-184.73,0,0,35.74,36.1587,3569453
0.0267944,0.0845337,0.979248,0.048,0.018,85.39,85.39,0.818344,-0.635666,0,131.247,-117.24,0,0,35.74,36.1793,3569482
0.0057373,0.113098,1.0119,0.073,0.043,85.39,85.39,0.828156,-0.634888,0,115.887,-110.727,0,0,35.74,36.1987,3569497
0.00909424,0.0934448,1.02618,0.052,0.038,85.39,85.39,0.838043,-0.634048,0,96.8331,-94.1154,0,0,35.74,36.2189,3569513
0.0317383,0.101074,1.02844,0.06,0.016,85.41,85.41,0.858078,-0.633194,0,82.2128,-83.5181,0,0,35.74,36.2395,3569542
0.0494995,0.0970459,1.01514,0.057,-0.002,85.41,85.41,0.868225,-0.633194,0,74.1815,-74.7231,0,0,35.74,36.259,3569557
0.00872803,0.0911865,1.0274,0.047,0.037,85.41,85.41,0.878433,-0.633163,0,62.0155,-57.2461,0,0,35.74,36.2806,3569573
0.00830078,0.113098,1.01129,0.069,0.039,85.41,85.41,0.888718,-0.633087,0,47.7818,-46.1677,0,0,35.74,36.2989,3569588
0.0386353,0.0878906,1.00818,0.045,0.006,85.43,85.43,0.909531,-0.63298,0,34.4729,-36.7056,0,0,35.74,36.3204,3569618
0.0234985,0.104675,0.996277,0.061,0.022,85.42,85.42,0.920044,-0.63295,0,34.4729,-29.0519,0,0,35.74,36.3393,3569633
0.0421143,0.0697632,1.01794,0.025,0,85.43,85.43,0.94133,-0.632828,0,34.4729,-29.0519,0,0,35.74,36.3596,3569663
0.031311,0.0588989,1.00903,0.013,0.01,85.42,85.42,0.952042,-0.632828,0,34.4729,-29.0519,0,0,35.74,36.38,3569678
0.0172119,0.0361328,1.03381,-0.011,0.023,85.42,85.42,0.962738,-0.632812,0,5.02474,0,0,0,35.74,36.3993,3569693
0.0300293,0.0188599,1.01807,-0.026,0.008,85.42,85.42,0.973419,-0.632767,0,-4.5256,5.25066,0,0,35.74,36.4193,3569708
0.0147095,0.00213623,1.02454,-0.043,0.022,85.42,85.42,0.994644,-0.632645,0,-21.829,20.8602,0,0,35.74,36.44,3569738
0.0330811,-0.00738525,1.01428,-0.05,0.002,85.41,85.41,1.00516,-0.632568,0,-23.9411,20.7814,0,0,35.74,36.4583,3569753
0.0235596,-0.0147705,1.0213,-0.057,0.011,85.41,85.41,1.02597,-0.632477,0,-21.1196,19.4673,0,0,35.74,36.4812,3569783
0.0351562,-0.0166016,1.02295,-0.058,0,85.41,85.41,1.03627,-0.632477,0,-15.9646,17.8359,0,0,35.74,36.4987,3569798
0.029541,-0.024292,1.01172,-0.065,0.004,85.41,85.41,1.04646,-0.632477,0,-13.2411,14.5028,0,0,35.74,36.5219,3569813
0.0250854,-0.0194092,1.01642,-0.059,0.009,85.4,85.4,1.06662,-0.632477,0,-13.2411,14.5028,0,0,35.74,36.5398,3569843
0.0338135,-0.0158691,1.0199,-0.054,0,85.4,85.4,1.07657,-0.632477,0,-13.2411,14.5028,0,0,35.74,36.5601,3569858
0.0306396,-0.0125732,1.01123,-0.05,0.004,85.4,85.4,1.08646,-0.632477,0,-13.2411,14.5028,0,0,35.74,36.5791,3569873
0.0210571,-0.00250244,1.01941,-0.041,0.014,85.4,85.4,1.09627,-0.632477,0,-13.2411,14.5028,0,0,35.8,36.5987,3569888
0.0276489,0.00909424,1.01477,-0.028,0.008,85.4,85.4,1.11577,-0.632477,0,-13.2411,14.5028,0,0,35.8,36.6192,3569918
0.0270996,0.017334,1.02429,-0.02,0.01,85.39,85.39,1.12546,-0.632477,0,-13.2411,14.5028,0,0,35.8,36.6393,3569933
0.0262451,0.0111694,1.0224,-0.025,0.01,85.39,85.39,1.14474,-0.632477,0,-13.2411,14.5028,0,0,35.8,36.66,3569963
0.026062,0.00915527,1.01538,-0.027,0.009,85.39,85.39,1.15434,-0.632477,0,-13.2411,14.5028,0,0,35.8,36.679,3569978
0.0271606,0.00244141,1.01953,-0.033,0.008,85.39,85.39,1.16388,-0.632477,0,-13.2411,14.5028,0,0,35.8,36.7028,3569993
0.0308228,0.00341797,1.01355,-0.031,0.004,85.39,85.39,1.17339,-0.632477,0,-13.2411,14.5028,0,0,35.8,36.7193,3570008
0.0275269,0.00109863,1.01471,-0.033,0.007,85.39,85.39,1.19226,-0.632477,0,-13.2411,14.5028,0,0,35.8,36.7388,3570038
0.0249634,0.00463867,1.02502,-0.03,0.01,85.39,85.39,1.20164,-0.632477,0,-13.2411,14.5028,0,0,35.8,36.7587,3570053
0.0250244,0.00927734,1.02057,-0.024,0.01,85.39,85.39,1.22028,-0.632477,0,-13.2411,14.5028,0,0,35.8,36.7796,3570083
0.0285645,0.00640869,1.01794,-0.026,0.006,85.39,85.39,1.22955,-0.632477,0,-13.2411,14.5028,0,0,35.8,36.7991,3570098
0.0252686,0.00323486,1.02258,-0.03,0.009,85.38,85.38,1.23877,-0.632477,0,-13.2411,14.5028,0,0,35.8,36.8199,3570113
0.0292358,0.00482178,1.01343,-0.027,0.005,85.38,85.38,1.24797,-0.632477,0,-13.2411,14.5028,0,0,35.8,36.839,3570128
0.0275269,0.00396729,1.0097,-0.027,0.006,85.38,85.38,1.26624,-0.632477,0,-13.2411,14.5028,0,0,35.8,36.8588,3570158
0.0272827,0.00830078,1.02594,-0.023,0.007,85.38,85.38,1.27531,-0.632477,0,-13.2411,14.5028,0,0,35.8,36.8788,3570173
0.0245972,0.0098877,1.02808,-0.021,0.01,85.38,85.38,1.29337,-0.632477,0,-13.2411,14.5028,0,0,35.8,36.8989,3570203
0.0292358,0.00518799,1.01691,-0.025,0.005,85.38,85.38,1.30235,-0.632477,0,-13.2411,14.5028,0,0,35.8,36.9207,3570218
0.0261841,0.00628662,1.0188,-0.024,0.008,85.38,85.38,1.31129,-0.632477,0,0,0,0,0,35.8,36.9394,3570233
0.0293579,0.00256348,1.0163,-0.027,0.004,85.38,85.38,1.32022,-0.632477,0,0,0,0,0,35.8,36.9592,3570248
0.0264893,0.00335693,1.01428,-0.026,0.007,85.38,85.38,1.33794,-0.632477,0,0,0,0,0,35.8,36.9804,3570278
0.0282593,0.00567627,1.01007,-0.023,0.005,85.38,85.38,1.34676,-0.632477,0,0,0,0,0,35.8,37.0005,3570294
0.0258179,0.00732422,1.0177,-0.021,0.008,85.37,85.37,1.36427,-0.632477,0,0,0,0,0,35.8,37.0191,3570323
0.0267334,0.00689697,1.01984,-0.022,0.007,85.37,85.37,1.373,-0.632477,0,0,0,0,0,35.8,37.0388,3570338
0.0263672,0.00579834,1.01965,-0.022,0.007,85.37,85.37,1.38168,-0.632477,0,0,0,0,0,35.8,37.0591,3570353
0.0275269,0.00311279,1.02118,-0.025,0.005,85.37,85.37,1.39035,-0.632477,0,0,0,0,0,35.8,37.0783,3570368
0.0285034,0.00549316,1.01666,-0.021,0.004,85.37,85.37,1.40756,-0.632477,0,0,0,0,0,35.83,37.0997,3570398
0.0292969,0.00360107,1.01105,-0.023,0.003,85.37,85.37,1.41612,-0.632477,0,0,0,0,0,35.83,37.1194,3570413
0.0281982,0.00354004,1.01794,-0.023,0.004,85.37,85.37,1.42465,-0.632477,0,0,0,0,0,35.83,37.1387,3570428
0.0273438,0.00445557,1.01855,-0.022,0.005,85.37,85.37,1.44162,-0.632477,0,0,0,0,0,35.83,37.1587,3570458
0.027832,0.00482178,1.02032,-0.021,0.005,85.37,85.37,1.45006,-0.632477,0,0,0,0,0,35.83,37.1835,3570473
0.0296631,0.00549316,1.01898,-0.02,0.003,85.37,85.37,1.45848,-0.632477,0,0,0,0,0,35.83,37.1987,3570488
0.0283813,0.00506592,1.01489,-0.02,0.004,85.37,85.37,1.4752,-0.632477,0,0,0,0,0,35.83,37.2198,3570518
0.0264282,0.00714111,1.01807,-0.018,0.006,85.36,85.36,1.48354,-0.632477,0,0,0,0,0,35.83,37.2393,3570533
0.0296631,0.00305176,1.02338,-0.022,0.003,85.36,85.36,1.49184,-0.632477,0,0,0,0,0,35.83,37.2595,3570548
0.0253296,0.00482178,1.02081,-0.02,0.007,85.36,85.36,1.50836,-0.632477,0,0,0,0,0,35.83,37.279,3570578
0.0286865,0.000488281,1.01196,-0.023,0.003,85.36,85.36,1.51657,-0.632477,0,0,0,0,0,35.83,37.299,3570593
0.0280151,0.00701904,1.02472,-0.017,0.004,85.36,85.36,1.52477,-0.632477,0,0,0,0,0,35.83,37.3187,3570608
0.0253906,0.00653076,1.01874,-0.017,0.006,85.36,85.36,1.52477,-0.632477,0,0,0,0,0,35.83,37.341,3570638
0.0244141,0.00488281,1.01654,-0.018,0.007,85.36,85.36,1.52477,-0.632477,0,0,0,0,0,35.83,37.3583,3570654
0.02771,0.00402832,1.01599,-0.019,0.004,85.36,85.36,1.52477,-0.632477,0,0,0,0,0,35.83,37.3793,3570668
0.0238647,0.00744629,1.0257,-0.016,0.008,85.36,85.36,1.52467,-0.632477,0,0,0,0,0,35.83,37.3989,3570698
0.0317383,0.00457764,1.01758,-0.017,0,85.36,85.36,1.5246,-0.632477,0,0,0,0,0,35.83,37.4187,3570714
0.0280762,0.00811768,1.0177,-0.014,0.004,85.36,85.36,1.5246,-0.632477,0,0,0,0,0,35.83,37.45,3570743
0.0232544,0.00506592,1.02173,-0.017,0.008,85.36,85.36,1.5246,-0.632477,0,0,0,0,0,35.83,37.4596,3570758
0.0291138,0.0043335,1.013,-0.017,0.002,85.36,85.36,1.5246,-0.632477,0,0,0,0,0,35.83,37.4787,3570774
0.0270996,0.00561523,1.01617,-0.015,0.004,85.36,85.36,1.5246,-0.632477,0,0,0,0,0,35.83,37.5013,3570803
0.0271606,0.00579834,1.02063,-0.015,0.004,85.36,85.36,1.5246,-0.632477,0,0,0,0,0,35.83,37.5221,3570818
0.0272217,0.00500488,1.01385,-0.016,0.004,85.36,85.36,1.5246,-0.632477,0,0,0,0,0,35.83,37.5404,3570834
0.0274658,0.0057373,1.01746,-0.015,0.004,85.36,85.36,1.5246,-0.632477,0,0,0,0,0,35.83,37.5595,3570848
0.0249634,0.00372314,1.02405,-0.017,0.006,85.36,85.36,1.5246,-0.632477,0,0,0,0,0,35.83,37.5792,3570878
0.0288086,0.00408936,1.01654,-0.016,0.002,85.35,85.35,1.5246,-0.632477,0,0,0,0,0,35.83,37.5986,3570894
0.0273438,0.00402832,1.02411,-0.016,0.004,85.35,85.35,1.5246,-0.632477,0,0,0,0,0,35.85,37.6184,3570908
0.0251465,0.00708008,1.0213,-0.013,0.006,85.35,85.35,1.5246,-0.632477,0,0,0,0,0,35.85,37.6386,3570938
0.0255127,0.00341797,1.01556,-0.016,0.005,85.35,85.35,1.5246,-0.632477,0,0,0,0,0,35.85,37.659,3570954
0.0272217,0.00537109,1.01746,-0.014,0.004,85.35,85.35,1.5246,-0.632477,0,0,0,0,0,35.85,37.6791,3570968
0.0302124,0.00445557,1.0177,-0.014,0.001,85.35,85.35,1.5246,-0.632477,0,0,0,0,0,35.85,37.7042,3570998
0.027832,0.00610352,1.01611,-0.012,0.003,85.35,85.35,1.5246,-0.632477,0,0,0,0,0,35.85,37.7184,3571014
0.0287476,0.00378418,1.0246,-0.015,0.002,85.35,85.35,1.5246,-0.632477,0,0,0,0,0,35.85,37.7422,3571043
0.0245972,0.00531006,1.01086,-0.013,0.006,85.35,85.35,1.5246,-0.632477,0,0,0,0,0,35.85,37.7596,3571058
0.0266113,0.00689697,1.02435,-0.011,0.004,85.35,85.35,1.5246,-0.632477,0,0,0,0,0,35.85,37.7795,3571074
0.026062,0.00286865,1.01593,-0.015,0.004,85.35,85.35,1.5246,-0.632477,0,0,0,0,0,35.85,37.7993,3571088
0.0250854,0.00640869,1.01917,-0.011,0.005,85.35,85.35,1.5246,-0.632477,0,0,0,0,0,35.85,37.8191,3571118
0.0304565,0.00427246,1.01477,-0.013,0,85.35,85.35,1.5246,-0.632477,0,0,0,0,0,35.85,37.8389,3571134
0.0286865,0.00622559,1.01746,-0.011,0.002,85.35,85.35,1.5246,-0.632477,0,0,0,0,0,35.85,37.8596,3571163
0.0256348,0.00390625,1.02197,-0.013,0.005,85.35,85.35,1.5246,-0.632477,0,0,0,0,0,35.85,37.8791,3571178
0.0297241,0.00640869,1.0108,-0.01,0,85.35,85.35,1.5246,-0.632477,0,0,0,0,0,35.85,37.8987,3571194
0.027771,0.00695801,1.026,-0.01,0.003,85.35,85.35,1.5246,-0.632477,0,0,0,0,0,35.85,37.9196,3571208
0.0298462,0.00537109,1.02441,-0.011,0,85.35,85.35,1.5246,-0.632477,0,0,0,0,0,35.85,37.9395,3571238
0.03125,0.00567627,1.01477,-0.01,0,85.35,85.35,1.5246,-0.632477,0,0,0,0,0,35.85,37.9602,3571254
0.0245361,0.00439453,1.02332,-0.012,0.006,85.35,85.35,1.5246,-0.632477,0,0,0,0,0,35.85,37.9839,3571283
0.0274658,0.00439453,1.01807,-0.012,0.002,85.35,85.35,1.5246,-0.632477,0,0,0,0,0,35.85,38.0015,3571299
0.0288086,0.00701904,1.01691,-0.009,0.001,85.34,85.34,1.5246,-0.632477,0,0,0,0,0,35.85,38.0185,3571314
0.0280151,0.00195312,1.01617,-0.014,0.002,85.34,85.34,1.5246,-0.632477,0,0,0,0,0,35.85,38.0383,3571329
0.0267944,0.00537109,1.02228,-0.01,0.003,85.34,85.34,1.5246,-0.632477,0,0,0,0,0,35.85,38.0594,3571359
0.0252686,0.00726318,1.01886,-0.008,0.005,85.34,85.34,1.5246,-0.632477,0,0,0,0,0,35.85,38.0784,3571374
0.0288696,0.00543213,1.01447,-0.01,0.001,85.34,85.34,1.5246,-0.632477,0,0,0,0,0,35.85,38.0994,3571389
0.0279541,0.00653076,1.01459,-0.008,0.002,85.34,85.34,1.5246,-0.632477,0,0,0,0,0,35.91,38.1186,3571419
0.0236206,0.00750732,1.02325,-0.008,0.006,85.34,85.34,1.5246,-0.632477,0,0,0,0,0,35.91,38.1394,3571434
0.0281982,0.00646973,1.02002,-0.008,0.002,85.34,85.34,1.5246,-0.632477,0,0,0,0,0,35.91,38.161,3571464
0.031189,0.00341797,1.01685,-0.011,-0.001,85.34,85.34,1.5246,-0.632477,0,0,0,0,0,35.91,38.1789,3571479
0.0282593,0.00701904,1.01855,-0.007,0.001,85.34,85.34,1.5246,-0.632477,0,0,0,0,0,35.91,38.1992,3571494
0.0266724,0.00543213,1.01202,-0.009,0.003,85.34,85.34,1.5246,-0.632477,0,0,0,0,0,35.91,38.2195,3571509
0.0279541,0.00512695,1.021,-0.009,0.001,85.34,85.34,1.5246,-0.632477,0,0,0,0,0,35.91,38.2395,3571539
0.0257568,0.00634766,1.02631,-0.008,0.004,85.34,85.34,1.5246,-0.632477,0,0,0,0,0,35.91,38.2661,3571569
0.0257568,0.00634766,1.02631,-0.008,0.004,85.34,85.34,1.5246,-0.632477,0,0,0,0,0,35.91,38.2791,3571569
0.0288696,0.00421143,1.02191,-0.009,0.001,85.34,85.34,1.5246,-0.632477,0,0,0,0,0,35.91,38.2991,3571599
0.0285034,0.00445557,1.02307,-0.009,0.001,85.34,85.34,1.5246,-0.632477,0,0,0,0,0,35.91,38.32,3571614
0.0305786,0.0055542,1.01923,-0.008,0,85.34,85.34,1.5246,-0.632477,0,0,0,0,0,35.91,38.3389,3571629
0.0258179,0.00549316,1.02258,-0.008,0.004,85.34,85.34,1.5246,-0.632477,0,0,0,0,0,35.91,38.3583,3571659
0.0289917,0.00689697,1.01514,-0.006,0,85.34,85.34,1.5246,-0.632477,0,0,0,0,0,35.91,38.3798,3571674
0.0267334,0.00701904,1.02124,-0.006,0.003,85.34,85.34,1.5246,-0.632477,0,0,0,0,0,35.91,38.3993,3571689
0.026062,0.00628662,1.02637,-0.007,0.004,85.34,85.34,1.5246,-0.632477,0,0,0,0,0,35.91,38.4191,3571719
0.0252075,0.00292969,1.01892,-0.01,0.004,85.34,85.34,1.5246,-0.632477,0,0,0,0,0,35.91,38.4387,3571734
0.0279541,0.00543213,1.02301,-0.007,0.001,85.34,85.34,1.5246,-0.632477,0,0,0,0,0,35.91,38.4603,3571749
0.031189,0.00524902,1.02032,-0.007,-0.001,85.34,85.34,1.5246,-0.632477,0,0,0,0,0,35.91,38.4807,3571779
0.0246582,0.00537109,1.02905,-0.007,0.005,85.34,85.34,1.5246,-0.632477,0,0,0,0,0,35.91,38.4991,3571794
0.0244141,0.00268555,1.0144,-0.01,0.004,85.34,85.34,1.5246,-0.632477,0,0,0,0,0,35.91,38.5191,3571809
0.0289307,0.00628662,1.01636,-0.006,0,85.34,85.34,1.5246,-0.632477,0,0,0,0,0,35.91,38.5397,3571839
0.0238037,0.00701904,1.02423,-0.005,0.006,85.34,85.34,1.5246,-0.632477,0,0,0,0,0,35.91,38.5627,3571854
0.031311,0.00531006,1.01471,-0.006,-0.001,85.34,85.34,1.5246,-0.632477,0,0,0,0,0,35.91,38.5814,3571869
0.0291748,0.00305176,1.00641,-0.008,0,85.34,85.34,1.5246,-0.632477,0,0,0,0,0,35.91,38.6005,3571899
0.0261841,0.00817871,1.01959,-0.004,0.003,85.34,85.34,1.5246,-0.632477,0,0,0,0,0,35.91,38.6191,3571914
0.0283203,0.00592041,1.02014,-0.006,0.001,85.34,85.34,1.5246,-0.632477,0,0,0,0,0,35.95,38.6411,3571944
0.0292969,0.00762939,1.01892,-0.004,0,85.34,85.34,1.5246,-0.632477,0,0,0,0,0,35.95,38.6615,3571959
0.0273438,0.00543213,1.02362,-0.006,0.002,85.34,85.34,1.5246,-0.632477,0,0,0,0,0,35.95,38.6797,3571974
0.0259399,0.00671387,1.01794,-0.005,0.003,85.34,85.34,1.5246,-0.632477,0,0,0,0,0,35.95,38.6995,3571989
0.0283813,0.00421143,1.02344,-0.007,0.001,85.34,85.34,1.5246,-0.632477,0,0,0,0,0,35.95,38.7192,3572019
0.0266724,0.00579834,1.02161,-0.005,0.002,85.34,85.34,1.5246,-0.632477,0,0,0,0,0,35.95,38.7409,3572034
0.0264282,0.00769043,1.02252,-0.004,0.003,85.34,85.34,1.5246,-0.632477,0,0,0,0,0,35.95,38.7598,3572049
0.0305786,0.00500488,1.01776,-0.006,-0.001,85.34,85.34,1.5246,-0.632477,0,0,0,0,0,35.95,38.7782,3572079
0.0281982,0.0055542,1.01776,-0.005,0.001,85.34,85.34,1.5246,-0.632477,0,0,0,0,0,35.95,38.7993,3572094
0.0273438,0.00390625,1.02264,-0.007,0.001,85.34,85.34,1.5246,-0.632477,0,0,0,0,0,35.95,38.8203,3572124
0.0288696,0.0012207,1.01831,-0.009,0,85.34,85.34,1.5246,-0.632477,0,0,0,0,0,35.95,38.8394,3572139
0.0275879,0.00463867,1.01746,-0.006,0.001,85.34,85.34,1.5246,-0.632477,0,0,0,0,0,35.95,38.8582,3572154
0.0288086,0.00640869,1.02338,-0.004,0,85.34,85.34,1.5246,-0.632477,0,0,0,0,0,35.95,38.8871,3572184
0.0289307,0.00286865,1.01038,-0.007,0,85.34,85.34,1.5246,-0.632477,0,0,0,0,0,35.95,38.899,3572199
0.0306396,0.00427246,1.02112,-0.006,-0.001,85.34,85.34,1.5246,-0.632477,0,0,0,0,0,35.95,38.9193,3572214
0.026062,0.00622559,1.01361,-0.004,0.002,85.34,85.34,1.5246,-0.632477,0,0,0,0,0,35.95,38.9388,3572229
0.0310059,0.000732422,1.01312,-0.009,-0.002,85.34,85.34,1.5246,-0.632477,0,0,0,0,0,35.95,38.9597,3572259
0.0256348,0.00872803,1.0177,-0.001,0.003,85.34,85.34,1.5246,-0.632477,0,0,0,0,0,35.95,38.9791,3572274
0.0298462,0.00445557,1.02448,-0.005,0,85.34,85.34,1.5246,-0.632477,0,0,0,0,0,35.95,38.9999,3572304
0.02771,0.00524902,1.01733,-0.004,0.001,85.34,85.34,1.5246,-0.632477,0,0,0,0,0,35.95,39.0193,3572319
0.0234985,0.00262451,1.01953,-0.007,0.005,85.34,85.34,1.5246,-0.632477,0,0,0,0,0,35.95,39.0385,3572334
0.0274658,0.00372314,1.0166,-0.006,0.001,85.34,85.34,1.5246,-0.632477,0,0,0,0,0,35.95,39.0595,3572349
0.0272827,0.00262451,1.01788,-0.007,0.001,85.34,85.34,1.5246,-0.632477,0,0,0,0,0,35.95,39.0784,3572379
0.0283203,0.00311279,1.02057,-0.006,0,85.34,85.34,1.5246,-0.632477,0,0,0,0,0,35.95,39.0992,3572395
0.0256348,0.0065918,1.02374,-0.003,0.003,85.34,85.34,1.5246,-0.632477,0,0,0,0,0,35.95,39.1191,3572409
0.0247192,0.00714111,1.01898,-0.002,0.004,85.34,85.34,1.5246,-0.632477,0,0,0,0,0,35.96,39.1384,3572439
0.0235596,0.00976562,1.02075,0,0.005,85.34,85.34,1.5246,-0.632477,0,0,0,0,0,35.96,39.1597,3572455
0.0292969,0.00830078,1.02411,-0.001,0,85.34,85.34,1.5246,-0.632477,0,0,0,0,0,35.96,39.1796,3572469
0.0290527,0.00317383,1.01904,-0.006,0,85.34,85.34,1.5246,-0.632477,0,0,0,0,0,35.96,39.2003,3572499
0.0291748,0.00445557,1.01514,-0.004,0,85.34,85.34,1.5246,-0.632477,0,0,0,0,0,35.96,39.2183,3572515
0.0272827,0.00421143,1.01825,-0.005,0.001,85.34,85.34,1.5246,-0.632477,0,0,0,0,0,35.96,39.2392,3572529
0.0266113,0.00500488,1.01697,-0.004,0.001,85.34,85.34,1.5246,-0.632477,0,0,0,0,0,35.96,39.2599,3572559
0.0246582,0.00701904,1.01813,-0.002,0.003,85.34,85.34,1.5246,-0.632477,0,0,0,0,0,35.96,39.2799,3572575
0.0256958,0.00567627,1.02252,-0.003,0.003,85.34,85.34,1.5246,-0.632477,0,0,0,0,0,35.96,39.2996,3572589
0.0285034,0.00775146,1.01666,-0.001,0,85.34,85.34,1.5246,-0.632477,0,0,0,0,0,35.96,39.324,3572619
0.0254517,0.00720215,1.02271,-0.002,0.003,85.34,85.34,1.5246,-0.632477,0,0,0,0,0,35.96,39.3424,3572635
0.029541,0.00292969,1.01166,-0.006,-0.001,85.34,85.34,1.5246,-0.632477,0,0,0,0,0,35.96,39.3596,3572649
0.0273438,0.00396729,1.01379,-0.005,0.001,85.34,85.34,1.5246,-0.632477,0,0,0,0,0,35.96,39.3786,3572679
0.0293579,0.00683594,1.01648,-0.002,0,85.34,85.34,1.5246,-0.632477,0,0,0,0,0,35.96,39.3993,3572695
0.0270386,0.00335693,1.02374,-0.005,0.001,85.34,85.34,1.5246,-0.632477,0,0,0,0,0,35.96,39.4248,3572724
0.0285645,0.0043335,1.01331,-0.004,0,85.34,85.34,1.5246,-0.632477,0,0,0,0,0,35.96,39.4386,3572739
0.0272827,0.00524902,1.02179,-0.003,0.001,85.34,85.34,1.5246,-0.632477,0,0,0,0,0,35.96,39.4586,3572755
0.0267944,0.0057373,1.01666,-0.003,0.001,85.34,85.34,1.5246,-0.632477,0,0,0,0,0,35.96,39.4806,3572784
0.02771,0.00140381,1.02271,-0.007,0,85.34,85.34,1.5246,-0.632477,0,0,0,0,0,35.96,39.4987,3572799
0.0263062,0.00610352,1.01819,-0.002,0.002,85.34,85.34,1.5246,-0.632477,0,0,0,0,0,35.96,39.5185,3572815
0.0292969,0.00585938,1.02924,-0.002,0,85.34,85.34,1.5246,-0.632477,0,0,0,0,0,35.96,39.5402,3572844
0.0303955,0.00482178,1.00922,-0.003,-0.002,85.34,85.34,1.5246,-0.632477,0,0,0,0,0,35.96,39.5598,3572859
0.0267944,0.00585938,1.02771,-0.002,0.001,85.34,85.34,1.5246,-0.632477,0,0,0,0,0,35.96,39.5789,3572875
0.027832,0.0057373,1.01562,-0.002,0,85.34,85.34,1.5246,-0.632477,0,0,0,0,0,35.96,39.5991,3572889
0.027771,0.00769043,1.021,0,0,85.34,85.34,1.5246,-0.632477,0,0,0,0,0,35.96,39.6199,3572919
0.026001,0.0067749,1.01636,-0.001,0.002,85.34,85.34,1.5246,-0.632477,0,0,0,0,0,35.96,39.6391,3572935
0.0278931,0.00274658,1.02338,-0.005,0,85.34,85.34,1.5246,-0.632477,0,0,0,0,0,36,39.6618,3572949
0.0309448,0.0045166,1.01794,-0.003,-0.002,85.34,85.34,1.5246,-0.632477,0,0,0,0,0,36,39.6796,3572979
0.0301514,0.00476074,1.01465,-0.003,-0.001,85.34,85.34,1.5246,-0.632477,0,0,0,0,0,36,39.6998,3572995
0.0272217,0.00231934,1.02283,-0.006,0.001,85.34,85.34,1.5246,-0.632477,0,0,0,0,0,36,39.719,3573009
0.0264282,0.00518799,1.02063,-0.003,0.001,85.34,85.34,1.5246,-0.632477,0,0,0,0,0,36,39.7395,3573040
0.0271606,0.0043335,1.01727,-0.003,0.001,85.34,85.34,1.5246,-0.632477,0,0,0,0,0,36,39.7596,3573055
0.0270386,0.00665283,1.01892,-0.001,0.001,85.34,85.34,1.5246,-0.632477,0,0,0,0,0,36,39.7792,3573070
0.0252075,0.00396729,1.01746,-0.004,0.003,85.34,85.34,1.5246,-0.632477,0,0,0,0,0,36,39.7995,3573100
0.0258179,0.00415039,1.02594,-0.004,0.002,85.34,85.34,1.5246,-0.632477,0,0,0,0,0,36,39.8274,3573130
0.0258179,0.00415039,1.02594,-0.004,0.002,85.34,85.34,1.5246,-0.632477,0,0,0,0,0,36,39.8397,3573130
0.0261841,0.00311279,1.0119,-0.004,0.001,85.34,85.34,1.5246,-0.632477,0,0,0,0,0,36,39.8621,3573160
0.0267944,0.00738525,1.0368,0,0.002,85.34,85.34,1.5246,-0.632477,0,0,0,0,0,36,39.8811,3573175
0.0298462,0.0055542,1.00745,-0.002,-0.001,85.34,85.34,1.5246,-0.632477,0,0,0,0,0,36,39.8986,3573190
0.0270386,0.00427246,1.01477,-0.003,0.001,85.34,85.34,1.5246,-0.632477,0,0,0,0,0,36,39.9196,3573220
0.0286255,0.0126343,1.01593,0.004,0,85.34,85.34,1.5246,-0.632477,0,0,0,0,0,36,39.9395,3573235
0.0303955,0.000854492,1.02258,-0.006,-0.002,85.34,85.34,1.5246,-0.632477,0,0,0,0,0,36,39.9585,3573250
0.0317993,0.00842285,1.01196,0.001,-0.003,85.34,85.34,1.5246,-0.632477,0,0,0,0,0,36,39.9789,3573280
0.0223999,0.00598145,1.02734,-0.002,0.006,85.34,85.34,1.5246,-0.632477,0,0,0,0,0,36,40.0005,3573295
0.0325317,0.00317383,1.01099,-0.004,-0.004,85.34,85.34,1.5246,-0.632477,0,0,0,0,0,36,40.0188,3573310
0.0293579,0.00518799,1.02039,-0.002,-0.001,85.34,85.34,1.5246,-0.632477,0,0,0,0,0,36,40.0386,3573340
0.0310669,0.00708008,1.01709,0,-0.002,85.34,85.34,1.5246,-0.632477,0,0,0,0,0,36,40.0584,3573355
0.0197754,0.00134277,1.02344,-0.006,0.008,85.34,85.34,1.5246,-0.632477,0,0,0,0,0,36,40.0801,3573370
0.0270996,0.00604248,1.00659,-0.001,0,85.34,85.34,1.5246,-0.632477,0,0,0,0,0,36,40.1017,3573400
0.0209351,0.00305176,1.02979,-0.005,0.007,85.34,85.34,1.5246,-0.632477,0,0,0,0,0,36,40.119,3573415
0.0290527,0.00598145,1.01562,-0.001,0,85.34,85.34,1.5246,-0.632477,0,0,0,0,0,36,40.1389,3573430
0.032959,0.00543213,1.01715,-0.001,-0.004,85.35,85.35,1.5246,-0.632477,0,0,0,0,0,35.98,40.1591,3573460
0.0311279,0.00683594,1.01849,0,-0.002,85.35,85.35,1.5246,-0.632477,0,0,0,0,0,35.98,40.1797,3573475
0.0307007,0.00402832,1.02228,-0.003,-0.002,85.35,85.35,1.5246,-0.632477,0,0,0,0,0,35.98,40.2024,3573505
0.0288696,0.00567627,1.01788,-0.001,0,85.35,85.35,1.5246,-0.632477,0,0,0,0,0,35.98,40.2194,3573520
0.0263672,0.00231934,1.02356,-0.005,0.001,85.35,85.35,1.5246,-0.632477,0,0,0,0,0,35.98,40.2391,3573535
0.0291138,0.0067749,1.01746,0,0,85.35,85.35,1.5246,-0.632477,0,0,0,0,0,35.98,40.26,3573550
0.0297241,0.00537109,1.01941,-0.001,-0.001,85.35,85.35,1.5246,-0.632477,0,0,0,0,0,35.98,40.2789,3573580
0.0239868,0.00726318,1.01898,0,0.004,85.35,85.35,1.5246,-0.632477,0,0,0,0,0,35.98,40.3003,3573595
0.0250244,0.00500488,1.02002,-0.002,0.002,85.35,85.35,1.5246,-0.632477,0,0,0,0,0,35.98,40.3199,3573610
0.0255127,0.00762939,1.02209,0,0.002,85.35,85.35,1.5246,-0.632477,0,0,0,0,0,35.98,40.342,3573640
0.0266113,0.00512695,1.02771,-0.002,0.001,85.35,85.35,1.5246,-0.632477,0,0,0,0,0,35.98,40.3598,3573655
0.031189,0.00512695,1.01746,-0.001,-0.003,85.35,85.35,1.5246,-0.632477,0,0,0,0,0,35.98,40.3797,3573670
0.0302124,0.00402832,0.992371,-0.002,-0.003,85.35,85.35,1.5246,-0.632477,0,0,0,0,0,35.98,40.3993,3573700
0.0255737,0.00463867,1.04803,-0.002,0.003,85.35,85.35,1.5246,-0.632477,0,0,0,0,0,35.98,40.4202,3573715
0.0224609,0.00537109,1.01691,-0.002,0.005,85.35,85.35,1.5246,-0.632477,0,0,0,0,0,35.98,40.4398,3573730
0.0172119,0.00238037,1.04938,-0.005,0.011,85.35,85.35,1.5246,-0.632477,0,0,0,0,0,35.98,40.4592,3573760
0.0393066,0.00244141,0.985718,-0.003,-0.012,85.35,85.35,1.5246,-0.632477,0,0,0,0,0,35.98,40.4797,3573775
0.0222778,0.0109863,1.06012,0.002,0.007,85.35,85.35,1.5246,-0.632477,0,0,0,0,0,35.98,40.5005,3573790
0.0230103,0.0161133,1.06641,0.008,0.006,85.35,85.35,1.5246,-0.632477,0,0,0,0,0,35.98,40.5194,3573820
0.0328979,-0.00140381,0.969788,-0.007,-0.006,85.35,85.35,1.5246,-0.632477,0,0,0,0,0,35.98,40.5393,3573835
0.0181885,0.0111694,1.07062,0.002,0.011,85.35,85.35,1.5246,-0.632477,0,0,0,0,0,35.98,40.5602,3573850
0.0194702,0.00787354,1.06549,0,0.009,85.34,85.34,1.5246,-0.632477,0,0,0,0,0,35.98,40.5787,3573880
0.0348511,-0.0022583,0.982849,-0.008,-0.008,85.35,85.35,1.5246,-0.632477,0,0,0,0,0,35.98,40.5989,3573895
0.0270996,0.00653076,1.03925,0,0.001,85.34,85.34,1.5246,-0.632477,0,0,0,0,0,35.98,40.62,3573910
0.0248413,0.0108643,1.03143,0.003,0.003,85.34,85.34,1.5246,-0.632477,0,0,0,0,0,35.98,40.6385,3573940
0.0256958,0.00598145,1.00897,0,0.001,85.34,85.34,1.5246,-0.632477,0,0,0,0,0,35.98,40.6587,3573955
0.0262451,0.00567627,1.03595,-0.001,0.002,85.34,85.34,1.5246,-0.632477,0,0,0,0,0,35.98,40.68,3573970
0.0267944,0.00408936,1.02917,-0.002,0.001,85.34,85.34,1.5246,-0.632477,0,0,0,0,0,35.98,40.6988,3574000
0.0335693,0.0020752,1.01202,-0.004,-0.006,85.34,85.34,1.5246,-0.632477,0,0,0,0,0,35.98,40.7223,3574015
0.0291138,0.00634766,1.02252,0,-0.001,85.34,85.34,1.5246,-0.632477,0,0,0,0,0,35.98,40.7401,3574030
0.027832,0.00299072,1.02411,-0.003,0,85.34,85.34,1.5246,-0.632477,0,0,0,0,0,35.98,40.7589,3574060
0.0288696,0.0055542,1.01587,-0.001,-0.001,85.34,85.34,1.5246,-0.632477,0,0,0,0,0,35.98,40.7789,3574076
0.0262451,0.00640869,1.02295,0,0.001,85.34,85.34,1.5246,-0.632477,0,0,0,0,0,35.98,40.7989,3574090
0.0245361,0.00482178,1.02411,-0.002,0.003,85.34,85.34,1.5246,-0.632477,0,0,0,0,0,35.98,40.8197,3574120
0.0302124,0.00616455,1.01312,0,-0.002,85.34,85.34,1.5246,-0.632477,0,0,0,0,0,35.98,40.8391,3574136
0.0230103,0.00958252,1.0282,0.002,0.005,85.35,85.35,1.5246,-0.632477,0,0,0,0,0,35.98,40.8602,3574150
0.0263062,0.00396729,1.03015,-0.002,0.001,85.35,85.35,1.5246,-0.632477,0,0,0,0,0,35.98,40.8881,3574180
0.0302734,0.0045166,1.01233,-0.001,-0.002,85.35,85.35,1.5246,-0.632477,0,0,0,0,0,35.98,40.8991,3574196
0.0241089,0.00567627,1.03009,-0.001,0.003,85.35,85.35,1.5246,-0.632477,0,0,0,0,0,35.98,40.9198,3574210
0.0251465,0.00878906,1.02069,0.002,0.003,85.35,85.35,1.5246,-0.632477,0,0,0,0,0,35.98,40.9436,3574240
0.0270386,0.00561523,1.00964,0,0,85.34,85.34,1.5246,-0.632477,0,0,0,0,0,35.98,40.9612,3574256
0.0245361,0.00872803,1.03754,0.001,0.004,85.35,85.35,1.5246,-0.632477,0,0,0,0,0,35.98,40.98,3574270
0.0290527,0.00115967,1.04962,-0.005,0,85.35,85.35,1.5246,-0.632477,0,0,0,0,0,35.98,40.9992,3574300
0.0185547,0.00561523,1.02008,-0.001,0.009,85.35,85.35,1.5246,-0.632477,0,0,0,0,0,35.98,41.02,3574316
0.0436401,0.00634766,0.988525,0.001,-0.016,85.35,85.35,1.5246,-0.632477,0,0,0,0,0,35.98,41.039,3574330
0.0390625,0.00476074,0.954529,0,-0.012,85.34,85.34,1.5246,-0.632477,0,0,0,0,0,35.98,41.0593,3574360
0.0198364,0.0143433,1.08612,0.006,0.01,85.34,85.34,1.5246,-0.632477,0,0,0,0,0,35.98,41.0791,3574376
0.0302734,-0.0078125,0.956787,-0.013,-0.005,85.34,85.34,1.5246,-0.632477,0,0,0,0,0,35.98,41.0991,3574390
0.0340576,0.0012207,0.96051,-0.004,-0.008,85.34,85.34,1.5246,-0.632477,0,0,0,0,0,35.98,41.1188,3574420
0.019104,0.00714111,1.08191,0,0.01,85.35,85.35,1.5246,-0.632477,0,0,0,0,0,35.98,41.1398,3574436
0.0360107,0.00256348,0.963928,-0.002,-0.009,85.35,85.35,1.5246,-0.632477,0,0,0,0,0,35.98,41.1596,3574450
0.0349121,0.00183105,0.996521,-0.003,-0.007,85.35,85.35,1.5246,-0.632477,0,0,0,0,0,35.96,41.1801,3574480
0.0264282,0.00830078,1.0282,0.001,0.001,85.35,85.35,1.5246,-0.632477,0,0,0,0,0,35.96,41.1995,3574496
0.0297852,0.00567627,1.01825,0,-0.002,85.35,85.35,1.5246,-0.632477,0,0,0,0,0,35.96,41.2397,3574540
0.024231,0.00354004,1.02631,-0.002,0.003,85.35,85.35,1.5246,-0.632477,0,0,0,0,0,35.96,41.2582,3574556
0.0291138,0.00671387,1.01849,0,-0.001,85.35,85.35,1.5246,-0.632477,0,0,0,0,0,35.96,41.2788,3574570
0.0261841,0.00738525,1.01593,0.001,0.001,85.35,85.35,1.5246,-0.632477,0,0,0,0,0,35.96,41.2985,3574600
0.0248413,0.00653076,1.01617,0,0.002,85.35,85.35,1.5246,-0.632477,0,0,0,0,0,35.96,41.3201,3574616
0.0253296,0.00256348,1.02405,-0.003,0.002,85.35,85.35,1.5246,-0.632477,0,0,0,0,0,35.96,41.3386,3574630
0.0268555,0.0043335,1.01959,-0.001,0,85.35,85.35,1.5246,-0.632477,0,0,0,0,0,35.96,41.364,3574660
0.0253906,0.00482178,1.02777,-0.001,0.002,85.34,85.34,1.5246,-0.632477,0,0,0,0,0,35.96,41.3785,3574676
0.0290527,0.00628662,1.013,0,-0.001,85.34,85.34,1.5246,-0.632477,0,0,0,0,0,35.96,41.3995,3574690
0.0263062,0.00604248,1.01215,0,0.001,85.34,85.34,1.5246,-0.632477,0,0,0,0,0,35.96,41.419,3574720
0.0239258,0.00640869,1.02216,0,0.003,85.34,85.34,1.5246,-0.632477,0,0,0,0,0,35.96,41.4392,3574736
0.0265503,0.00476074,1.0246,-0.001,0.001,85.34,85.34,1.5246,-0.632477,0,0,0,0,0,35.96,41.4597,3574751
0.0289307,0.00518799,1.02551,0,-0.001,85.34,85.34,1.5246,-0.632477,0,0,0,0,0,35.96,41.479,3574781
0.0304565,0.00561523,1.01666,0,-0.002,85.35,85.35,1.5246,-0.632477,0,0,0,0,0,35.96,41.4989,3574796
0.0294189,0.00640869,1.02533,0,-0.001,85.35,85.35,1.5246,-0.632477,0,0,0,0,0,35.96,41.519,3574811
0.0321655,0.00335693,1.01508,-0.002,-0.004,85.35,85.35,1.5246,-0.632477,0,0,0,0,0,35.96,41.5402,3574841
0.0282593,0.00769043,1.039,0.001,0,85.35,85.35,1.5246,-0.632477,0,0,0,0,0,35.96,41.56,3574856
0.0248413,0.00201416,1.00848,-0.004,0.002,85.35,85.35,1.5246,-0.632477,0,0,0,0,0,35.96,41.5806,3574871
0.0236206,0.00592041,1.01428,0,0.003,85.34,85.34,1.5246,-0.632477,0,0,0,0,0,35.96,41.5994,3574901
0.0343628,0.00732422,1.00818,0.001,-0.006,85.34,85.34,1.5246,-0.632477,0,0,0,0,0,35.96,41.6212,3574916
0.0219727,0.00720215,1.04285,0,0.006,85.34,85.34,1.5246,-0.632477,0,0,0,0,0,35.96,41.6394,3574931
0.0245972,0.0111084,1.03723,0.004,0.003,85.34,85.34,1.5246,-0.632477,0,0,0,0,0,35.96,41.6601,3574961
0.0267334,0.00177002,1.00037,-0.004,0,85.34,85.34,1.5246,-0.632477,0,0,0,0,0,35.96,41.6786,3574976
0.027771,0.00872803,1.03442,0.002,0,85.34,85.34,1.5246,-0.632477,0,0,0,0,0,35.98,41.6983,3574991
0.024353,0.00830078,1.03308,0.001,0.003,85.34,85.34,1.5246,-0.632477,0,0,0,0,0,35.98,41.7185,3575021
0.0286865,0.00720215,1.01337,0.001,0,85.35,85.35,1.5246,-0.632477,0,0,0,0,0,35.98,41.7391,3575036
0.0267944,0.00622559,1.02307,0,0.001,85.34,85.34,1.5246,-0.632477,0,0,0,0,0,35.98,41.7584,3575051
0.0272827,0.00543213,1.01947,0,0,85.34,85.34,1.5246,-0.632477,0,0,0,0,0,35.98,41.7787,3575081
0.0256958,0.00488281,1.02222,-0.001,0.002,85.34,85.34,1.5246,-0.632477,0,0,0,0,0,35.98,41.7987,3575096
0.0270996,0.00219727,1.01514,-0.003,0,85.34,85.34,1.5246,-0.632477,0,0,0,0,0,35.98,41.8196,3575111
0.0309448,0.00592041,1.01074,0,-0.003,85.34,85.34,1.5246,-0.632477,0,0,0,0,0,35.98,41.8388,3575141
0.0249634,0.00653076,1.02618,0,0.003,85.34,85.34,1.5246,-0.632477,0,0,0,0,0,35.98,41.8587,3575156
0.0275269,0.00482178,1.01691,-0.001,0,85.35,85.35,1.5246,-0.632477,0,0,0,0,0,35.98,41.8787,3575171
0.024292,0.00769043,1.02344,0.001,0.003,85.35,85.35,1.5246,-0.632477,0,0,0,0,0,35.98,41.8995,3575201
0.027771,0.00579834,1.01453,0,0,85.35,85.35,1.5246,-0.632477,0,0,0,0,0,35.98,41.9198,3575216
0.0286865,0.00469971,1.02283,-0.001,-0.001,85.35,85.35,1.5246,-0.632477,0,0,0,0,0,35.98,41.9388,3575231
0.0290527,0.00628662,1.02057,0,-0.001,85.35,85.35,1.5246,-0.632477,0,0,0,0,0,35.98,41.9591,3575246
0.0262451,0.00506592,1.02643,-0.001,0.001,85.35,85.35,1.5246,-0.632477,0,0,0,0,0,35.98,41.9793,3575276
0.0265503,0.00262451,1.01978,-0.003,0,85.35,85.35,1.5246,-0.632477,0,0,0,0,0,35.98,42,3575291
0.0244751,0.00665283,1.02551,0,0.003,85.35,85.35,1.5246,-0.632477,0,0,0,0,0,35.98,42.0193,3575321
0.0281982,0.00463867,1.01636,-0.001,0,85.35,85.35,1.5246,-0.632477,0,0,0,0,0,35.98,42.0408,3575336
0.0231323,0.00561523,1.02924,0,0.004,85.35,85.35,1.5246,-0.632477,0,0,0,0,0,35.98,42.0596,3575351
0.0318604,0.00439453,1.01227,-0.001,-0.004,85.35,85.35,1.5246,-0.632477,0,0,0,0,0,35.98,42.0796,3575381
0.0235596,0.00366211,1.0249,-0.002,0.004,85.35,85.35,1.5246,-0.632477,0,0,0,0,0,35.98,42.0994,3575396
0.0275879,0.00579834,1.01508,0,0,85.35,85.35,1.5246,-0.632477,0,0,0,0,0,35.98,42.119,3575411
0.0275269,0.0067749,1.01099,0,0,85.35,85.35,1.5246,-0.632477,0,0,0,0,0,35.98,42.1397,3575441
0.027832,0.00744629,1.01868,0.001,0,85.35,85.35,1.5246,-0.632477,0,0,0,0,0,35.98,42.1593,3575456
0.0219727,0.00354004,1.01965,-0.002,0.005,85.35,85.35,1.5246,-0.632477,0,0,0,0,0,35.98,42.1795,3575471
0.0292358,0.0045166,1.00513,-0.001,-0.002,85.35,85.35,1.5246,-0.632477,0,0,0,0,0,35.97,42.2005,3575501
0.0257568,0.00256348,1.02863,-0.003,0.001,85.35,85.35,1.5246,-0.632477,0,0,0,0,0,35.97,42.2233,3575516
0.0299683,0.00695801,1.01166,0.001,-0.002,85.35,85.35,1.5246,-0.632477,0,0,0,0,0,35.97,42.2395,3575531
0.0336914,0.00561523,1.02045,0,-0.006,85.35,85.35,1.5246,-0.632477,0,0,0,0,0,35.97,42.2626,3575561
0.0273438,0.00701904,1.02325,0.001,0,85.35,85.35,1.5246,-0.632477,0,0,0,0,0,35.97,42.2794,3575576
0.0255127,0.00335693,1.01978,-0.002,0.001,85.35,85.35,1.5246,-0.632477,0,0,0,0,0,35.97,42.2992,3575591
0.0256348,0.00482178,1.02399,-0.001,0.002,85.35,85.35,1.5246,-0.632477,0,0,0,0,0,35.97,42.3183,3575606
0.0263062,0.00671387,1.0246,0,0.001,85.35,85.35,1.5246,-0.632477,0,0,0,0,0,35.97,42.3393,3575636
0.0296021,0.00482178,1.01105,0,-0.002,85.35,85.35,1.5246,-0.632477,0,0,0,0,0,35.97,42.3595,3575651
0.0256348,0.00817871,1.02777,0.002,0.002,85.35,85.35,1.5246,-0.632477,0,0,0,0,0,35.97,42.3783,3575666
0.0267334,0.00244141,1.02246,-0.003,0,85.34,85.34,1.5246,-0.632477,0,0,0,0,0,35.97,42.3987,3575696
0.0290527,0.00354004,1.01294,-0.002,-0.001,85.34,85.34,1.5246,-0.632477,0,0,0,0,0,35.97,42.4192,3575711
0.0281372,0.00579834,1.01263,0,0,85.34,85.34,1.5246,-0.632477,0,0,0,0,0,35.97,42.439,3575741
0.0257568,0.00561523,1.02686,0,0.002,85.34,85.34,1.5246,-0.632477,0,0,0,0,0,35.97,42.4592,3575756
0.0247192,0.0057373,1.01617,0,0.002,85.34,85.34,1.5246,-0.632477,0,0,0,0,0,35.97,42.4789,3575771
0.0261841,0.00695801,1.02179,0.001,0.001,85.34,85.34,1.5246,-0.632477,0,0,0,0,0,35.97,42.4995,3575801
0.0299683,0.00524902,1.01593,0,-0.002,85.34,85.34,1.5246,-0.632477,0,0,0,0,0,35.97,42.5196,3575817
0.0268555,0.0032959,1.01892,-0.002,0,85.34,85.34,1.5246,-0.632477,0,0,0,0,0,35.97,42.5396,3575831
0.0267944,0.00567627,1.02185,0,0,85.34,85.34,1.5246,-0.632477,0,0,0,0,0,35.97,42.5601,3575861
0.027771,0.00726318,1.01953,0.001,0,85.34,85.34,1.5246,-0.632477,0,0,0,0,0,35.97,42.5789,3575877
0.0308228,0.00408936,1.021,-0.001,-0.003,85.34,85.34,1.5246,-0.632477,0,0,0,0,0,35.97,42.5993,3575891
0.0280762,0.0065918,1.01642,0,0,85.34,85.34,1.5246,-0.632477,0,0,0,0,0,35.97,42.6192,3575921
0.0257568,0.00549316,1.01801,0,0.001,85.34,85.34,1.5246,-0.632477,0,0,0,0,0,35.97,42.6392,3575937
0.0255737,0.00317383,1.01245,-0.002,0.001,85.34,85.34,1.5246,-0.632477,0,0,0,0,0,35.97,42.6594,3575951
0.0268555,0.00531006,1.01196,0,0,85.34,85.34,1.5246,-0.632477,0,0,0,0,0,35.97,42.6793,3575981
0.0261841,0.0043335,1.02539,-0.001,0.001,85.34,85.34,1.5246,-0.632477,0,0,0,0,0,35.97,42.7073,3575997
0.0300293,0.00299072,1.00958,-0.002,-0.002,85.34,85.34,1.5246,-0.632477,0,0,0,0,0,35.96,42.7207,3576011
0.0271606,0.00408936,1.01685,-0.001,0,85.34,85.34,1.5246,-0.632477,0,0,0,0,0,35.96,42.7398,3576041
0.0291138,0.00543213,1.02472,0,-0.001,85.34,85.34,1.5246,-0.632477,0,0,0,0,0,35.96,42.7596,3576057
0.0266113,0.00616455,1.01648,0,0.001,85.34,85.34,1.5246,-0.632477,0,0,0,0,0,35.96,42.7798,3576071
0.0301514,0.00274658,1.01886,-0.002,-0.002,85.34,85.34,1.5246,-0.632477,0,0,0,0,0,35.96,42.7989,3576101
0.0255737,0.00140381,1.01941,-0.004,0.001,85.34,85.34,1.5246,-0.632477,0,0,0,0,0,35.96,42.8193,3576117
0.0325928,0.00390625,1.02283,-0.001,-0.004,85.34,85.34,1.5246,-0.632477,0,0,0,0,0,35.96,42.8387,3576131
0.0290527,0.0067749,1.02032,0.001,-0.001,85.34,85.34,1.5246,-0.632477,0,0,0,0,0,35.96,42.8615,3576161
0.0265503,0.00158691,1.01007,-0.003,0,85.34,85.34,1.5246,-0.632477,0,0,0,0,0,35.96,42.8789,3576177
0.0258789,0.00750732,1.02356,0.001,0.002,85.34,85.34,1.5246,-0.632477,0,0,0,0,0,35.96,42.8995,3576191
0.0269165,0.00463867,1.02063,0,0,85.34,85.34,1.5246,-0.632477,0,0,0,0,0,35.96,42.9187,3576221
0.0253296,0.0067749,1.02161,0,0.002,85.34,85.34,1.5246,-0.632477,0,0,0,0,0,35.96,42.9404,3576237
0.0249023,0.00390625,1.01813,-0.001,0.002,85.34,85.34,1.5246,-0.632477,0,0,0,0,0,35.96,42.9592,3576251
0.0291748,0.00445557,1.01691,0,-0.001,85.34,85.34,1.5246,-0.632477,0,0,0,0,0,35.96,42.9787,3576281
0.0292358,0.00427246,1.01862,-0.001,-0.001,85.34,85.34,1.5246,-0.632477,0,0,0,0,0,35.96,42.9996,3576297
0.0258789,0.00524902,1.02161,0,0.001,85.34,85.34,1.5246,-0.632477,0,0,0,0,0,35.96,43.0189,3576311
0.0276489,0.00665283,1.01892,0.001,0,85.34,85.34,1.5246,-0.632477,0,0,0,0,0,35.96,43.0392,3576341
0.0272827,0.00274658,1.01886,-0.002,0,85.34,85.34,1.5246,-0.632477,0,0,0,0,0,35.96,43.0616,3576357
0.0249023,0.0055542,1.01654,0,0.002,85.34,85.34,1.5246,-0.632477,0,0,0,0,0,35.96,43.079,3576371
0.0302734,0.00714111,1.01514,0.001,-0.002,85.34,85.34,1.5246,-0.632477,0,0,0,0,0,35.96,43.1106,3576401
0.0264282,0.00482178,1.01819,0,0,85.34,85.34,1.5246,-0.632477,0,0,0,0,0,35.96,43.1295,3576431
0.0264282,0.00482178,1.01819,0,0,85.34,85.34,1.5246,-0.632477,0,0,0,0,0,35.96,43.1419,3576431
0.0268555,0.00610352,1.03027,0,0.001,85.34,85.34,1.5246,-0.632477,0,0,0,0,0,35.96,43.1592,3576462
0.0299683,-0.00012207,1.01318,-0.005,-0.002,85.34,85.34,1.5246,-0.632477,0,0,0,0,0,35.96,43.18,3576477
0.0282593,0.00384521,1.02704,-0.001,0,85.34,85.34,1.5246,-0.632477,0,0,0,0,0,35.96,43.1996,3576492
0.026062,0.00598145,1.02167,0,0.001,85.34,85.34,1.5246,-0.632477,0,0,0,0,0,35.98,43.2192,3576522
0.0281372,0.00543213,1.01941,0,0,85.34,85.34,1.5246,-0.632477,0,0,0,0,0,35.98,43.239,3576537
0.0274048,0.00689697,1.01746,0.001,0,85.34,85.34,1.5246,-0.632477,0,0,0,0,0,35.98,43.2596,3576552
0.0270996,0.00787354,1.02106,0.002,0,85.34,85.34,1.5246,-0.632477,0,0,0,0,0,35.98,43.2806,3576582
0.0266113,0.00164795,1.02313,-0.003,0,85.34,85.34,1.5246,-0.632477,0,0,0,0,0,35.98,43.2992,3576597
0.0275269,0.00671387,1.01678,0.001,0,85.34,85.34,1.5246,-0.632477,0,0,0,0,0,35.98,43.3192,3576612
0.0292358,0.00610352,1.01221,0,-0.001,85.34,85.34,1.5246,-0.632477,0,0,0,0,0,35.98,43.3393,3576642
0.0275879,0.0055542,1.02069,0,0,85.34,85.34,1.5246,-0.632477,0,0,0,0,0,35.98,43.36,3576657
0.0270386,0.0057373,1.02075,0,0,85.34,85.34,1.5246,-0.632477,0,0,0,0,0,35.98,43.379,3576672
0.0296021,0.00299072,1.01984,-0.002,-0.002,85.34,85.34,1.5246,-0.632477,0,0,0,0,0,35.98,43.4008,3576702
0.0297852,0.0057373,1.0177,0,-0.002,85.34,85.34,1.5246,-0.632477,0,0,0,0,0,35.98,43.4195,3576717
0.0291138,0.00488281,1.01917,0,-0.001,85.34,85.34,1.5246,-0.632477,0,0,0,0,0,35.98,43.4407,3576732
0.0300903,0.00250244,1.01654,-0.002,-0.002,85.34,85.34,1.5246,-0.632477,0,0,0,0,0,35.98,43.4583,3576762
0.0269775,0.00518799,1.02539,0,0,85.34,85.34,1.5246,-0.632477,0,0,0,0,0,35.98,43.4791,3576777
0.027771,0.00524902,1.01764,0,0,85.34,85.34,1.5246,-0.632477,0,0,0,0,0,35.98,43.4994,3576792
0.029541,0.00494385,1.01575,0,-0.002,85.34,85.34,1.5246,-0.632477,0,0,0,0,0,35.98,43.5187,3576822
0.0274658,0.00695801,1.02161,0.001,0,85.34,85.34,1.5246,-0.632477,0,0,0,0,0,35.98,43.539,3576837
0.0256348,0.00482178,1.01746,0,0.001,85.34,85.34,1.5246,-0.632477,0,0,0,0,0,35.98,43.5601,3576852
0.0284424,0.00585938,1.02112,0,0,85.35,85.35,1.5246,-0.632477,0,0,0,0,0,35.98,43.5787,3576867
0.0274658,0.00579834,1.02124,0,0,85.35,85.35,1.5246,-0.632477,0,0,0,0,0,35.98,43.5992,3576897
0.0288696,0.00518799,1.01318,0,-0.001,85.34,85.34,1.5246,-0.632477,0,0,0,0,0,35.98,43.6188,3576912
0.0280762,0.00482178,1.01556,0,0,85.34,85.34,1.5246,-0.632477,0,0,0,0,0,35.98,43.639,3576942
0.0286255,0.00170898,1.01654,-0.003,-0.001,85.35,85.35,1.5246,-0.632477,0,0,0,0,0,35.98,43.6592,3576957
0.027771,0.00622559,1.00964,0,0,85.34,85.34,1.5246,-0.632477,0,0,0,0,0,35.98,43.68,3576972
0.0285645,0.0065918,1.01697,0,0,85.35,85.35,1.5246,-0.632477,0,0,0,0,0,35.98,43.6987,3577002
0.0258789,0.00787354,1.02374,0.001,0.002,85.35,85.35,1.5246,-0.632477,0,0,0,0,0,35.98,43.719,3577017
0.0279541,0.00311279,1.01282,-0.002,0,85.35,85.35,1.5246,-0.632477,0,0,0,0,0,35.94,43.7392,3577032
0.027832,0.00408936,1.01477,-0.001,0,85.35,85.35,1.5246,-0.632477,0,0,0,0,0,35.94,43.7591,3577062
0.0265503,0.00708008,1.01843,0.001,0.001,85.35,85.35,1.5246,-0.632477,0,0,0,0,0,35.94,43.7792,3577077
0.0310059,0.00634766,1.01617,0.001,-0.003,85.35,85.35,1.5246,-0.632477,0,0,0,0,0,35.94,43.7993,3577092
0.0254517,0.00311279,1.01422,-0.002,0.001,85.35,85.35,1.5246,-0.632477,0,0,0,0,0,35.94,43.8192,3577122
0.0247803,0.00549316,1.01996,0,0.002,85.35,85.35,1.5246,-0.632477,0,0,0,0,0,35.94,43.8393,3577137
0.0281982,0.00476074,1.01489,0,0,85.35,85.35,1.5246,-0.632477,0,0,0,0,0,35.94,43.8591,3577152
0.0287476,0.00372314,1.01801,-0.001,-0.001,85.35,85.35,1.5246,-0.632477,0,0,0,0,0,35.94,43.8789,3577182
0.0291138,0.00274658,1.01581,-0.002,-0.001,85.35,85.35,1.5246,-0.632477,0,0,0,0,0,35.94,43.8994,3577197
0.0270996,0.0057373,1.01776,0,0,85.35,85.35,1.5246,-0.632477,0,0,0,0,0,35.94,43.9197,3577212
0.0240479,0.0032959,1.02008,-0.002,0.003,85.35,85.35,1.5246,-0.632477,0,0,0,0,0,35.94,43.9394,3577227
0.0244141,0.00439453,1.01276,-0.001,0.002,85.35,85.35,1.5246,-0.632477,0,0,0,0,0,35.94,43.96,3577257
0.0285034,0.00469971,1.02795,-0.001,0,85.35,85.35,1.5246,-0.632477,0,0,0,0,0,35.94,43.979,3577272
0.0258789,0.00439453,1.0235,-0.001,0.001,85.35,85.35,1.5246,-0.632477,0,0,0,0,0,35.94,43.9993,3577302
0.027771,0.00158691,1.01624,-0.003,0,85.35,85.35,1.5246,-0.632477,0,0,0,0,0,35.94,44.0196,3577317
0.0265503,0.00341797,1.01788,-0.002,0,85.35,85.35,1.5246,-0.632477,0,0,0,0,0,35.94,44.0394,3577332
0.0289307,0.00567627,1.01208,0,-0.001,85.35,85.35,1.5246,-0.632477,0,0,0,0,0,35.94,44.0599,3577362
0.0272217,0.0045166,1.02551,-0.001,0,85.35,85.35,1.5246,-0.632477,0,0,0,0,0,35.94,44.0793,3577377
0.0291748,0.00933838,1.01801,0.003,-0.001,85.35,85.35,1.5246,-0.632477,0,0,0,0,0,35.94,44.1001,3577392
0.0259399,0.00244141,1.01807,-0.003,0.001,85.35,85.35,1.5246,-0.632477,0,0,0,0,0,35.94,44.1192,3577422
0.0264893,0.00213623,1.01678,-0.003,0,85.35,85.35,1.5246,-0.632477,0,0,0,0,0,35.94,44.1395,3577437
0.0276489,0.00463867,1.01868,-0.001,0,85.35,85.35,1.5246,-0.632477,0,0,0,0,0,35.94,44.1594,3577452
0.0336304,0.00457764,1.01428,0,-0.006,85.35,85.35,1.5246,-0.632477,0,0,0,0,0,35.94,44.1793,3577482
0.0288086,0.0057373,1.02637,0,-0.001,85.35,85.35,1.5246,-0.632477,0,0,0,0,0,35.94,44.1991,3577497
0.0283813,0.00671387,1.0224,0.001,0,85.35,85.35,1.5246,-0.632477,0,0,0,0,0,35.94,44.2188,3577512
0.0289917,0.00610352,1.0202,0,-0.001,85.35,85.35,1.5246,-0.632477,0,0,0,0,0,35.94,44.2396,3577527
0.0259399,0.00701904,1.02338,0.001,0.001,85.35,85.35,1.5246,-0.632477,0,0,0,0,0,35.87,44.2596,3577558
0.0253906,0.00616455,1.02307,0,0.002,85.35,85.35,1.5246,-0.632477,0,0,0,0,0,35.87,44.279,3577572
0.0292969,0.00421143,1.02075,-0.001,-0.001,85.35,85.35,1.5246,-0.632477,0,0,0,0,0,35.87,44.2992,3577587
0.0229492,0.00726318,1.01575,0.001,0.004,85.35,85.35,1.5246,-0.632477,0,0,0,0,0,35.87,44.3201,3577618
0.0285034,0.00708008,1.02032,0.001,0,85.35,85.35,1.5246,-0.632477,0,0,0,0,0,35.87,44.339,3577632
0.0272827,0.00610352,1.02045,0,0,85.35,85.35,1.5246,-0.632477,0,0,0,0,0,35.87,44.3593,3577647
0.0283203,0.0090332,1.01459,0.003,0,85.35,85.35,1.5246,-0.632477,0,0,0,0,0,35.87,44.3794,3577678
0.0266724,0.00469971,1.02393,0,0,85.35,85.35,1.5246,-0.632477,0,0,0,0,0,35.87,44.4001,3577692
0.0274658,0.00311279,1.01416,-0.002,0,85.35,85.35,1.5246,-0.632477,0,0,0,0,0,35.87,44.4194,3577707
0.0263672,0.00286865,1.01801,-0.002,0,85.35,85.35,1.5246,-0.632477,0,0,0,0,0,35.87,44.4394,3577738
0.0288696,0.00622559,1.02063,0,-0.001,85.35,85.35,1.5246,-0.632477,0,0,0,0,0,35.87,44.46,3577752
0.0291138,0.0055542,1.01691,0,-0.001,85.35,85.35,1.5246,-0.632477,0,0,0,0,0,35.87,44.4796,3577782
0.0280151,0.00415039,1.01215,-0.001,0,85.35,85.35,1.5246,-0.632477,0,0,0,0,0,35.87,44.4998,3577798
0.0275879,0.00463867,1.01862,0,0,85.35,85.35,1.5246,-0.632477,0,0,0,0,0,35.87,44.519,3577812
0.0265503,0.0067749,1.01935,0.001,0,85.35,85.35,1.5246,-0.632477,0,0,0,0,0,35.87,44.5391,3577842
0.0268555,0.00653076,1.0166,0.001,0,85.35,85.35,1.5246,-0.632477,0,0,0,0,0,35.87,44.5596,3577858
0.0284424,0.00634766,1.01501,0,-0.001,85.35,85.35,1.5246,-0.632477,0,0,0,0,0,35.87,44.5783,3577872
0.0230713,0.00683594,1.01996,0,0.004,85.35,85.35,1.5246,-0.632477,0,0,0,0,0,35.87,44.6005,3577902
0.0283813,0.0067749,1.01917,0.001,0,85.35,85.35,1.5246,-0.632477,0,0,0,0,0,35.87,44.6194,3577918
0.0268555,0.00506592,1.01453,0,0,85.35,85.35,1.5246,-0.632477,0,0,0,0,0,35.87,44.6383,3577932
0.0303345,0.00628662,1.01038,0.001,-0.003,85.35,85.35,1.5246,-0.632477,0,0,0,0,0,35.87,44.6588,3577962
0.0300293,0.00421143,1.02179,-0.001,-0.002,85.35,85.35,1.5246,-0.632477,0,0,0,0,0,35.87,44.6787,3577978
0.0287476,0.00378418,1.01691,-0.001,-0.001,85.35,85.35,1.5246,-0.632477,0,0,0,0,0,35.87,44.6987,3577992
0.02948,0.00915527,1.0191,0.003,-0.001,85.35,85.35,1.5246,-0.632477,0,0,0,0,0,35.87,44.7188,3578007
0.0279541,0.00610352,1.01715,0,0,85.35,85.35,1.5246,-0.632477,0,0,0,0,0,35.87,44.7392,3578038
0.0289307,0.0043335,1.01697,-0.001,-0.001,85.35,85.35,1.5246,-0.632477,0,0,0,0,0,35.86,44.7598,3578052
0.0250244,0.00415039,1.01697,-0.001,0.002,85.35,85.35,1.5246,-0.632477,0,0,0,0,0,35.86,44.7785,3578067
0.0271606,0.00390625,1.02386,-0.001,0,85.35,85.35,1.5246,-0.632477,0,0,0,0,0,35.86,44.7991,3578098
0.0321655,0.0045166,1.01556,0,-0.005,85.35,85.35,1.5246,-0.632477,0,0,0,0,0,35.86,44.8184,3578112
0.0308228,0.00378418,1.01697,-0.001,-0.003,85.35,85.35,1.5246,-0.632477,0,0,0,0,0,35.86,44.8387,3578142
0.0270386,0.00488281,1.01892,0,0,85.35,85.35,1.5246,-0.632477,0,0,0,0,0,35.86,44.8583,3578158
0.0281372,0.00543213,1.02295,0,0,85.35,85.35,1.5246,-0.632477,0,0,0,0,0,35.86,44.8787,3578172
0.029541,0.00244141,1.02173,-0.002,-0.002,85.35,85.35,1.5246,-0.632477,0,0,0,0,0,35.86,44.8995,3578203
0.0270386,0.00268555,1.01886,-0.002,0,85.35,85.35,1.5246,-0.632477,0,0,0,0,0,35.86,44.9191,3578218
0.0303955,0.00408936,1.01648,-0.001,-0.003,85.35,85.35,1.5246,-0.632477,0,0,0,0,0,35.86,44.9387,3578233
0.0310059,0.00531006,1.01813,0,-0.003,85.35,85.35,1.5246,-0.632477,0,0,0,0,0,35.86,44.9601,3578248
0.0285645,0.00549316,1.01642,0,-0.001,85.35,85.35,1.5246,-0.632477,0,0,0,0,0,35.86,44.9795,3578278
0.0274048,0.00549316,1.01917,0,0,85.35,85.35,1.5246,-0.632477,0,0,0,0,0,35.86,44.9998,3578293
0.0278931,0.00622559,1.02039,0,0,85.35,85.35,1.5246,-0.632477,0,0,0,0,0,35.86,45.021,3578323
0.0241089,0.00598145,1.02393,0,0.003,85.35,85.35,1.5246,-0.632477,0,0,0,0,0,35.86,45.0389,3578338
0.0283203,0.00610352,1.01959,0,0,85.35,85.35,1.5246,-0.632477,0,0,0,0,0,35.86,45.0596,3578353
0.0273438,0.00445557,1.02106,-0.001,0,85.35,85.35,1.5246,-0.632477,0,0,0,0,0,35.86,45.0799,3578368
0.0255737,0.00695801,1.02045,0.001,0.002,85.35,85.35,1.5246,-0.632477,0,0,0,0,0,35.86,45.0994,3578398
0.0290527,0.0045166,1.01984,0,-0.001,85.35,85.35,1.5246,-0.632477,0,0,0,0,0,35.86,45.1187,3578413
0.0282593,0.00427246,1.01721,-0.001,0,85.35,85.35,1.5246,-0.632477,0,0,0,0,0,35.86,45.1387,3578428
0.0276489,0.00445557,1.02014,0,0,85.35,85.35,1.5246,-0.632477,0,0,0,0,0,35.86,45.1594,3578458
0.0266724,0.00543213,1.02179,0,0,85.35,85.35,1.5246,-0.632477,0,0,0,0,0,35.86,45.1789,3578473
0.0267944,0.0043335,1.01233,-0.001,0,85.35,85.35,1.5246,-0.632477,0,0,0,0,0,35.86,45.1998,3578503
0.0305176,0.00732422,1.02411,0.002,-0.002,85.35,85.35,1.5246,-0.632477,0,0,0,0.0992366,0,35.86,45.2197,3578518
0.0298462,0.00683594,1.01532,0.001,-0.002,85.35,85.35,1.5246,-0.632477,0,0,0,0.0992366,0,35.86,45.2393,3578533
0.377686,-0.361206,1.16895,-0.337,-0.374,85.33,85.33,1.52437,-0.632736,0,0,-456.236,0.0992366,0,35.83,45.26,3578563
0.393005,-0.401917,1.09113,-0.369,-0.392,85.21,85.21,1.52365,-0.633514,0,46.8367,-494.694,0.0992366,0,35.83,45.2791,3578578
0.038269,-0.483704,0.956665,-0.474,-0.047,85.05,85.05,1.52237,-0.634598,0,104.442,-380.786,0.0992366,0,35.83,45.299,3578593
0.261841,-0.696106,1.1767,-0.659,-0.279,84.83,84.83,1.52031,-0.635895,0,79.5782,-530.659,0.0992366,0,35.83,45.3191,3578608
0.144958,-0.160522,1.03137,-0.127,-0.116,84.3,84.3,1.51462,-0.639679,0,152.429,-630.597,0.0992366,0,35.83,45.3394,3578638
0.254333,-0.268127,1.09448,-0.219,-0.231,83.97,83.97,1.5114,-0.641968,0,219.761,-585.652,0.0992366,0,35.83,45.359,3578653
0.081604,-0.265625,1.02228,-0.23,-0.061,83.17,83.17,1.50421,-0.647141,0,233.694,-585.686,0.0992366,0,35.83,45.3799,3578683
0.126709,-0.239441,0.750244,-0.202,-0.117,82.73,82.73,1.50018,-0.649918,0,234.362,-795.039,0.0992366,0,35.83,45.3993,3578698
0.078064,-0.181091,0.928528,-0.143,-0.051,82.25,82.25,1.49594,-0.652802,0,261.25,-755.886,0.0992366,0,35.83,45.4202,3578713
0.206787,-0.182434,0.744446,-0.126,-0.189,81.28,81.28,1.48711,-0.658905,0,324.086,-768.876,0.0992366,0,35.83,45.4388,3578743
0.0887451,-0.148438,1.15961,-0.096,-0.047,80.78,80.78,1.4825,-0.662216,0,282.434,-877.116,0.0992366,0,35.83,45.4625,3578758
0.0309448,-0.0736084,1.27368,-0.026,0.028,79.71,79.71,1.47296,-0.669113,0,317.914,-936.154,0.0992366,0,35.83,45.4987,3578788
0.219177,-0.136963,0.914734,-0.056,-0.187,77.35,77.35,1.45299,-0.683594,0,409.509,-696.403,0.0992366,0,35.83,45.5554,3578848
0.227234,-0.130676,1.01691,-0.04,-0.186,76.13,76.13,1.44258,-0.691498,0,406.595,-868.508,0.0992366,0,35.83,45.5805,3578878
0.041687,-0.123413,1.18457,-0.072,0.006,75.52,75.52,1.43727,-0.695648,0,392.626,-959.233,0.0992366,0,35.83,45.601,3578893
0.0622559,-0.0206299,1.05426,0.029,0.002,74.91,74.91,1.43195,-0.699799,0,388.304,-1041.99,0.0992366,0,35.83,45.6193,3578908
0.186401,-0.0325317,1.05231,0.053,-0.117,73.71,73.71,1.42133,-0.708099,0,371.837,-1111.05,0.0992366,0,35.83,45.6396,3578938
0.0350342,-0.0984497,1.03815,-0.052,0.008,73.1,73.1,1.41602,-0.712372,0,386.138,-1131.29,0.0992366,0,35.83,45.6583,3578953
0.0635986,0.0178223,0.981201,0.065,0.011,71.86,71.86,1.40541,-0.721054,0,408.097,-987.216,0.0992366,0,35.83,45.6796,3578983
0.180115,-0.0491333,1.0025,0.04,-0.118,71.24,71.24,1.40019,-0.72551,0,400.769,-1058.2,0.0992366,0,35.83,45.6995,3578998
0.178589,0.0324097,1.2384,0.124,-0.073,70.61,70.61,1.3951,-0.730087,0,426.548,-1174.67,0.0992366,0,35.83,45.7188,3579013
0.0088501,-0.101318,0.95752,-0.065,0.022,69.98,69.98,1.39005,-0.734695,0,386.772,-1138.04,0.0992366,0,35.83,45.7387,3579028
0.170044,0.0947876,0.766724,0.17,-0.072,68.76,68.76,1.38007,-0.7435,0,497.5,-925.369,0.0992366,0,35.83,45.7586,3579058
0.16626,-0.133362,0.717163,-0.043,-0.153,68.14,68.14,1.37524,-0.748001,0,429.719,-928.721,0.0992366,0,35.77,45.7786,3579073
0.170715,-0.00378418,0.580994,0.077,-0.119,66.92,66.92,1.36583,-0.756943,0,477.042,-982.898,0.0992366,0,35.77,45.7989,3579103
0.0148315,0.14447,1.07703,0.163,0.115,66.32,66.32,1.36136,-0.761383,0,467.858,-1062.98,0.0992366,0,35.77,45.8185,3579118
0.128662,-0.0371094,0.978882,0.04,-0.066,65.72,65.72,1.35703,-0.765793,0,429.221,-1162.66,0.0992366,0,35.77,45.8389,3579133
0.137207,0.064209,1.27191,0.143,-0.011,64.51,64.51,1.34851,-0.775528,0,446.12,-946.208,0.0992366,0,35.77,45.8602,3579163
0.0602417,-0.00500488,0.910339,0.039,0.003,63.91,63.91,1.34444,-0.780533,0,441.911,-1036.91,0.0992366,0,35.77,45.8787,3579178
0.0673218,0.055603,0.780945,0.093,0.016,63.32,63.32,1.34044,-0.780533,0,450.207,-1138.56,0.0992366,0,35.77,45.8989,3579193
0.196655,-0.136169,0.85376,-0.017,-0.179,62.72,62.72,1.3365,-0.78064,0,494.78,-1168.09,0.0992366,0,35.77,45.9192,3579208
0.108704,-0.0155029,1.07098,0.054,-0.032,61.46,61.46,1.32872,-0.781052,0,499.6,-1032.9,0.0992366,0,35.77,45.9393,3579238
0.0942383,-0.022644,0.72998,0.035,-0.044,60.83,60.83,1.32494,-0.781311,0,455.363,-1247.58,0.0992366,0,35.77,45.9593,3579253
0.14386,0.128296,1.12207,0.195,0.012,60.22,60.22,1.32129,-0.781586,0,477.726,-1337.52,0.0992366,0,35.77,45.9794,3579268
0.151855,-0.00286865,0.738281,0.084,-0.082,58.96,58.96,1.31451,-0.782089,0,506.06,-1052.3,0.0992366,0,35.77,45.9988,3579299
0.279297,0.0780029,1.0387,0.222,-0.126,58.33,58.33,1.31139,-0.782501,0,506.022,-1055.41,0.0992366,0,35.77,46.0189,3579313
-0.0205078,0.00872803,1.13092,0.004,0.095,57.7,57.7,1.30841,-0.782944,0,531.816,-731.154,0.0992366,0,35.77,46.0387,3579328
0.015625,0.113647,1.07648,0.11,0.119,56.45,56.45,1.30275,-0.783661,0,544.055,-1258.73,0.0992366,0,35.77,46.059,3579359
0.319946,0.0808716,0.706726,0.25,-0.171,55.8,55.8,1.30023,-0.784027,0,538.416,-1059.6,0.0992366,0,35.77,46.0789,3579373
-0.160217,0.041748,1.12256,-0.053,0.229,55.16,55.16,1.29785,-0.784348,0,503.981,-1265.9,0.0992366,0,35.77,46.0992,3579388
0.0154419,0.0437012,1.10046,0.047,0.084,53.9,53.9,1.29314,-0.784622,0,461.063,-970.309,0.0992366,0,35.77,46.1191,3579419
0.137207,0.0250854,0.386902,0.102,-0.068,53.26,53.26,1.29092,-0.784729,0,559.769,-1092.96,0.0992366,0,35.77,46.1386,3579433
-0.152344,0.0873413,1.43878,-0.024,0.266,52.62,52.62,1.28876,-0.784683,0,486.677,-1130.26,0.0992366,0,35.77,46.1594,3579448
0.128113,0.205688,0.699219,0.239,0.074,51.32,51.32,1.28487,-0.784027,0,526.898,-1171.65,0.0992366,0,35.77,46.1791,3579479
0.134155,0.0280762,1.16339,0.1,-0.009,50.68,50.68,1.28329,-0.783585,0,472.556,-985.804,0.0992366,0,35.77,46.199,3579493
-0.0405884,0.0441284,0.799988,0.001,0.11,49.43,49.43,1.28033,-0.782593,0,522.616,-1081.08,0.0992366,0,35.77,46.2194,3579523
0.121948,0.145874,0.98645,0.182,0.067,48.81,48.81,1.27898,-0.781937,0,546.165,-1246.57,0.0992366,0,35.77,46.2403,3579539
-0.0561523,0.103577,1.24603,0.028,0.19,48.19,48.19,1.27777,-0.781082,0,481.916,-1044.55,0.0992366,0,35.77,46.2587,3579553
0.309082,-0.0488281,0.593689,0.165,-0.222,47.55,47.55,1.2767,-0.780273,0,519.467,-1203.51,0.0992366,0,35.77,46.2791,3579568
0.283813,-0.22406,0.690063,0.025,-0.317,46.29,46.29,1.2746,-0.778687,0,552.593,-1239.54,0.0992366,0,35.8,46.2989,3579599
0.027832,0.052002,0.834656,0.045,0.068,45.65,45.65,1.27357,-0.778091,0,483.395,-1034.18,0.0992366,0,35.8,46.3206,3579613
0.0594482,-0.0687866,0.974854,-0.021,-0.031,44.39,44.39,1.27167,-0.776566,0,515.916,-1290.74,0.0992366,0,35.8,46.3423,3579643
0.176208,0.0287476,0.824097,0.134,-0.048,43.15,43.15,1.26997,-0.774765,0,518.847,-1170.14,0.0992366,0,35.8,46.3697,3579673
0.176208,0.0287476,0.824097,0.134,-0.048,43.15,43.15,1.26997,-0.774765,0,541.345,-981.691,0.0992366,0,35.8,46.3789,3579673
-0.0270386,0.114075,1.18774,0.035,0.174,42.52,42.52,1.2693,-0.773743,0,478.709,-1190.41,0.0992366,0,35.8,46.3992,3579688
0.162292,0.172974,1.177,0.213,0.093,41.28,41.28,1.26805,-0.771545,0,577.134,-1313.28,0.0992366,0,35.8,46.4184,3579719
0.109436,0.0793457,0.656982,0.12,0.029,40.65,40.65,1.26772,-0.770355,0,518.202,-1169.52,0.0992366,0,35.8,46.4386,3579733
0.176514,0.120056,1.08777,0.187,0.044,40.01,40.01,1.26759,-0.769119,0,447.648,-1264.54,0.0992366,0,35.8,46.4591,3579748
-0.0725098,0.108093,0.994873,-0.012,0.187,38.73,38.73,1.26732,-0.766205,0,413.779,-1141.03,0.0992366,0,35.8,46.4791,3579779
0.14801,-0.0866089,0.600342,0.047,-0.122,38.1,38.1,1.26715,-0.764587,0,463.199,-974.469,0.0992366,0,35.8,46.4997,3579793
-0.138184,0.103394,1.29651,-0.08,0.243,37.45,37.45,1.26697,-0.762894,0,461.053,-1134.37,0.0992366,0,35.8,46.5183,3579808
0.14209,0.125,1.08453,0.159,0.079,36.2,36.2,1.26663,-0.758682,0,451.824,-1082.43,0.0992366,0,35.8,46.5392,3579839
0.211426,0.0471191,1.1806,0.164,-0.014,34.98,34.98,1.26678,-0.753922,0,438.673,-1155.47,0.0992366,0,35.8,46.5738,3579868
-0.115906,0.134888,1.53143,-0.07,0.262,33.72,33.72,1.26741,-0.748978,0,470.168,-1006.34,0.0992366,0,35.8,46.5992,3579899
0.463135,0.111755,0.355225,0.436,-0.137,33.1,33.1,1.26797,-0.746323,0,422.94,-1088.2,0.0992366,0,35.8,46.619,3579913
-0.129028,0.0141602,1.37775,-0.151,0.159,32.47,32.47,1.26874,-0.743668,0,472.378,-1218.69,0.0992366,0,35.8,46.6393,3579929
0.038269,-0.00439453,1.245,-0.015,0.046,31.2,31.2,1.27019,-0.738113,0,478.732,-1208.61,0.0992366,0,35.8,46.6594,3579959
0.203674,-0.0777588,0.907471,0.102,-0.119,30.58,30.58,1.27098,-0.735382,0,464.781,-1202.43,0.0992366,0,35.8,46.6792,3579974
0.162598,0.0374756,1.20258,0.113,0.02,29.34,29.34,1.27295,-0.730042,0,493.243,-980.536,0.0992366,0,35.8,46.7035,3580004
0.220581,0.092041,1.03082,0.196,0.032,28.7,28.7,1.27422,-0.727325,0,479.409,-1026.27,0.0992366,0,35.8,46.7191,3580019
0.107422,-0.103333,0.938049,0.007,-0.09,28.07,28.07,1.2756,-0.72464,0,475.919,-1148.44,0.0992366,0,35.8,46.7399,3580034
0.0805054,-0.0452271,0.552917,0.027,-0.046,26.83,26.83,1.27847,-0.719299,0,462.888,-1111.73,0.0992366,0,35.8,46.7632,3580064
0.0600586,0.108582,1.64648,0.03,0.16,26.2,26.2,1.27995,-0.716537,0,483.699,-897.989,0.0992366,0,35.8,46.7793,3580079
0.0273438,-0.0383911,0.725342,-0.023,-0.007,25.56,25.56,1.28145,-0.713669,0,450.288,-1002.51,0.0992366,0,35.74,46.7994,3580094
0.158081,-0.173401,0.600952,0.045,-0.191,24.35,24.35,1.28445,-0.70787,0,413.573,-1014.56,0.0992366,0,35.74,46.8243,3580124
-0.117493,0.041626,1.23212,-0.145,0.149,23.75,23.75,1.2859,-0.705017,0,505.421,-1082.02,0.0992366,0,35.74,46.8439,3580139
0.140381,0.113892,0.957581,0.131,0.098,23.16,23.16,1.28734,-0.701996,0,487.341,-1130.9,0.0992366,0,35.74,46.8608,3580154
0.081665,0.132324,0.943726,0.08,0.139,21.98,21.98,1.2905,-0.695496,0,466.755,-1222.72,0.0992366,0,35.74,46.8793,3580184
-0.0164795,-0.0305786,1.07574,-0.078,0.03,21.4,21.4,1.29211,-0.692047,0,457.164,-1208.17,0.0992366,0,35.74,46.899,3580199
0.0414429,0.204651,1.14307,0.059,0.231,20.82,20.82,1.2937,-0.688416,0,531.844,-1013.99,0.0992366,0,35.74,46.9187,3580214
0.0748901,0.0727539,0.714478,0.06,0.076,20.25,20.25,1.29539,-0.68457,0,419.164,-1013.68,0.0992366,0,35.74,46.9391,3580229
0.114746,0.052002,1.03534,0.076,0.058,19.11,19.11,1.299,-0.676682,0,477.829,-1134.43,0.0992366,0,35.74,46.9584,3580259
0.0588989,0.0680542,1.14789,0.022,0.097,18.55,18.55,1.30092,-0.672607,0,473.362,-1245.87,0.0992366,0,35.74,46.9784,3580274
0.197815,-0.0187988,0.644653,0.151,-0.05,17.99,17.99,1.30295,-0.668488,0,504.121,-849.87,0.0992366,0,35.74,46.9985,3580289
0.13855,-0.106384,0.8526,0.057,-0.105,16.88,16.88,1.30733,-0.660126,0,431.472,-1206.13,0.0992366,0,35.74,47.0184,3580319
0.17981,0.138306,1.22125,0.149,0.132,16.31,16.31,1.30969,-0.65593,0,478.423,-1225.87,0.0992366,0,35.74,47.0383,3580334
0.0689087,0.109375,1.32361,0.028,0.139,15.72,15.72,1.31218,-0.651535,0,488.103,-1087.43,0.0992366,0,35.74,47.0581,3580349
0.0266113,0.0377197,1.10089,-0.022,0.071,14.56,14.56,1.31723,-0.642502,0,454.194,-1263.82,0.0992366,0,35.74,47.0785,3580379
0.193726,-0.0328369,1.25763,0.114,-0.031,13.98,13.98,1.31982,-0.637924,0,499.164,-1165.3,0.0992366,0,35.74,47.0988,3580394
0.135193,0.0924072,0.984436,0.098,0.096,12.83,12.83,1.32524,-0.628922,0,398.208,-1015.95,0.0992366,0,35.74,47.1203,3580424
0.0217285,0.0963135,1.39948,-0.033,0.138,12.24,12.24,1.32802,-0.624237,0,480.931,-1149.62,0.0992366,0,35.74,47.1398,3580439
0.168701,0.0134888,0.810242,0.123,0.007,11.68,11.68,1.33086,-0.619461,0,449.176,-1261.83,0.0992366,0,35.74,47.161,3580454
0.107239,-0.0814819,1.10681,0.028,-0.062,11.1,11.1,1.3338,-0.614731,0,430.394,-1042.54,0.0992366,0,35.74,47.1811,3580469
0.129272,-0.0899658,0.757019,0.068,-0.085,9.89,9.89,1.33994,-0.605515,0,502.993,-1153.6,0.0992366,0,35.74,47.1997,3580499
-0.0275269,0.0488892,1.48553,-0.104,0.1,9.28,9.28,1.34302,-0.600952,0,507.112,-1096.61,0.0992366,0,35.74,47.2195,3580514
0.223145,0.0286865,0.907715,0.171,0.025,8.06,8.06,1.34927,-0.591675,0,464.447,-1350.35,0.0992366,0,35.74,47.2393,3580544
0.0247192,-0.0840454,1.14014,-0.053,-0.052,7.45,7.45,1.35255,-0.587036,0,493.523,-1024.33,0.0992366,0,35.74,47.2596,3580559
0.108887,-0.071106,0.77887,0.053,-0.06,6.84,6.84,1.35583,-0.582474,0,444.316,-1104,0.0992366,0,35.74,47.2792,3580574
0.173279,0.134216,0.975037,0.125,0.144,5.61,5.61,1.36215,-0.57312,0,461.521,-1093.55,0.0992366,0,35.79,47.2998,3580604
0.0153198,-0.0405273,1.17151,-0.061,-0.01,4.99,4.99,1.36534,-0.568268,0,408.873,-1065.13,0.0992366,0,35.79,47.3196,3580619
0.108276,0.0383911,0.777405,0.061,0.051,3.74,3.74,1.37141,-0.558472,0,390.328,-1199.18,0.0992366,0,35.79,47.35,3580649
0.108276,0.0383911,0.777405,0.061,0.051,3.74,3.74,1.37141,-0.558472,0,426.285,-1252.03,0.0992366,0,35.79,47.3597,3580649
