raw_accel_x,raw_accel_y,raw_accel_z,raw_gyro_x,raw_gyro_y,raw_gyro_z,world_accel_x,world_accel_y,yaw,x,y,z,left_encoder_rate,right_encoder_rate,left_motor,right_motor,temp,fpga time,navx time
-0.00408936,-0.00750732,1.01587,-0.12207,-0.0610352,0.0610352,0.002,0.002,-88.61,-0.0787506,0.126526,0,0,0,0,0,40.74,986.008,2217609
-0.00518799,-0.00598145,1.01849,0,0,0.12207,0.001,0.001,-88.61,-0.0787506,0.126526,0,0,0,0,0,40.74,986.015,2217624
-0.00524902,-0.00219727,1.01282,0,0.0610352,0.12207,0.001,0.002,0,0,0,0,0,0,0,0,40.74,986.033,2217639
-0.00732422,-0.00506592,1.01465,-0.12207,0.0610352,0.183105,0,0,0,0,0,0,0,0,0,0,40.74,986.053,2217654
-0.00744629,-0.00469971,1.01251,0,0,0.0610352,0,0,0,0,0,0,0,0,0,0,40.74,986.072,2217669
-0.0109253,-0.00561523,1.0083,-0.0610352,-0.0610352,0.0610352,-0.004,-0.001,-0.01,0,0,0,0,0,0,0,40.74,986.092,2217699
-0.0110474,-0.00372314,1.01483,0,0,0,-0.004,0,-0.01,0,0,0,0,0,0,0,40.74,986.113,2217714
-0.00756836,-0.00823975,1.01514,-0.12207,-0.305176,-0.12207,0,-0.003,0,0,0,0,0,0,0,0,40.74,986.132,2217744
-0.00634766,-0.00653076,1.01416,-0.12207,-0.244141,-0.0610352,0,-0.001,0,0,0,0,0,0,0,0,40.74,986.152,2217759
-0.00299072,-0.00531006,1.00977,-0.0610352,-0.183105,-0.12207,0.003,0,0,0,0,0,0,0,0,0,40.74,986.172,2217774
-0.00299072,-0.00701904,1.02063,0,-0.0610352,0,0.003,-0.002,0,0,0,0,0,0,0,0,40.74,986.193,2217805
-0.00762939,-0.00158691,1.01532,0,0,-0.0610352,0,0.003,0,0,0,0,0,0,0,0,40.74,986.212,2217819
-0.00622559,-0.00610352,1.01385,0,0,0,0,-0.001,0,0,0,0,0,0,0,0,40.74,986.232,2217834
-0.0109253,-0.00402832,1.00995,-0.0610352,-0.0610352,-0.12207,-0.004,0,0,0,0,0,0,0,0,0,40.74,986.252,2217865
-0.00939941,-0.00286865,1.01416,0,0.0610352,-0.0610352,-0.002,0.001,0,0,0,0,0,0,0,0,40.74,986.272,2217879
-0.00823975,-0.0012207,1.01709,-0.0610352,-0.244141,-0.244141,-0.001,0.003,0,0,0,0,0,0,0,0,40.74,986.293,2217894
-0.00732422,-0.00469971,1.01422,-0.12207,-0.0610352,-0.183105,0,0,0,0,0,0,0,0,0,0,40.74,986.312,2217925
-0.00488281,-0.00213623,1.01221,0,-0.183105,-0.244141,0.001,0.002,0,0,0,0,0,0,0,0,40.74,986.333,2217939
-0.00390625,-0.0065918,1.01428,-0.0610352,0.0610352,-0.244141,0.002,-0.002,0,0,0,0,0,0,0,0,40.74,986.353,2217954
-0.00823975,-0.00354004,1.01501,0,0,-0.12207,-0.001,0,0,0,0,0,0,0,0,0,40.74,986.373,2217985
-0.00482178,-0.00396729,1.01251,0,0.0610352,0,0.001,0,0,0,0,0,0,0,0,0,40.76,986.393,2217999
-0.00762939,-0.00164795,1.01312,0,0,0.0610352,0,0.002,0,0,0,0,0,0,0,0,40.76,986.413,2218014
-0.0106812,-0.00463867,1.01459,0,0.12207,-0.0610352,-0.003,0,0,0,0,0,0,0,0,0,40.76,986.432,2218045
-0.0109253,-0.00482178,1.01184,0,0,-0.12207,-0.004,0,0,0,0,0,0,0,0,0,40.76,986.453,2218059
-0.00653076,-0.00482178,1.01422,-0.12207,-0.183105,-0.0610352,0,0,0,0,0,0,0,0,0,0,40.76,986.472,2218074
-0.00701904,-0.00695801,1.01422,-0.0610352,-0.0610352,-0.12207,0,-0.002,0,0,0,0,0,0,0,0,40.76,986.494,2218105
-0.00421143,-0.00543213,1.01202,-0.0610352,-0.12207,-0.0610352,0.002,0,0,0,0,0,0,0,0,0,40.76,986.512,2218119
-0.00549316,-0.00622559,1.01715,0.0610352,0,-0.12207,0.001,-0.001,0,0,0,0,0,0,0,0,40.76,986.533,2218134
-0.00878906,-0.00506592,1.01123,0.12207,0.12207,-0.0610352,-0.002,0,0,0,0,0,0,0,0,0,40.76,986.552,2218149
-0.00701904,0.000183105,1.01276,-0.0610352,-0.0610352,0.0610352,0,0.004,0,0,0,0,0,0,0,0,40.76,986.583,2218194
-0.00701904,0.000183105,1.01276,-0.0610352,-0.0610352,0.0610352,0,0.004,0,0,0,0,0,0,0,0,40.76,986.594,2218194
-0.00860596,-0.00274658,1.01825,0.0610352,-0.183105,-0.183105,-0.001,0.001,0,0,0,0,0,0,0,0,40.76,986.613,2218225
-0.00378418,-0.00384521,1.01874,-0.244141,-0.183105,-0.183105,0.003,0,0,0,0,0,0,0,0,0,40.76,986.633,2218239
-0.0057373,-0.00604248,1.01538,-0.0610352,-0.12207,-0.0610352,0,-0.001,0,0,0,0,0,0,0,0,40.76,986.653,2218255
-0.00140381,-0.00439453,1.01184,0,0,-0.12207,0.005,0,0,0,0,0,0,0,0,0,40.76,986.681,2218285
-0.00604248,-0.00610352,1.0166,0,-0.0610352,0.12207,0,-0.001,0,0,0,0,0,0,0,0,40.76,986.693,2218299
-0.00738525,-0.0032959,1.01526,0.12207,0.183105,0.244141,0,0.001,0,0,0,0,0,0,0,0,40.76,986.713,2218315
-0.00952148,-0.00506592,1.0141,0,0,0.0610352,-0.002,0,0,0,0,0,0,0,0,0,40.76,986.733,2218345
-0.0133667,-0.00567627,1.01892,-0.0610352,-0.12207,-0.0610352,-0.006,-0.001,0,0,0,0,0,0,0,0,40.76,986.753,2218360
-0.00714111,-0.00286865,1.01654,-0.183105,-0.244141,-0.244141,0,0.001,0,0,0,0,0,0,0,0,40.76,986.791,2218405
-0.00384521,-0.00360107,1.0155,-0.12207,-0.244141,-0.183105,0.002,0,0,0,0,0,0,0,0,0,40.76,986.815,2218420
-0.00335693,-0.00579834,1.01855,-0.0610352,-0.0610352,-0.12207,0.003,-0.001,0,0,0,0,0,0,0,0,40.76,986.835,2218435
-0.0032959,-0.00354004,1.01453,0.12207,-0.0610352,-0.12207,0.003,0,0,0,0,0,0,0,0,0,40.76,986.853,2218465
-0.00714111,-0.00482178,1.0177,0.0610352,0.0610352,0.0610352,0,0,0,0,0,0,0,0,0,0,40.76,986.873,2218480
-0.00378418,-0.00579834,1.0163,0.0610352,0,0,0.002,-0.001,0,0,0,0,0,0,0,0,40.76,986.893,2218495
-0.00921631,-0.00378418,1.01324,-0.12207,-0.0610352,-0.0610352,-0.002,0,0,0,0,0,0,0,0,0,40.74,986.913,2218510
-0.00634766,-0.00421143,1.0155,0,0,-0.12207,0,0,0,0,0,0,0,0,0,0,40.74,986.933,2218540
-0.00933838,-0.00177002,1.01465,-0.183105,-0.0610352,-0.0610352,-0.002,0.002,0,0,0,0,0,0,0,0,40.74,986.953,2218555
-0.00482178,-0.00396729,1.01428,-0.183105,-0.12207,-0.0610352,0.001,0,0,0,0,0,0,0,0,0,40.74,986.973,2218570
-0.00549316,-0.00549316,1.01166,-0.0610352,-0.12207,0.12207,0.001,-0.001,0,0,0,0,0,0,0,0,40.74,986.993,2218600
-0.00415039,-0.00793457,1.01807,0,0.0610352,0.12207,0.002,-0.003,0,0,0,0,0,0,0,0,40.74,987.013,2218615
-0.00604248,-0.00323486,1.01367,0,0.0610352,0.12207,0,0.001,0,0,0,0,0,0,0,0,40.74,987.033,2218645
-0.0106812,-0.0022583,1.0127,0.12207,0,-0.12207,-0.003,0.002,0,0,0,0,0,0,0,0,40.74,987.053,2218660
-0.0102539,-0.00585938,1.01385,0.12207,-0.0610352,-0.12207,-0.003,-0.001,0,0,0,0,0,0,0,0,40.74,987.072,2218675
-0.00775146,-0.00579834,1.01508,-0.0610352,-0.244141,-0.0610352,0,-0.001,0,0,0,0,0,0,0,0,40.74,987.095,2218705
-0.0088501,-0.0012207,1.01404,-0.0610352,-0.0610352,-0.12207,-0.002,0.003,0,0,0,0,0,0,0,0,40.74,987.112,2218720
-0.00634766,-0.00482178,1.01404,-0.183105,-0.244141,-0.244141,0,0,0,0,0,0,0,0,0,0,40.74,987.141,2218750
-0.00231934,-0.00494385,1.01135,0,-0.183105,-0.183105,0.004,0,0.01,0,0,0,0,0,0,0,40.74,987.154,2218765
-0.00390625,-0.00488281,1.01666,-0.0610352,-0.12207,-0.12207,0.002,0,0.01,0,0,0,0,0,0,0,40.74,987.172,2218780
-0.00793457,-0.00158691,1.01642,-0.0610352,-0.0610352,-0.12207,-0.001,0.002,0.01,0,0,0,0,0,0,0,40.74,987.193,2218795
-0.00628662,-0.00628662,1.01392,0.0610352,0,0,0,-0.001,0.01,0,0,0,0,0,0,0,40.74,987.212,2218810
-0.00549316,0.000732422,1.01526,0,0.12207,0,0.001,0.005,0.01,0,0,0,0,0,0,0,40.74,987.232,2218840
-0.00756836,-0.00164795,1.01837,-0.0610352,0,0,0,0.002,0.01,0,0,0,0,0,0,0,40.74,987.253,2218855
-0.00592041,-0.00408936,1.0119,-0.0610352,-0.0610352,-0.12207,0,0,0.01,0,0,0,0,0,0,0,40.74,987.276,2218885
-0.00616455,-0.0032959,1.013,-0.183105,-0.0610352,-0.0610352,0,0.001,0.01,0,0,0,0,0,0,0,40.74,987.292,2218900
-0.00634766,-0.00561523,1.01086,0,-0.0610352,0,0,-0.001,0.01,0,0,0,0,0,0,0,40.74,987.343,2218945
-0.00671387,-0.00524902,1.01599,0,0,-0.0610352,0,0,0.01,0,0,0,0,0,0,0,40.74,987.354,2218960
-0.00689697,-0.00646973,1.01337,0,0,0.0610352,0,-0.001,0.01,0,0,0,0,0,0,0,40.74,987.373,2218975
-0.00769043,-0.0010376,1.01581,0,0,0,0,0.003,0.01,0,0,0,0,0,0,0,40.74,987.395,2219005
-0.00970459,-0.00292969,1.01709,-0.0610352,-0.0610352,0,-0.002,0.001,0.01,0,0,0,0,0,0,0,40.72,987.413,2219020
-0.00524902,-0.00189209,1.01459,0,0,-0.12207,0.001,0.002,0.01,0,0,0,0,0,0,0,40.72,987.432,2219035
-0.00439453,-0.000366211,1.01215,-0.12207,-0.12207,0,0.002,0.003,0.01,0,0,0,0,0,0,0,40.72,987.452,2219050
-0.00695801,-0.00219727,1.01929,-0.0610352,-0.0610352,-0.0610352,0,0.002,0.01,0,0,0,0,0,0,0,40.72,987.472,2219080
-0.00231934,-0.00445557,1.0144,-0.0610352,0,-0.0610352,0.004,0,0.01,0,0,0,0,0,0,0,40.72,987.498,2219110
-0.00744629,-0.00543213,1.00909,-0.0610352,-0.0610352,0.0610352,0,-0.001,0.01,0,0,0,0,0,0,0,40.72,987.513,2219125
-0.00714111,-0.00476074,1.01318,0,-0.0610352,0.0610352,0,0,0,0,0,0,0,0,0,0,40.72,987.532,2219140
-0.00744629,-0.00152588,1.01373,-0.12207,-0.12207,0,0,0.002,0,0,0,0,0,0,0,0,40.72,987.553,2219155
-0.0067749,-0.00372314,1.01483,-0.183105,-0.0610352,-0.0610352,0,0,0,0,0,0,0,0,0,0,40.72,987.572,2219170
-0.0114136,-0.00360107,1.0127,0,-0.12207,-0.12207,-0.004,0,0,0,0,0,0,0,0,0,40.72,987.595,2219200
-0.00793457,-0.00543213,1.01581,-0.0610352,-0.12207,-0.12207,0,0,0,0,0,0,0,0,0,0,40.72,987.613,2219215
-0.00476074,-0.00561523,1.01178,-0.0610352,-0.183105,-0.183105,0.002,-0.001,0.01,0,0,0,0,0,0,0,40.72,987.635,2219246
-0.00439453,-0.00524902,1.01263,-0.0610352,-0.0610352,-0.0610352,0.002,0,0.01,0,0,0,0,0,0,0,40.72,987.653,2219260
-0.00744629,-0.00134277,1.01538,-0.12207,-0.0610352,-0.12207,0,0.003,0.01,0,0,0,0,0,0,0,40.72,987.673,2219275
-0.00323486,-0.0055542,1.01343,-0.0610352,-0.0610352,0.0610352,0.003,-0.001,0.01,0,0,0,0,0,0,0,40.72,987.693,2219290
-0.0057373,-0.00323486,1.01794,0,0.12207,0.0610352,0.001,0.001,0.01,0,0,0,0,0,0,0,40.72,987.713,2219320
-0.00842285,-0.00390625,1.01324,-0.0610352,-0.0610352,0,-0.001,0,0.01,0,0,0,0,0,0,0,40.72,987.733,2219335
-0.00799561,-0.00463867,1.01105,-0.12207,-0.0610352,-0.183105,-0.001,0,0.01,0,0,0,0,0,0,0,40.72,987.752,2219350
-0.0090332,-0.0043335,1.01935,-0.0610352,-0.12207,-0.0610352,-0.002,0,0.01,0,0,0,0,0,0,0,40.72,987.773,2219380
-0.00860596,-0.00738525,1.01337,-0.0610352,-0.183105,0,-0.001,-0.002,0.01,0,0,0,0,0,0,0,40.72,987.793,2219395
-0.00738525,-0.00476074,1.0105,0,0.0610352,-0.0610352,0,0,0.01,0,0,0,0,0,0,0,40.72,987.818,2219426
-0.00622559,-0.00256348,1.0163,0.0610352,0,-0.0610352,0,0.001,0.01,0,0,0,0,0,0,0,40.72,987.833,2219440
-0.00634766,-0.00280762,1.01117,0.0610352,0,-0.183105,0,0.001,0.01,0,0,0,0,0,0,0,40.72,987.852,2219455
-0.00439453,0.00128174,1.01593,0.0610352,0.0610352,-0.0610352,0.002,0.005,0.01,0,0,0,0,0,0,0,40.72,987.873,2219470
-0.0170288,-0.0447998,1.01892,-1.09863,0.12207,-0.610352,-0.01,-0.039,0.02,0,-7.62939e-05,0,0,0,0,0,40.72,987.893,2219500
0.0101929,-0.0149536,1.01935,-2.13623,-0.305176,-1.0376,0.017,-0.008,0.03,0,-0.000167847,0,0,0,0,0,40.72,987.913,2219516
-0.0142212,-0.0133667,1.00385,-1.46484,-0.0610352,0,-0.007,-0.006,0.04,0,-0.000167847,0,0,0,0,0,40.7,987.933,2219530
0.00689697,-0.0423584,1.00995,2.74658,-0.0610352,-0.12207,0.013,-0.036,0.03,0,-0.000183105,0,0,0,0,0,40.7,987.953,2219560
-0.00488281,-0.0495605,1.0285,2.31934,-0.183105,0.427246,0.002,-0.043,0.03,0,-0.000244141,0,0,0,0,0,40.7,987.973,2219575
-0.0193481,-0.0217285,1.03009,0.915527,-0.183105,0.244141,-0.012,-0.015,0.02,0,-0.000350952,0,0,0,0,0,40.7,987.993,2219590
0.000549316,-0.00140381,1.00671,-0.976562,-0.0610352,0.854492,0.007,0.004,0.01,0,-0.000350952,0,0,0,0,0,40.7,988.014,2219620
-0.00970459,0.0213623,1.02234,-0.366211,-0.12207,1.34277,-0.002,0.027,0,0,-0.000335693,0,0,0,0,0,40.7,988.033,2219637
-0.00708008,-0.00286865,1.00653,0.488281,0.244141,2.56348,0,0.002,-0.06,0,-0.000259399,0,0,0,0,0,40.7,988.053,2219666
-0.0153198,-0.00152588,1.02521,0.305176,0.0610352,2.80762,-0.008,0.004,-0.1,0,-0.000259399,0,0,0,0,0,40.7,988.073,2219680
-0.00970459,-0.0144043,1.02075,-0.244141,-0.0610352,2.86865,-0.002,-0.008,-0.14,0,-0.000259399,0,0,0,0,0,40.7,988.094,2219695
-0.00640869,-0.00415039,1.02026,-0.915527,-0.0610352,3.41797,0,0.001,-0.25,0,-0.000259399,0,0,0,0,0,40.7,988.113,2219726
-6.10352e-05,-0.00640869,1.04333,-0.854492,0.183105,3.05176,0.007,0,-0.3,0,-0.000259399,0,0,0,0,0,40.7,988.133,2219741
-0.00189209,0.00292969,1.00562,-1.0376,-0.12207,2.44141,0.004,0.009,-0.34,0,-0.000259399,0,0,0,0,0,40.7,988.153,2219756
-0.0090332,0.015564,1.0163,0.244141,0.183105,-0.0610352,-0.002,0.021,-0.37,0,-0.000228882,0,0,0,0,0,40.7,988.173,2219786
-0.0130615,0.003479,1.02161,0.488281,0.244141,-0.976562,-0.006,0.009,-0.35,0,-0.000183105,0,0,0,0,0,40.7,988.193,2219801
-0.0255737,-0.153564,1.03491,-1.83105,-0.12207,-2.44141,-0.017,-0.147,-0.33,0,-0.000228882,0,0,0,0,0,40.7,988.214,2219816
-0.00732422,-0.0419312,1.00592,-4.08936,-0.305176,-0.610352,0,-0.033,-0.31,0,-0.000396729,0,0,0,0,0,40.7,988.233,2219831
0.00622559,-0.0273438,0.995789,-0.0610352,-0.244141,0,0.013,-0.017,-0.3,-3.05176e-05,-0.000595093,0,0,0,0,0,40.7,988.253,2219861
0.00262451,-0.0545044,0.9823,2.13623,-0.366211,1.34277,0.009,-0.044,-0.31,-4.57764e-05,-0.000640869,0,0,0,0,0,40.7,988.273,2219876
0.00860596,-0.0475464,1.0379,0.976562,-0.12207,0.549316,0.016,-0.036,-0.33,-7.62939e-05,-0.000976562,0,0,0,0,0,40.7,988.293,2219906
-0.000610352,-0.031189,1.01202,0.305176,-0.12207,1.46484,0.006,-0.02,-0.36,-9.15527e-05,-0.0012207,0,0,0,0,0,40.7,988.318,2219921
-0.0234375,-0.0534668,1.01819,-0.183105,-0.12207,1.70898,-0.016,-0.042,-0.38,-9.15527e-05,-0.00151062,0,0,0,0,0,40.7,988.332,2219936
-0.0022583,-0.036377,1.01453,-0.305176,0.0610352,1.89209,0.004,-0.025,-0.45,-9.15527e-05,-0.00216675,0,0,0,0,0,40.7,988.352,2219966
-0.03302,-0.0888672,1.05145,-1.46484,-0.0610352,0.12207,-0.025,-0.076,-0.46,-0.000106812,-0.00257874,0,0,0,0,0,40.7,988.372,2219981
0.0200195,0.017334,0.957336,-1.58691,-0.366211,0.671387,0.026,0.029,-0.47,-0.00012207,-0.00302124,0,0,0,0,0,40.7,988.393,2219996
0.00354004,-0.0528564,1.04187,2.13623,0.183105,0,0.011,-0.04,-0.47,-0.00012207,-0.00379944,0,0,0,0,0,40.7,988.419,2220026
-0.0118408,-0.116516,1.00348,0.366211,0.12207,-0.12207,-0.004,-0.104,-0.46,-0.00012207,-0.00428772,0,0,0,0,0,40.76,988.432,2220041
-0.00427246,0.00476074,1.01288,-0.976562,-0.183105,-0.427246,0.002,0.018,-0.46,-0.00012207,-0.00483704,0,0,0,0,0,40.76,988.453,2220056
-0.0386353,-0.0269775,1.03992,0,0.366211,-1.0376,-0.031,-0.013,-0.45,-0.000152588,-0.00483704,0,0,0,0,0,40.76,988.472,2220071
-0.0112915,-0.0462646,0.988708,1.0376,0.12207,-0.12207,-0.004,-0.033,-0.44,-0.000167847,-0.00486755,0,0,0,0,0,40.76,988.492,2220101
     0,-0.0189819,1.02808,2.13623,0.366211,0.610352,0.007,-0.006,-0.45,-0.000167847,-0.00492859,0,0,0,0,0,40.76,988.512,2220116
0.00427246,0.00653076,1.00952,1.89209,-0.0610352,1.15967,0.011,0.018,-0.47,-0.000167847,-0.00497437,0,0,0,0,0,40.76,988.532,2220131
0.0112915,-0.176575,1.0932,-3.60107,0.427246,-0.12207,0.02,-0.162,-0.49,-0.000198364,-0.00527954,0,0,0,0,0,40.76,988.552,2220161
-0.0270996,-0.00427246,0.990784,-2.86865,0.671387,0.549316,-0.02,0.009,-0.49,-0.000198364,-0.00561523,0,0,0,0,0,40.76,988.574,2220176
-0.00219727,-0.0337524,0.974609,-1.15967,0,0.305176,0.005,-0.019,-0.5,-0.000228882,-0.00561523,0,0,0,0,0,40.76,988.593,2220191
-0.0267334,-0.0931396,1.00623,0.488281,0.305176,0.305176,-0.018,-0.078,-0.51,-0.000244141,-0.00593567,0,0,0,0,0,40.76,988.612,2220221
0.0386353,-0.0541382,0.979675,0.12207,-0.488281,-0.305176,0.046,-0.039,-0.5,-0.000213623,-0.00622559,0,0,0,0,0,40.76,988.634,2220236
-0.0145264,-0.0704346,0.983826,0.854492,0.244141,0.183105,-0.006,-0.056,-0.5,-0.000167847,-0.0065918,0,0,0,0,0,40.76,988.652,2220251
0.0118408,0.00836182,1.0191,0.427246,0.12207,0.366211,0.019,0.023,-0.51,-0.000198364,-0.00743103,0,0,0,0,0,40.76,988.672,2220281
0.00286865,-0.0327148,1.01941,0.12207,-0.427246,0.183105,0.011,-0.017,-0.52,-0.000198364,-0.00784302,0,0,0,0,0,40.76,988.698,2220296
0.0213623,0.0171509,0.970276,0.671387,0.183105,0.305176,0.028,0.03,-0.54,-0.000274658,-0.0087738,0,0,0,0,0,40.76,988.712,2220326
0.0175171,-0.039978,0.9646,-2.13623,-0.976562,-0.0610352,0.025,-0.025,-0.54,-0.000274658,-0.00923157,0,0,0,0,0,40.76,988.732,2220341
-0.0470581,-0.00683594,1.03491,-0.732422,0.854492,0.610352,-0.038,0.009,-0.55,-0.000289917,-0.00970459,0,0,0,0,0,40.76,988.752,2220356
-0.0358887,-0.0372314,1.04834,0.244141,1.09863,0.793457,-0.027,-0.02,-0.56,-0.000350952,-0.0101929,0,0,0,0,0,40.76,988.772,2220371
-0.0114136,-0.0542603,1.03137,0.610352,0.0610352,-0.732422,-0.001,-0.037,-0.56,-0.000442505,-0.0112915,0,0,0,0,0,40.76,988.792,2220401
-0.000305176,0.0162354,1.0332,0.549316,0.610352,0.366211,0.008,0.033,-0.56,-0.000442505,-0.0118561,0,0,0,0,0,40.76,988.812,2220416
-0.0159912,0.0238037,1.00757,1.15967,0.366211,0.305176,-0.007,0.04,-0.57,-0.000442505,-0.0123901,0,0,0,0,0,40.76,988.833,2220431
-0.0413818,0.0263672,1.05963,2.31934,0.732422,1.77002,-0.031,0.042,-0.59,-0.000427246,-0.0129547,0,0,0,0,0,40.76,988.853,2220461
-0.0387573,-0.0710449,1.0575,-0.305176,0.427246,2.19727,-0.028,-0.055,-0.64,-0.000457764,-0.0131683,0,0,0,0,0,40.76,988.873,2220476
-0.00823975,-0.0475464,1.00604,-0.427246,-0.915527,2.38037,0.001,-0.032,-0.67,-0.00050354,-0.013443,0,0,0,0,0,40.76,988.893,2220491
0.0552368,0.0952148,0.971436,-0.732422,-1.95312,4.27246,0.063,0.11,-0.81,-0.000488281,-0.0139465,0,0,0,0,0,40.76,988.916,2220521
0.0302124,-0.0430908,1.06726,-1.15967,-1.09863,3.11279,0.04,-0.027,-0.86,-0.000396729,-0.0140991,0,0,0,0,0,40.76,988.933,2220536
-0.0210571,-0.000305176,0.990967,1.09863,0.0610352,6.5918,-0.012,0.013,-0.94,-0.000274658,-0.014267,0,0,0,0,0,40.71,988.953,2220551
0.0446167,0.0673218,1.01685,0.488281,-0.488281,3.05176,0.052,0.081,-1.08,0,-0.0142059,0,0,0,0,0,40.71,988.973,2220581
-0.048645,-0.0285645,0.95874,-0.549316,-0.488281,5.79834,-0.039,-0.016,-1.15,0.000167847,-0.0141144,0,0,0,0,0,40.71,988.992,2220596
0.0288696,0.0406494,1.04956,0.427246,0.427246,3.84521,0.037,0.054,-1.23,0.000350952,-0.0139923,0,0,0,0,0,40.71,989.012,2220611
-0.0443115,-0.0467529,1.0116,0.12207,0.183105,3.90625,-0.034,-0.035,-1.31,0.000656128,-0.0136108,0,0,0,0,0,40.71,989.035,2220641
0.0481567,0.0400391,0.956604,0.244141,0.427246,2.38037,0.055,0.052,-1.36,0.000808716,-0.0134125,0,0,0,0,0,40.71,989.052,2220656
-0.0158691,-0.0223999,1.04602,-1.28174,0.0610352,2.19727,-0.005,-0.01,-1.4,0.000991821,-0.0128479,0,0,0,0,0,40.71,989.075,2220687
0.0734253,0.131653,0.864746,0.12207,-0.976562,1.46484,0.078,0.143,-1.43,0.0010376,-0.0124512,0,0,0,0,0,40.71,989.093,2220701
-0.0124512,0.00689697,1.03345,0,-0.427246,-0.976562,-0.003,0.018,-1.43,0.00112915,-0.0119629,0,0,0,0,0,40.71,989.113,2220716
0.101685,0.155334,0.901733,-0.671387,-1.09863,1.34277,0.106,0.168,-1.47,0.00132751,-0.0108032,0,0,0,0,0,40.71,989.139,2220747
-0.00762939,0.0324097,1.03015,0.549316,-0.671387,-1.28174,0.001,0.043,-1.46,0.00151062,-0.0100098,0,0,0,0,0,40.71,989.153,2220761
-0.0845947,-0.027832,1.04187,0.427246,0.610352,0.549316,-0.073,-0.019,-1.46,0.00164795,-0.00921631,0,0,0,0,0,40.71,989.173,2220776
0.0584717,-0.0394897,1.01984,-0.976562,0.244141,1.58691,0.069,-0.027,-1.48,0.00178528,-0.00843811,0,0,0,0,0,40.71,989.193,2220791
-0.0766602,0.198364,0.994568,-0.0610352,-0.732422,1.28174,-0.072,0.207,-1.48,0.00209045,-0.00675964,0,0,0,0,0,40.71,989.213,2220821
0.0171509,-0.129517,1.01666,-1.64795,0.244141,2.74658,0.03,-0.118,-1.53,0.00219727,-0.00576782,0,0,0,0,0,40.71,989.233,2220836
-0.0180054,-0.100281,1.02515,0.305176,1.0376,0.244141,-0.005,-0.09,-1.54,0.00230408,-0.00492859,0,0,0,0,0,40.71,989.253,2220851
0.0363159,0.00231934,1.01776,0.0610352,1.34277,2.86865,0.046,0.014,-1.59,0.00250244,-0.0035553,0,0,0,0,0,40.71,989.274,2220881
-0.038269,0.00219727,1.0025,1.89209,0.854492,0.549316,-0.029,0.011,-1.61,0.00262451,-0.0035553,0,0,0,0,0,40.71,989.294,2220896
-0.0169678,0.0475464,1.00787,0.671387,-1.15967,1.46484,-0.008,0.057,-1.61,0.00271606,-0.00350952,0,0,0,0,0,40.71,989.313,2220911
-0.0807495,0.00213623,1.04871,0.0610352,-0.976562,2.68555,-0.071,0.009,-1.71,0.00311279,-0.00317383,0,0,0,0,0,40.71,989.345,2220956
-0.0807495,0.00213623,1.04871,0.0610352,-0.976562,2.68555,-0.071,0.009,-1.71,0.00311279,-0.00317383,0,0,0,0,0,40.71,989.354,2220956
0.022522,0.0458374,0.949524,0.549316,-1.34277,1.70898,0.029,0.054,-1.79,0.00326538,-0.0027771,0,0,0,0,0,40.71,989.375,2220987
-0.0621948,-0.0350342,1.0141,-0.0610352,-0.732422,2.13623,-0.052,-0.028,-1.82,0.00334167,-0.00253296,0,0,0,0,0,40.71,989.394,2221001
-0.0126953,0.00891113,1.08038,-0.793457,0.732422,2.74658,-0.002,0.018,-1.85,0.00337219,-0.00228882,0,0,0,0,0,40.71,989.413,2221016
0.0477905,0.0529175,0.954529,-0.0610352,-0.915527,0.671387,0.054,0.062,-1.87,0.00343323,-0.0019989,0,0,0,0,0,40.71,989.433,2221031
-0.0217896,-0.022644,1.08856,-1.52588,0.976562,1.95312,-0.011,-0.013,-1.92,0.00354004,-0.00131226,0,0,0,0,0,40.69,989.455,2221061
0.0774536,0.0459595,0.969116,-1.0376,-0.549316,0.366211,0.084,0.057,-1.94,0.00363159,-0.000946045,0,0,0,0,0,40.69,989.474,2221076
-0.0233765,-0.0216675,0.961304,-0.976562,-0.732422,0.915527,-0.014,-0.013,-1.95,0.00375366,-0.000549316,0,0,0,0,0,40.69,989.492,2221091
0.0549316,0.0322266,1.00397,-1.70898,0.12207,-0.671387,0.062,0.044,-1.97,0.00398254,0.000213623,0,0,0,0,0,40.69,989.512,2221122
-0.0155029,0.0164795,1.00116,-1.09863,0.244141,-1.09863,-0.007,0.025,-1.95,0.00415039,0.000656128,0,0,0,0,0,40.69,989.534,2221137
0.00628662,0.00164795,1.06329,-1.2207,0.854492,0.671387,0.015,0.013,-1.96,0.00415039,0.00112915,0,0,0,0,0,40.69,989.552,2221152
0.0010376,-0.0409546,1.00555,-0.915527,-0.427246,-0.610352,0.011,-0.03,-1.93,0.00427246,0.00218201,0,0,0,0,0,40.69,989.573,2221182
-0.0620117,-0.0581665,1.08655,-0.915527,0.305176,1.09863,-0.05,-0.048,-1.95,0.00431824,0.00265503,0,0,0,0,0,40.69,989.593,2221197
0.00463867,0.0237427,0.917969,-1.58691,-0.732422,0.244141,0.012,0.033,-1.95,0.00434875,0.00312805,0,0,0,0,0,40.69,989.612,2221212
-0.00286865,0.0418701,1.15021,-0.793457,-0.366211,1.70898,0.005,0.055,-2,0.00437927,0.00401306,0,0,0,0,0,40.69,989.632,2221242
-0.0122681,-0.0856323,0.951782,-1.58691,-0.610352,0.183105,0,-0.075,-2,0.00437927,0.00444031,0,0,0,0,0,40.69,989.652,2221257
0.0221558,0.0610962,0.911926,2.01416,-1.46484,-0.0610352,0.027,0.072,-2,0.00440979,0.00486755,0,0,0,0,0,40.69,989.674,2221272
-0.0322266,-0.0397949,0.998169,0.427246,0.0610352,0.0610352,-0.022,-0.029,-2,0.00465393,0.00602722,0,0,0,0,0,40.69,989.692,2221302
0.0386353,0.00543213,0.971008,0.183105,0.854492,-0.549316,0.045,0.017,-1.99,0.00482178,0.00662231,0,0,0,0,0,40.69,989.713,2221317
-0.00439453,-0.0715942,1.17706,-1.09863,1.15967,0.427246,0.007,-0.058,-2,0.00502014,0.00718689,0,0,0,0,0,40.69,989.732,2221332
0.019104,-0.0540771,0.922913,-0.427246,0.732422,-0.427246,0.028,-0.043,-1.99,0.0050354,0.00820923,0,0,0,0,0,40.69,989.752,2221362
-0.0325317,-0.00646973,1.0589,-1.0376,1.09863,1.34277,-0.023,0.004,-2.01,0.00506592,0.00868225,0,0,0,0,0,40.69,989.775,2221377
-0.0254517,0.00415039,1.01202,-1.58691,0.915527,0.732422,-0.016,0.014,-2.02,0.00506592,0.00917053,0,0,0,0,0,40.69,989.792,2221392
-0.116211,-0.0128784,1.11511,-0.549316,1.2207,1.46484,-0.105,-0.003,-2.05,0.00500488,0.00917053,0,0,0,0,0,40.69,989.812,2221422
-0.0715942,-0.064209,1.06958,-0.854492,1.28174,0.732422,-0.058,-0.053,-2.07,0.00483704,0.00912476,0,0,0,0,0,40.69,989.835,2221437
-0.0222778,-0.050293,1.02448,0.671387,0.671387,-0.854492,-0.01,-0.038,-2.06,0.00462341,0.0090332,0,0,0,0,0,40.69,989.852,2221452
0.0169067,-0.0530396,0.985474,-0.366211,-0.366211,1.40381,0.028,-0.039,-2.09,0.00404358,0.00854492,0,0,0,0,0,40.69,989.873,2221482
-0.00366211,-0.0662842,0.970093,0.427246,-0.12207,-0.549316,0.007,-0.054,-2.09,0.00376892,0.00819397,0,0,0,0,0,40.69,989.895,2221497
0.0266724,-0.0708618,0.963196,-0.549316,0.488281,0.183105,0.038,-0.057,-2.11,0.00378418,0.00732422,0,0,0,0,0,40.69,989.916,2221527
0.0407715,-0.0591431,0.979553,0.305176,0.549316,-0.488281,0.052,-0.045,-2.1,0.00386047,0.00679016,0,0,0,0,0,40.69,989.932,2221542
-0.0583496,-0.0825195,1.07697,1.0376,1.09863,0.976562,-0.045,-0.07,-2.11,0.00395203,0.00617981,0,0,0,0,0,40.69,989.953,2221557
-0.0228882,0.00543213,1.02643,0.366211,1.34277,1.70898,-0.012,0.017,-2.14,0.0039978,0.00552368,0,0,0,0,0,40.75,989.973,2221572
-0.0758667,-0.0325928,1.08655,-0.732422,0.305176,2.0752,-0.063,-0.021,-2.18,0.00408936,0.00428772,0,0,0,0,0,40.75,990.002,2221602
0.000244141,0.0304565,1.01709,-0.366211,0,1.95312,0.01,0.044,-2.22,0.00410461,0.00369263,0,0,0,0,0,40.75,990.013,2221617
-0.0151367,-0.0162964,0.965698,-0.671387,-1.2207,1.2207,-0.004,-0.004,-2.24,0.00410461,0.00311279,0,0,0,0,0,40.75,990.033,2221632
0.0203857,0.0628052,0.985962,0.915527,-1.0376,2.13623,0.028,0.076,-2.3,0.00402832,0.00180054,0,0,0,0,0,40.75,990.053,2221662
-0.0276489,-0.166443,1.03326,0.549316,-0.549316,4.63867,-0.01,-0.154,-2.36,0.0039978,0.00108337,0,0,0,0,0,40.75,990.073,2221677
-0.00457764,0.0274048,1.03229,-0.183105,-0.305176,7.50732,0.004,0.04,-2.45,0.0039978,0.000289917,0,0,0,0,0,40.75,990.093,2221692
0.0022583,0.0333862,0.974792,1.58691,-1.0376,10.9253,0.009,0.045,-2.72,0.00416565,-0.0010376,0,0,0,0,0,40.75,990.113,2221722
-0.0306396,-0.0316772,1.09906,-0.305176,0.793457,13.1836,-0.018,-0.019,-2.9,0.00427246,-0.00166321,0,0,0,0,0,40.75,990.133,2221737
-0.0164185,0.0482788,1.00012,0.244141,0.183105,18.1885,-0.009,0.06,-3.38,0.00453186,-0.00160217,0,0,0,0,0,40.75,990.155,2221767
-0.0530396,-0.0217285,1.00702,0,0.183105,18.1885,-0.042,-0.012,-3.64,0.00462341,-0.00152588,0,0,0,0,0,40.75,990.173,2221782
-0.00384521,-0.0137939,1.04468,-0.0610352,-0.976562,18.7988,0.007,0,-3.92,0.00469971,-0.00144958,0,0,0,0,0,40.75,990.194,2221797
-0.019043,0.0239868,1.03156,-0.244141,0,21.0571,-0.01,0.035,-4.23,0.004776,-0.00135803,0,0,0,0,0,40.75,990.213,2221812
0.000732422,0.00860596,1.03668,-0.366211,-1.2207,20.2026,0.009,0.021,-4.83,0.00495911,-0.00106812,0,0,0,0,0,40.75,990.233,2221842
-0.00787354,0.0098877,1.04639,-1.40381,-0.976562,20.5688,0,0.022,-5.14,0.00506592,-0.00088501,0,0,0,0,0,40.75,990.253,2221857
-0.0134277,-0.0723267,0.942566,-1.46484,-0.488281,21.6675,0.001,-0.061,-5.45,0.00506592,-0.000732422,0,0,0,0,0,40.75,990.273,2221872
0.0170898,0.052124,1.04089,-1.46484,-1.40381,24.0478,0.018,0.067,-6.19,0.00520325,-0.000427246,0,0,0,0,0,40.75,990.293,2221902
0.0210571,0.00653076,0.996338,-1.52588,-1.52588,26.9165,0.027,0.023,-6.58,0.00532532,-0.000183105,0,0,0,0,0,40.75,990.315,2221917
0.0022583,-0.0114136,0.937805,-1.2207,-1.0376,29.7241,0.009,0.002,-7.01,0.00546265,6.10352e-05,0,0,0,0,0,40.75,990.333,2221932
-0.0654297,-0.0526123,1.07672,1.83105,-1.09863,32.3486,-0.05,-0.046,-7.95,0.00564575,0.000595093,0,0,0,0,0,40.75,990.353,2221962
-0.0753784,-0.236694,1.07483,1.46484,0,34.6069,-0.033,-0.23,-8.45,0.00563049,0.000671387,0,0,0,0,0,40.75,990.373,2221977
-0.0133057,-0.0536499,1.0376,0.671387,-1.40381,33.8135,0,-0.041,-9.48,0.00566101,0.000488281,0,0,0,0,0,40.75,990.394,2222008
0.00262451,-0.0366211,0.983704,0,-1.77002,35.1562,0.013,-0.022,-10,0.00566101,0.000335693,0,0,0,0,0,40.75,990.414,2222022
0.0365601,-0.0159302,0.964722,-1.34277,-2.0752,33.6304,0.042,0.003,-10.52,0.00570679,0.000183105,0,0,0,0,0,40.75,990.433,2222037
0.069458,0.090271,1.11902,-0.0610352,-1.64795,31.8603,0.054,0.116,-11.01,0.0058136,9.15527e-05,0,0,0,0,0,40.75,990.453,2222052
-0.0563965,-0.090271,0.96521,1.58691,0.610352,31.0669,-0.034,-0.088,-11.96,0.00613403,-0.00012207,0,0,0,0,0,40.69,990.473,2222082
0.015625,-0.00878906,1.15192,2.50244,1.34277,29.9683,0.018,0.008,-12.42,0.00628662,-0.000335693,0,0,0,0,0,40.69,990.492,2222097
-0.0965576,-0.145691,1.06653,0.549316,1.15967,29.3579,-0.06,-0.151,-12.85,0.00640869,-0.000656128,0,0,0,0,0,40.69,990.513,2222112
0.0032959,-0.0196533,1.00018,0.793457,0.793457,29.1748,0.009,-0.007,-13.76,0.00665283,-0.00137329,0,0,0,0,0,40.69,990.532,2222142
-0.017334,-0.0796509,1.034,-0.0610352,-0.976562,31.5552,0.004,-0.069,-14.22,0.00665283,-0.00177002,0,0,0,0,0,40.69,990.552,2222157
-0.0236816,0.0205078,1.04602,-0.183105,-1.2207,32.3486,-0.026,0.025,-14.7,0.00663757,-0.00218201,0,0,0,0,0,40.69,990.572,2222172
0.0279541,0.0460815,0.971313,0.244141,-1.77002,34.3018,0.015,0.062,-15.72,0.00657654,-0.00302124,0,0,0,0,0,40.69,990.593,2222202
-0.00537109,-0.0055542,1.03107,0.0610352,-1.58691,35.4004,-0.002,0.004,-16.25,0.00657654,-0.00338745,0,0,0,0,0,40.69,990.613,2222217
0.0297852,-0.0010376,1.04059,-0.12207,-1.15967,35.7666,0.029,0.019,-16.78,0.00660706,-0.00338745,0,0,0,0,0,40.69,990.632,2222232
0.0153198,0.0372925,0.993958,-0.427246,-0.12207,35.2173,0.002,0.05,-17.83,0.0067749,-0.00328064,0,0,0,0,0,40.69,990.654,2222262
0.0204468,-0.00592041,0.992676,-0.183105,0.305176,33.0811,0.02,0.011,-18.34,0.00689697,-0.00315857,0,0,0,0,0,40.69,990.672,2222277
0.0485229,-0.019043,1.08911,-0.610352,0.549316,33.9355,0.051,0.009,-18.84,0.00706482,-0.00315857,0,0,0,0,0,40.69,990.692,2222292
0.00280762,-0.0500488,0.987305,-1.95312,-0.12207,33.02,0.018,-0.035,-19.83,0.00724792,-0.00317383,0,0,0,0,0,40.69,990.712,2222322
0.0032959,0.0682983,0.970581,-1.0376,0.732422,33.1421,-0.021,0.076,-20.34,0.00724792,-0.00315857,0,0,0,0,0,40.69,990.732,2222337
-0.0158691,-0.0529785,1.01392,-1.46484,0.183105,32.8369,0.002,-0.043,-20.83,0.00723267,-0.00312805,0,0,0,0,0,40.69,990.753,2222352
-0.0201416,0.00134277,0.964111,-1.83105,-1.40381,31.7383,-0.02,0.005,-21.81,0.00718689,-0.00292969,0,0,0,0,0,40.69,990.773,2222382
-0.00543213,0.00909424,1.04846,-0.610352,-0.427246,33.2642,-0.01,0.019,-22.3,0.00714111,-0.00292969,0,0,0,0,0,40.69,990.792,2222397
0.0256958,0.10553,1.01556,0.610352,-0.305176,31.4941,-0.019,0.12,-22.78,0.00706482,-0.00283813,0,0,0,0,0,40.69,990.813,2222412
0.0135498,0.0257568,1.00482,-0.305176,0,30.2124,0,0.041,-23.7,0.00706482,-0.00248718,0,0,0,0,0,40.69,990.833,2222442
0.0413818,0.0346069,0.962463,-1.28174,-1.89209,30.8838,0.02,0.06,-24.16,0.00708008,-0.00222778,0,0,0,0,0,40.69,990.852,2222457
-0.0166016,-0.0216675,1.03381,-0.488281,-0.427246,33.02,-0.008,-0.013,-25.13,0.00706482,-0.00151062,0,0,0,0,0,40.69,990.876,2222488
0.015564,-0.0682373,1.09369,-1.64795,-0.12207,34.5459,0.039,-0.041,-25.64,0.00706482,-0.00117493,0,0,0,0,0,40.69,990.892,2222503
-0.0457764,-0.0227661,1.00171,-1.2207,-0.732422,34.3018,-0.034,-0.028,-26.15,0.00706482,-0.00088501,0,0,0,0,0,40.69,990.913,2222518
-0.00280762,0.0547485,0.980652,-0.854492,-2.56348,35.4614,-0.03,0.06,-26.69,0.00701904,-0.000564575,0,0,0,0,0,40.69,990.932,2222533
0.0844727,0.0167847,0.990784,-1.28174,-4.69971,35.3394,0.062,0.066,-27.77,0.00694275,0.000366211,0,0,0,0,0,40.69,990.953,2222563
-0.0178833,0.0134277,1.00732,-1.40381,-2.0752,33.6304,-0.027,0.015,-28.29,0.00695801,0.000961304,0,0,0,0,0,40.69,990.978,2222578
0.0361938,0.0283203,0.986267,-1.2207,-3.17383,34.6069,0.012,0.053,-28.8,0.00695801,0.00158691,0,0,0,0,0,40.73,990.992,2222593
0.00109863,-0.00701904,1.01013,-0.305176,-0.732422,33.2031,-0.002,0.005,-29.81,0.00695801,0.00311279,0,0,0,0,0,40.73,991.013,2222623
0.019165,0.036438,1.01654,-0.244141,-0.366211,32.8369,-0.008,0.052,-30.31,0.00695801,0.00393677,0,0,0,0,0,40.73,991.033,2222638
0.00366211,-0.0197144,1.03821,-0.671387,0.183105,32.1045,0.005,-0.003,-30.79,0.00695801,0.00480652,0,0,0,0,0,40.73,991.052,2222653
-0.0151367,-0.0470581,1.00812,0.305176,1.15967,34.0576,0.004,-0.037,-31.79,0.00706482,0.00637817,0,0,0,0,0,40.73,991.073,2222683
0.0560303,0.0307617,0.983582,-0.427246,-1.64795,34.5459,0.023,0.066,-32.31,0.00715637,0.00714111,0,0,0,0,0,40.73,991.092,2222698
-0.00708008,0.0184326,0.959656,-0.549316,-1.52588,35.2783,-0.023,0.022,-32.84,0.00724792,0.00798035,0,0,0,0,0,40.73,991.112,2222713
-0.0493774,0.0147095,1.02014,1.0376,-1.28174,37.0483,-0.056,-0.004,-33.95,0.00737,0.00881958,0,0,0,0,0,40.73,991.135,2222743
-0.0558472,-0.119385,1.03613,-0.488281,-2.56348,38.0249,0.014,-0.119,-34.52,0.00738525,0.00872803,0,0,0,0,0,40.73,991.153,2222758
0.00115967,0.0229492,0.98468,-0.12207,-4.15039,39.2456,-0.019,0.029,-35.11,0.00740051,0.00857544,0,0,0,0,0,40.73,991.173,2222773
0.0292969,0.039856,0.972717,0.12207,-3.17383,39.0625,-0.008,0.058,-36.28,0.00744629,0.00830078,0,0,0,0,0,40.73,991.193,2222803
0.0306396,-0.0304565,1.0152,0.0610352,-2.19727,38.7573,0.033,0.002,-36.87,0.00749207,0.00822449,0,0,0,0,0,40.73,991.213,2222818
0.0788574,-0.010437,1.00317,0.549316,-1.28174,38.0249,0.058,0.047,-37.44,0.00761414,0.00816345,0,0,0,0,0,40.73,991.233,2222833
0.0221558,0.0267944,1.02252,-0.305176,0.305176,36.6211,-0.01,0.042,-38.54,0.00775146,0.00814819,0,0,0,0,0,40.73,991.258,2222863
-0.00128174,0.0237427,1.00037,0.305176,0.488281,34.729,-0.026,0.024,-39.07,0.00773621,0.00819397,0,0,0,0,0,40.73,991.273,2222878
0.0396729,0.00701904,1.01855,0.366211,-0.549316,35.3394,0.015,0.038,-39.6,0.00769043,0.00828552,0,0,0,0,0,40.73,991.293,2222893
0.0108643,0.0176392,1.02637,0.305176,-0.183105,33.9355,-0.013,0.027,-40.62,0.00756836,0.00848389,0,0,0,0,0,40.73,991.313,2222923
0.0252686,0.0569458,0.973633,1.64795,-0.305176,33.1421,-0.028,0.065,-41.11,0.00746155,0.00865173,0,0,0,0,0,40.73,991.334,2222938
-0.0179443,-0.0653076,1.013,0.732422,-1.2207,34.729,0.019,-0.054,-41.63,0.00735474,0.00883484,0,0,0,0,0,40.73,991.353,2222953
-0.0300293,-0.0519409,1.06567,-0.732422,-1.28174,33.7524,0.002,-0.052,-42.65,0.00708008,0.00909424,0,0,0,0,0,40.73,991.373,2222983
0.0344849,0.0688477,0.990906,0.427246,-0.671387,33.2642,-0.032,0.079,-43.16,0.00691223,0.00921631,0,0,0,0,0,40.73,991.394,2222998
-0.0307617,-0.0241699,0.990723,0.732422,-1.15967,33.02,-0.015,-0.033,-43.66,0.00671387,0.00938416,0,0,0,0,0,40.73,991.413,2223013
0.00604248,-0.00598145,0.996582,1.34277,-0.915527,32.7148,-0.001,0.003,-44.65,0.00650024,0.00971985,0,0,0,0,0,40.73,991.433,2223043
0.0235596,-0.00274658,1.01038,1.70898,-0.12207,33.8745,0.008,0.018,-45.15,0.00650024,0.00971985,0,0,0,0,0,40.73,991.453,2223058
-0.0020752,-0.0263672,1.00171,2.2583,0.488281,33.4473,0.008,-0.017,-45.66,0.00650024,0.00971985,0,0,0,0,0,40.73,991.473,2223073
-0.00476074,-0.0100708,1.0083,1.28174,0.366211,34.9731,-0.004,-0.007,-46.69,0.00663757,0.00971985,0,0,0,0,0,40.72,991.492,2223103
-0.0126953,-0.0906982,0.971069,-0.0610352,-0.366211,36.0718,0.049,-0.068,-47.22,0.00675964,0.00967407,0,0,0,0,0,40.72,991.512,2223118
0.0100708,0.0150146,0.983276,1.15967,0.183105,36.438,-0.012,0.02,-47.77,0.00691223,0.00958252,0,0,0,0,0,40.72,991.532,2223133
-0.00317383,-0.00720215,1.03479,1.28174,-0.793457,38.147,-0.005,-0.004,-48.91,0.00726318,0.00927734,0,0,0,0,0,40.72,991.552,2223163
-0.022522,-0.0521851,0.971008,0.488281,-1.58691,39.978,0.016,-0.049,-49.49,0.00746155,0.00906372,0,0,0,0,0,40.72,991.572,2223178
0.0317993,0.0549316,0.9953,2.80762,-1.58691,40.5884,-0.029,0.061,-50.11,0.00765991,0.0088501,0,0,0,0,0,40.72,991.593,2223193
0.0176392,0.0123901,0.977844,3.84521,-2.31934,39.0625,-0.005,0.021,-51.31,0.00802612,0.00843811,0,0,0,0,0,40.72,991.612,2223223
-0.0144653,0.0125122,0.980896,3.72314,-1.95312,38.5742,-0.025,-0.004,-51.88,0.00817871,0.00822449,0,0,0,0,0,40.72,991.632,2223238
0.0275269,0.0545044,0.996826,5.24902,-1.2207,37.4146,-0.032,0.052,-52.47,0.00830078,0.00804138,0,0,0,0,0,40.72,991.652,2223253
0.0601196,0.026062,1.01813,5.31006,-1.64795,36.0718,0.01,0.059,-53.56,0.00840759,0.00782776,0,0,0,0,0,40.72,991.673,2223283
0.00323486,0.012146,1.02802,5.24902,-0.488281,33.9966,-0.011,0.003,-54.08,0.00840759,0.00778198,0,0,0,0,0,40.72,991.696,2223298
0.0126953,0.0400391,1.01807,5.98144,-0.244141,35.0952,-0.027,0.026,-54.6,0.00837708,0.00776672,0,0,0,0,0,40.72,991.714,2223313
0.0239258,-0.0196533,1.02917,7.44629,-0.793457,33.6914,0.03,-0.001,-55.62,0.00827026,0.00779724,0,0,0,0,0,40.72,991.734,2223343
0.000671387,0.122803,1.0882,7.38525,0.427246,31.6162,-0.098,0.057,-56.11,0.00816345,0.00785828,0,0,0,0,0,40.72,991.753,2223358
0.000732422,-0.000671387,1.06,4.5166,0.12207,30.7617,0.005,-0.012,-56.58,0.00799561,0.00794983,0,0,0,0,0,40.72,991.772,2223373
0.0204468,-0.0179443,0.966187,-0.244141,-1.52588,28.1372,0.031,-0.004,-57.45,0.00802612,0.00816345,0,0,0,0,0,40.72,991.794,2223403
-0.081665,0.0389404,1.05615,-2.74658,0.183105,26.123,-0.07,-0.061,-57.86,0.00801086,0.00822449,0,0,0,0,0,40.72,991.812,2223418
0.0785522,0.0577393,1.01855,-2.56348,-0.854492,29.6631,-0.002,0.084,-58.29,0.00796509,0.00831604,0,0,0,0,0,40.72,991.833,2223433
-0.0371704,-0.060791,1.01422,-2.0752,-0.610352,28.1982,0.038,-0.076,-59.14,0.00798035,0.00860596,0,0,0,0,0,40.72,991.852,2223463
0.05896,0.0535278,1.00092,-0.610352,-0.610352,29.8462,-0.01,0.065,-59.59,0.00802612,0.00872803,0,0,0,0,0,40.72,991.872,2223478
-0.0224609,0.00317383,0.969788,0.0610352,-0.183105,31.9214,-0.007,-0.03,-60.06,0.00805664,0.00888062,0,0,0,0,0,40.72,991.892,2223493
0.0397949,-0.0591431,1.03741,-0.549316,-0.427246,30.0903,0.078,-0.007,-60.99,0.00798035,0.00901794,0,0,0,0,0,40.72,991.912,2223523
0.0317993,0.050354,1.03796,-1.40381,-0.488281,33.2642,-0.022,0.038,-61.48,0.00798035,0.0090332,0,0,0,0,0,40.72,991.933,2223538
0.0938721,-0.0800781,1.03326,-1.77002,-0.610352,31.6162,0.12,0.033,-62.47,0.00764465,0.00917053,0,0,0,0,0,40.72,991.959,2223569
0.000305176,0.0588379,0.993652,-0.793457,-1.09863,31.4941,-0.046,0.014,-62.95,0.00749207,0.0092926,0,0,0,0,0,40.72,991.973,2223583
0.0248413,-0.0285645,0.980286,-1.89209,-0.671387,33.1421,0.041,-0.003,-63.44,0.00733948,0.00941467,0,0,0,0,0,40.72,991.992,2223598
0.00012207,-0.0114136,0.999146,-0.488281,0.549316,31.8603,0.015,-0.017,-63.93,0.00721741,0.00941467,0,0,0,0,0,40.72,992.012,2223613
0.0739136,0.103577,1.03455,0.488281,0.305176,33.5083,-0.057,0.097,-64.92,0.00695801,0.00952148,0,0,0,0,0,40.72,992.032,2223643
-0.0244751,-0.100586,0.949768,1.09863,-0.793457,33.6914,0.086,-0.076,-65.42,0.00682068,0.0096283,0,0,0,0,0,40.72,992.056,2223658
0.00305176,0.105591,1.039,1.83105,1.09863,34.729,-0.089,0.032,-65.94,0.00669861,0.00971985,0,0,0,0,0,40.72,992.073,2223673
0.0184326,-0.0541992,0.953552,0.549316,-0.12207,36.0107,0.063,-0.015,-66.99,0.00639343,0.00979614,0,0,0,0,0,40.72,992.093,2223703
-0.0614624,0.0389404,0.944214,0.183105,0.183105,34.3018,-0.053,-0.053,-67.52,0.00627136,0.00976562,0,0,0,0,0,40.72,992.112,2223718
0.0123291,0.00695801,1.00751,-1.83105,0.427246,35.2173,0.004,0.002,-68.03,0.00611877,0.00970459,0,0,0,0,0,40.72,992.133,2223733
0.0106201,-0.0147095,1.03412,-0.549316,-0.976562,34.9731,0.024,-0.007,-69.07,0.00598145,0.0096283,0,0,0,0,0,40.72,992.153,2223763
0.0372314,0.0307617,1.01813,0,-1.83105,33.4473,-0.009,0.033,-69.58,0.00595093,0.00964355,0,0,0,0,0,40.72,992.174,2223778
-0.00360107,-0.0055542,1.02112,-0.12207,-0.366211,35.2173,0.01,-0.018,-70.1,0.00595093,0.00967407,0,0,0,0,0,40.72,992.193,2223793
0.0275879,-0.00518799,1.05731,1.83105,0.427246,33.7524,0.021,0.01,-71.11,0.00610352,0.00959778,0,0,0,0,0,40.72,992.213,2223823
0.0158691,0.0246582,1.03363,2.13623,0.427246,31.7993,-0.01,0.009,-71.6,0.00621033,0.009552,0,0,0,0,0,40.72,992.233,2223838
0.0326538,0.0316772,0.992371,1.46484,-0.671387,31.9824,-0.011,0.027,-72.06,0.00621033,0.00952148,0,0,0,0,0,40.72,992.255,2223853
-0.00915527,-0.0585938,0.996277,-0.183105,-0.549316,30.3955,0.062,-0.038,-73.01,0.00631714,0.00944519,0,0,0,0,0,40.72,992.273,2223883
-0.00927734,0.0881348,1.03082,-1.40381,1.64795,33.02,-0.078,0.002,-73.49,0.00639343,0.0093689,0,0,0,0,0,40.72,992.294,2223899
-0.0118408,0.0181274,1.01208,-1.15967,0.793457,32.8979,-0.011,-0.019,-73.98,0.00640869,0.00927734,0,0,0,0,0,40.72,992.314,2223914
-0.0301514,-0.0524292,1.00464,0.427246,1.2207,34.9121,0.052,-0.054,-75.01,0.00653076,0.00924683,0,0,0,0,0,40.72,992.333,2223944
0.0319824,0.0275269,1.06049,0.793457,0.0610352,35.7666,-0.009,0.025,-75.54,0.00665283,0.00918579,0,0,0,0,0,40.72,992.353,2223959
-0.0209961,0.00695801,0.999573,0.915527,0.244141,36.0718,-0.002,-0.03,-76.08,0.00665283,0.00914001,0,0,0,0,0,40.72,992.373,2223974
0.0387573,0.010498,1.03168,0.915527,-0.732422,35.4614,0.009,0.027,-77.16,0.00660706,0.00901794,0,0,0,0,0,40.72,992.398,2224004
-0.0241699,-0.0640869,1.01276,-0.732422,-1.58691,36.8652,0.067,-0.049,-77.71,0.00662231,0.00894165,0,0,0,0,0,40.72,992.413,2224019
-0.00402832,0.0889282,0.961304,0.0610352,-0.854492,36.6211,-0.077,0.001,-78.26,0.00662231,0.0088501,0,0,0,0,0,40.72,992.433,2224034
0.0476074,-0.0413208,1.02155,-1.28174,-1.64795,35.7056,0.059,0.026,-79.36,0.00653076,0.00862122,0,0,0,0,0,40.72,992.453,2224064
-0.0169067,0.0778809,1.03687,-2.31934,-0.183105,36.1328,-0.069,-0.016,-79.9,0.00650024,0.0085144,0,0,0,0,0,40.72,992.473,2224079
-0.00805664,0.0344238,0.985657,-0.793457,-0.305176,35.1562,-0.025,-0.015,-80.44,0.00639343,0.0085144,0,0,0,0,0,40.72,992.494,2224094
0.0177612,0.0286865,1.01703,-0.305176,-1.46484,33.8745,-0.015,0.007,-81.48,0.00610352,0.00854492,0,0,0,0,0,40.73,992.514,2224124
0.0195923,0.0492554,1.0202,-1.40381,-0.976562,32.7148,-0.036,0.011,-81.98,0.00592041,0.00857544,0,0,0,0,0,40.73,992.532,2224139
0.0562744,-0.0150146,0.950806,-1.83105,-1.70898,32.5317,0.031,0.039,-82.46,0.00572205,0.00865173,0,0,0,0,0,40.73,992.553,2224154
0.0422974,0.0491333,1.08008,-1.34277,0.244141,33.4473,-0.034,0.031,-83.47,0.00527954,0.0087738,0,0,0,0,0,40.73,992.574,2224184
0.0450439,0.000976562,0.973633,-0.488281,-2.13623,31.7383,0.012,0.03,-83.95,0.00500488,0.00888062,0,0,0,0,0,40.73,992.593,2224199
0.00897217,0.0675659,1.01837,-1.28174,-1.0376,35.2783,-0.057,0,-84.48,0.00471497,0.00901794,0,0,0,0,0,40.73,992.613,2224214
0.0836792,0.0221558,0.999573,-0.610352,-0.915527,35.4614,-0.007,0.07,-85.52,0.00404358,0.00920105,0,0,0,0,0,40.73,992.633,2224244
-0.0405273,0.050354,1.03278,-1.09863,-0.305176,37.6587,-0.044,-0.052,-86.07,0.00367737,0.00930786,0,0,0,0,0,40.73,992.653,2224259
0.057251,0.0692139,1.00806,-1.34277,-2.0752,38.8184,-0.058,0.046,-86.65,0.00325012,0.00941467,0,0,0,0,0,40.73,992.673,2224274
0.0437622,0.0443726,1.03888,-2.0752,-1.77002,46.1426,-0.036,0.029,-87.92,0.00227356,0.00961304,0,0,0,0,0,40.73,992.693,2224304
0.00323486,-0.012207,1.03864,-2.44141,-1.64795,47.7905,0.018,-0.014,-88.63,0.00175476,0.00970459,0,0,0,0,0,40.73,992.715,2224319
0.0414429,0.0281982,1.00787,-1.09863,-1.77002,50.7812,-0.022,0.023,-90.12,0.000488281,0.00973511,0,0,0,0,0,40.73,992.736,2224349
0.0787354,0.020813,0.973877,-1.28174,-1.70898,54.5044,-0.017,0.06,-90.92,-0.000198364,0.0098114,0,0,0,0,0,40.73,992.754,2224364
-0.010376,-0.0512085,1.02838,-1.95312,-1.28174,56.8237,0.055,-0.027,-91.76,-0.000869751,0.00990295,0,0,0,0,0,40.73,992.774,2224379
0.0429077,-0.0783081,0.945679,-1.64795,-2.31934,61.3403,0.079,0.028,-92.66,-0.00146484,0.0100098,0,0,0,0,0,40.73,992.793,2224394
0.0214233,0.0316772,1.02466,-0.854492,-1.28174,64.5752,-0.029,-0.001,-94.58,-0.00238037,0.0101318,0,0,0,0,0,40.73,992.813,2224424
0.0222168,-0.0535278,1.04706,-2.56348,-0.671387,65.2466,0.053,0.006,-95.55,-0.00280762,0.0101318,0,0,0,0,0,40.73,992.832,2224439
0.027832,0.0435791,0.984192,-1.52588,0.0610352,65.918,-0.043,0.002,-96.53,-0.00323486,0.0101318,0,0,0,0,0,40.73,992.853,2224454
-0.0544434,-0.0230713,1.11444,-0.488281,0.0610352,68.4204,0.033,-0.074,-98.55,-0.00421143,0.0101776,0,0,0,0,0,40.73,992.872,2224484
0.112549,-0.0292358,0.916382,-0.610352,-2.62451,67.8101,0.012,0.095,-99.58,-0.00466919,0.0101929,0,0,0,0,0,40.73,992.892,2224499
0.0473022,0.00872803,1.02673,-2.0752,-1.83105,71.167,-0.015,0.022,-100.62,-0.00466919,0.0102997,0,0,0,0,0,40.73,992.912,2224514
0.0788574,0.0127563,0.989624,-1.15967,-2.86865,73.8525,-0.028,0.05,-102.81,-0.00468445,0.0105286,0,0,0,0,0,40.73,992.932,2224544
0.053894,-0.0410767,1.05334,-0.671387,-1.09863,74.8901,0.028,0.036,-103.93,-0.00468445,0.0107117,0,0,0,0,0,40.73,992.952,2224559
0.0682373,0.0129395,0.940491,-0.671387,-2.13623,76.9043,-0.029,0.038,-105.08,-0.00469971,0.0109558,0,0,0,0,0,40.73,992.972,2224574
0.0391235,-0.0436401,1.05536,-0.549316,0.244141,79.4678,0.031,0.022,-106.26,-0.00469971,0.0112305,0,0,0,0,0,40.73,992.992,2224589
0.0842896,0.0371704,0.977722,1.64795,-0.854492,82.5806,-0.06,0.042,-108.7,-0.00485229,0.0119019,0,0,0,0,0,40.73,993.012,2224619
0.0574341,-0.0285034,1.11383,0.427246,1.40381,84.1675,0.009,0.034,-109.96,-0.00500488,0.0122986,0,0,0,0,0,40.73,993.032,2224634
0.0411377,0.0548706,1.00403,-0.610352,-0.732422,91.0644,-0.065,-0.009,-112.61,-0.00544739,0.013092,0,0,0,0,0,40.73,993.053,2224664
0.071106,-0.18219,0.983765,0.305176,-2.50244,92.6514,0.139,0.113,-113.99,-0.00566101,0.0135498,0,0,0,0,0,40.73,993.072,2224679
-0.00390625,-0.0320435,0.956604,-0.0610352,-2.68555,95.1538,0.033,-0.015,-115.4,-0.00576782,0.0140686,0,0,0,0,0,40.73,993.092,2224694
0.0358887,-0.0484009,1.03961,-1.34277,-1.95312,98.0835,0.028,0.025,-118.32,-0.0058136,0.0151672,0,0,0,0,0,40.73,993.113,2224724
0.0759277,-0.0811768,0.982422,-0.610352,-2.80762,98.8769,0.035,0.078,-119.8,-0.00578308,0.0158081,0,0,0,0,0,40.73,993.134,2224739
0.0744629,0.0732422,1.02301,-0.732422,-1.95312,100.464,-0.097,-0.004,-121.31,-0.00579834,0.0164948,0,0,0,0,0,40.73,993.153,2224754
0.0986328,0.0581055,1.00104,-0.244141,-1.46484,99.4873,-0.099,0.017,-124.31,-0.00617981,0.0171814,0,0,0,0,0,40.73,993.179,2224784
0.0718994,-0.0148926,0.984802,0.183105,-0.976562,98.938,-0.024,0.036,-125.8,-0.00653076,0.0172272,0,0,0,0,0,40.73,993.195,2224799
0.0407715,-0.0519409,1.03546,-0.488281,1.0376,100.281,0.022,0.031,-127.3,-0.00686646,0.0173035,0,0,0,0,0,40.73,993.214,2224814
0.0532837,0.0273438,0.968994,-0.366211,-1.52588,104.309,-0.05,-0.009,-130.39,-0.00772095,0.0176086,0,0,0,0,0,40.73,993.233,2224844
0.0740356,-0.0519409,1.04071,0.244141,-0.976562,106.262,-0.004,0.055,-131.96,-0.00820923,0.017807,0,0,0,0,0,40.73,993.252,2224859
0.0404053,-0.0457764,1.04358,-0.488281,-1.28174,109.253,0.012,0.025,-133.59,-0.00820923,0.0180664,0,0,0,0,0,40.73,993.272,2224874
0.020874,0.0299683,1.00439,-0.671387,-1.83105,109.924,-0.028,-0.042,-136.89,-0.00823975,0.018631,0,0,0,0,0,40.73,993.292,2224904
0.102356,-0.0981445,1.03619,-1.46484,-2.01416,111.023,-0.003,0.105,-138.54,-0.00830078,0.0189514,0,0,0,0,0,40.73,993.313,2224919
0.0614014,0.0523071,1.02271,-0.732422,-2.62451,111.45,-0.071,-0.037,-140.22,-0.00839233,0.0193329,0,0,0,0,0,40.73,993.334,2224934
0.0840454,-0.069397,0.998413,-0.976562,-1.77002,112.061,-0.015,0.069,-143.56,-0.00886536,0.0199738,0,0,0,0,0,40.73,993.352,2224964
0.102417,-0.0115967,1.08142,-0.732422,0.488281,111.938,-0.065,0.028,-145.23,-0.00920105,0.0203705,0,0,0,0,0,40.73,993.373,2224979
0.0657349,-0.0010376,1.01556,-0.366211,-1.0376,112,-0.042,-0.001,-146.92,-0.00959778,0.0207825,0,0,0,0,0,40.73,993.393,2224994
0.0330811,0.0211182,1.12,-0.915527,1.77002,113.22,-0.023,-0.044,-150.28,-0.0107117,0.0215302,0,0,0,0,0,40.73,993.412,2225024
0.0950317,-0.0547485,1.03302,-0.976562,0,112,-0.043,0.053,-151.96,-0.0113678,0.0218964,0,0,0,0,0,40.73,993.436,2225039
0.0344238,-0.00177002,0.919128,-0.732422,-2.19727,112.061,-0.016,-0.018,-153.64,-0.0120697,0.0222778,0,0,0,0,0,40.73,993.453,2225054
0.0858154,-0.0598145,1.05188,-0.915527,-0.183105,111.694,-0.039,0.048,-156.99,-0.0135498,0.0229645,0,0,0,0,0,40.73,993.474,2225084
0.104492,0.0213623,1.01868,0.854492,-1.46484,112,-0.088,-0.02,-158.66,-0.0144043,0.0233307,0,0,0,0,0,40.73,993.493,2225099
0.00256348,0.0175171,0.920288,-0.488281,-2.31934,111.328,0.007,-0.05,-160.34,-0.0153046,0.0236511,0,0,0,0,0,40.73,993.513,2225114
0.0828857,0.0186157,1.08691,-0.671387,-0.854492,112.488,-0.065,-0.036,-163.7,-0.0171967,0.0241852,0,0,0,0,0,40.72,993.538,2225144
0.0593872,0.00793457,0.981934,-0.549316,-1.89209,112.427,-0.041,-0.03,-165.39,-0.0182495,0.0243988,0,0,0,0,0,40.72,993.553,2225159
0.0344849,0.0327759,0.953308,-0.976562,-1.77002,112.854,-0.022,-0.06,-167.08,-0.0193481,0.0245361,0,0,0,0,0,40.72,993.574,2225174
0.0548096,-0.00994873,1.01587,-0.732422,-0.976562,113.464,-0.03,-0.019,-170.48,-0.0217285,0.0246124,0,0,0,0,0,40.72,993.593,2225204
0.0662842,0.0115967,0.955383,-0.671387,-3.05176,112.976,-0.046,-0.039,-172.18,-0.0230103,0.0245819,0,0,0,0,0,40.72,993.613,2225219
0.0446167,0.00518799,1.01752,-0.732422,-1.40381,112.915,-0.021,-0.039,-173.87,-0.0243378,0.0244904,0,0,0,0,0,40.72,993.633,2225234
0.0722656,-0.0617065,1.02258,-1.58691,-0.915527,112.61,-0.044,0.026,-177.26,-0.0271301,0.0241241,0,0,0,0,0,40.72,993.653,2225264
0.0534668,0.0397949,0.973938,-1.40381,-2.13623,112.183,-0.029,-0.075,-178.95,-0.0286255,0.02388,0,0,0,0,0,40.72,993.673,2225279
0.0461426,0.0411377,1.05457,-0.793457,-0.976562,111.816,-0.018,-0.081,179.36,-0.0301361,0.0235291,0,0,0,0,0,40.72,993.695,2225295
0.0845947,0.0103149,0.985535,-1.2207,-1.77002,111.572,-0.056,-0.053,176.02,-0.0333405,0.0225983,0,0,0,0,0,40.72,993.713,2225325
0.0668945,0.0172729,0.968567,-1.46484,-2.0752,111.145,-0.037,-0.059,174.34,-0.0350494,0.0220337,0,0,0,0,0,40.72,993.733,2225340
0.0315552,-0.00378418,1.0329,-1.52588,-0.549316,112.671,-0.001,-0.038,172.67,-0.0367889,0.0213928,0,0,0,0,0,40.72,993.753,2225355
0.0725098,0.00836182,0.998535,-1.09863,-3.05176,111.206,-0.038,-0.058,169.31,-0.04039,0.019989,0,0,0,0,0,40.72,993.773,2225385
-0.00933838,0.0125122,0.965149,-1.09863,-2.56348,111.267,0.042,-0.045,167.64,-0.0422211,0.0191803,0,0,0,0,0,40.72,993.793,2225400
0.0852661,-0.110535,0.987366,-1.2207,-2.68555,111.694,-0.077,0.05,165.97,-0.0440674,0.0183868,0,0,0,0,0,40.72,993.813,2225415
0.0106812,-0.0405273,1.01166,-1.46484,-3.479,110.168,0.012,0,162.65,-0.0480194,0.0167542,0,0,0,0,0,40.72,993.835,2225445
0.0455933,-0.00183105,0.980774,-1.83105,-2.68555,110.229,-0.008,-0.047,161,-0.0500183,0.0158997,0,0,0,0,0,40.72,993.853,2225460
0.0769043,-0.0799561,1.04407,-2.44141,-0.12207,110.474,-0.062,0.011,159.35,-0.052063,0.0150146,0,0,0,0,0,40.72,993.873,2225475
0.064209,0.012207,0.936584,-1.89209,-2.99072,109.558,-0.017,-0.069,156.04,-0.056366,0.0130615,0,0,0,0,0,40.72,993.893,2225505
0.00305176,-0.0131226,1.05988,-2.80762,0.183105,111.694,0.032,-0.025,154.38,-0.0585327,0.0119781,0,0,0,0,0,40.72,993.912,2225520
0.126038,0.00842285,1.05823,-3.54004,-0.427246,111.267,-0.066,-0.101,152.71,-0.0607147,0.0108032,0,0,0,0,0,40.72,993.932,2225535
0.0975952,-0.000366211,0.9599,-3.11279,-1.46484,110.84,-0.046,-0.08,151.05,-0.0629883,0.00950623,0,0,0,0,0,40.72,993.952,2225550
0.0257568,0.0135498,1.06305,-4.02832,0.488281,110.657,0.03,-0.062,147.72,-0.0674591,0.00672913,0,0,0,0,0,40.72,993.972,2225580
0.1521,-0.00158691,1.08447,-4.45557,-0.793457,110.535,-0.08,-0.121,146.07,-0.0696869,0.00518799,0,0,0,0,0,40.72,993.992,2225595
-0.0169678,-0.0274048,0.981934,-5.12695,-1.09863,110.84,0.041,-0.002,142.75,-0.074234,0.0017395,0,0,0,0,0,40.72,994.023,2225625
0.0552368,-0.0236816,1.06421,-6.04248,-0.732422,111.206,-0.008,-0.053,141.09,-0.0764618,-6.10352e-05,0,0,0,0,0,40.72,994.034,2225640
0.117432,0.0236206,1.02435,-6.16455,-2.31934,111.938,-0.024,-0.131,139.41,-0.0787201,-0.00198364,0,0,0,0,0,40.72,994.052,2225655
-0.000976562,-0.0455933,1.00818,-7.87353,-1.83105,113.281,0.02,-0.003,136.06,-0.083252,-0.006073,0,0,0,0,0,40.72,994.073,2225685
0.111267,-0.0854492,1.14038,-7.50732,-2.99072,113.098,-0.077,-0.062,134.36,-0.0855408,-0.00817871,0,0,0,0,0,40.72,994.099,2225700
0.109863,-0.0379639,1.00598,-5.12695,-4.69971,111.755,-0.047,-0.091,132.67,-0.0879211,-0.0103912,0,0,0,0,0,40.72,994.112,2225715
0.036438,0.013855,0.889526,-2.38037,-5.5542,111.572,0.036,-0.067,131,-0.0903168,-0.0127106,0,0,0,0,0,40.72,994.133,2225730
0.0883179,0.0587769,1.06641,2.50244,-4.3335,111.877,0.053,-0.14,127.62,-0.095047,-0.0176086,0,0,0,0,0,40.72,994.153,2225760
0.0252075,0.00805664,0.976807,1.40381,-5.24902,111.45,0.047,-0.055,125.94,-0.0973358,-0.0202484,0,0,0,0,0,40.72,994.172,2225775
-0.00408936,-0.124023,0.986511,-0.244141,-3.78418,113.281,-0.042,0.043,124.25,-0.0996246,-0.0229034,0,0,0,0,0,40.72,994.193,2225790
0.059021,-0.0964966,1.01019,-1.0376,-3.90625,113.525,-0.051,-0.028,120.83,-0.104279,-0.0283813,0,0,0,0,0,40.72,994.212,2225820
0.0701904,-0.00244141,0.945496,0.671387,-4.45557,114.014,0.021,-0.084,119.11,-0.106644,-0.0312347,0,0,0,0,0,40.72,994.236,2225835
0.0432129,-0.0411987,1.03943,2.56348,-4.3335,114.258,0.008,-0.043,113.94,-0.113861,-0.0403137,0,0,0,0,0,40.72,994.272,2225880
-0.00256348,-0.144043,1.00757,0.793457,-4.45557,114.258,-0.071,0.038,112.23,-0.116348,-0.0433807,0,0,0,0,0,40.72,994.292,2225895
0.0930176,-0.0861206,1.15601,-1.2207,-2.74658,112.976,-0.039,-0.077,108.8,-0.121384,-0.0495911,0,0,0,0,0,40.72,994.313,2225925
0.0454102,0.0410156,0.983459,-0.976562,-4.15039,111.145,0.086,-0.069,107.13,-0.123871,-0.0528259,0,0,0,0,0,40.72,994.333,2225940
0.00970459,-0.0367432,0.905029,-0.915527,-4.82178,111.206,0.017,-0.01,105.45,-0.126282,-0.0561218,0,0,0,0,0,40.72,994.354,2225955
0.0427246,-0.09375,1.09253,0.549316,-1.58691,110.046,-0.032,-0.032,102.12,-0.126297,-0.0628052,0,0,0,0,0,40.72,994.373,2225985
0.0986938,-0.062561,0.973755,-0.976562,-5.24902,109.497,-0.019,-0.093,100.47,-0.126358,-0.0662537,0,0,0,0,0,40.72,994.394,2226000
0.0120239,0.03479,0.975708,-1.83105,-3.66211,111.023,0.092,-0.023,98.81,-0.126358,-0.0697937,0,0,0,0,0,40.72,994.414,2226015
0.093811,-0.0435791,1.05566,-1.0376,-2.13623,110.901,0.01,-0.093,97.14,-0.126297,-0.0733948,0,0,0,0,0,40.72,994.432,2226030
-0.0132446,0.026062,0.946594,-0.488281,-3.90625,110.84,0.085,0.008,93.81,-0.126022,-0.0809326,0,0,0,0,0,40.72,994.456,2226060
0.0332642,0.0435791,0.97821,-1.70898,-2.2583,110.901,0.102,-0.036,92.14,-0.125717,-0.0847473,0,0,0,0,0,40.72,994.473,2226075
0.0310669,-0.252991,1.08142,-1.77002,-0.183105,111.938,-0.186,-0.035,88.79,-0.125305,-0.0926514,0,0,0,0,0,40.72,994.494,2226105
0.0454712,0.201111,0.821777,0.244141,-4.5166,111.267,0.252,-0.034,87.13,-0.125168,-0.0966949,0,0,0,0,0,40.72,994.513,2226120
0.0211182,0.0140991,1.07507,-1.28174,-1.70898,112.549,0.08,-0.016,85.44,-0.124786,-0.100784,0,0,0,0,0,40.72,994.533,2226135
0.0709229,-0.00756836,0.940796,-1.2207,-3.479,111.816,0.059,-0.066,82.07,-0.123734,-0.109131,0,0,0,0,0,40.7,994.553,2226165
0.02771,0.00427246,1.02417,-1.15967,-2.68555,112.793,0.07,-0.02,80.38,-0.123077,-0.113403,0,0,0,0,0,40.7,994.572,2226180
0.0158691,-0.085144,0.986389,-0.183105,-2.31934,112.976,-0.021,-0.024,78.68,-0.122375,-0.117722,0,0,0,0,0,40.7,994.593,2226195
0.0141602,-0.0999756,1.01031,-0.0610352,-3.60107,112.549,-0.034,-0.028,75.3,-0.120972,-0.126526,0,0,0,0,0,40.7,994.612,2226225
-0.00445557,-0.0755615,0.927551,-1.0376,-4.08936,112.427,-0.02,-0.006,73.61,-0.120285,-0.130981,0,0,0,0,0,40.7,994.633,2226240
0.0559692,0.0045166,1.04211,-0.610352,-2.13623,112.976,0.081,-0.038,71.91,-0.119568,-0.135468,0,0,0,0,0,40.7,994.653,2226255
0.0194092,-0.0640259,0.937561,-0.732422,-4.82178,111.755,0,-0.027,68.54,-0.117889,-0.144714,0,0,0,0,0,40.7,994.673,2226285
0.00457764,-0.10144,1.04645,-0.549316,-1.70898,113.342,-0.033,-0.026,66.85,-0.11705,-0.149429,0,0,0,0,0,40.7,994.693,2226300
0.0430298,-0.0797729,1.01715,-1.15967,-1.83105,112.244,0,-0.054,65.17,-0.116241,-0.15419,0,0,0,0,0,40.7,994.713,2226315
0.0435791,-0.0904541,0.979797,-0.793457,-4.76074,113.342,-0.007,-0.061,61.78,-0.114349,-0.163895,0,0,0,0,0,40.7,994.734,2226345
0.0425415,-0.0734253,1.01617,-1.34277,-3.23486,113.647,0.009,-0.051,60.08,-0.113373,-0.168869,0,0,0,0,0,40.7,994.753,2226360
0.020813,0.0167847,1.05518,1.09863,-1.2207,112.488,0.078,0.014,58.38,-0.112335,-0.173859,0,0,0,0,0,40.7,994.773,2226375
-0.0166626,-0.176758,0.972778,-0.732422,-5.43213,113.708,-0.106,-0.064,54.97,-0.109329,-0.183563,0,0,0,0,0,40.7,994.793,2226405
0.0202637,0.0373535,1.04456,-1.40381,-0.732422,112.732,0.091,0.031,53.27,-0.107727,-0.188416,0,0,0,0,0,40.7,994.813,2226420
0.074707,0.00640869,1.02502,-1.46484,-2.92969,113.77,0.099,-0.028,51.57,-0.105988,-0.193253,0,0,0,0,0,40.7,994.833,2226435
0.0324707,-0.0102539,0.965454,-1.89209,-3.05176,113.281,0.057,-0.004,48.16,-0.102158,-0.203079,0,0,0,0,0,40.7,994.853,2226465
0.031311,0.0239258,1.00378,-1.34277,-1.89209,113.403,0.082,0.022,46.46,-0.100082,-0.207993,0,0,0,0,0,40.7,994.875,2226480
0.109741,-0.0682373,1.13684,-0.976562,-1.52588,114.197,0.078,-0.092,44.75,-0.0979156,-0.212952,0,0,0,0,0,40.7,994.894,2226495
0.0101318,-0.0521851,0.94635,-1.0376,-3.72314,114.441,0.011,-0.016,41.33,-0.0935822,-0.223175,0,0,0,0,0,40.7,994.914,2226525
0.045105,0.00769043,1.01459,-1.09863,-1.89209,112.671,0.079,0.009,39.63,-0.0913696,-0.228317,0,0,0,0,0,40.7,994.938,2226540
0.104431,-0.069397,1.10455,-0.915527,-2.50244,110.718,0.081,-0.083,37.96,-0.0890656,-0.233521,0,0,0,0,0,40.7,994.955,2226555
0.0109253,-0.067749,1.01678,-3.41797,-2.31934,107.605,0.007,-0.027,34.7,-0.0841827,-0.244095,0,0,0,0,0,40.7,994.973,2226585
0.0435181,-0.0222778,1.07123,-2.31934,-1.46484,104.919,0.062,-0.005,33.12,-0.081665,-0.24942,0,0,0,0,0,40.7,994.999,2226600
0.104431,0.0136108,1.00134,-1.0376,-3.35693,102.905,0.13,-0.008,31.56,-0.0790253,-0.254761,0,0,0,0,0,40.7,995.013,2226615
0.0251465,0.0158081,1.01154,-0.183105,-2.2583,100.159,0.062,0.038,28.51,-0.0735016,-0.26535,0,0,0,0,0,40.7,995.035,2226645
0.0663452,-0.0738525,1.12408,0.793457,-2.74658,99.8535,0.06,-0.055,27.01,-0.0706329,-0.270645,0,0,0,0,0,40.7,995.054,2226660
-0.106018,-0.243958,1.05896,-1.2207,-0.488281,100.891,-0.169,-0.135,25.52,-0.0678406,-0.276062,0,0,0,0,0,40.71,995.074,2226675
0.00396729,-0.0778198,0.985718,-0.12207,-2.01416,100.281,0,-0.035,24.02,-0.065155,-0.281586,0,0,0,0,0,40.71,995.093,2226691
0.039856,0.0355225,0.947571,0.976562,-4.21143,95.8862,0.075,0.053,21.09,-0.0594177,-0.292648,0,0,0,0,0,40.71,995.113,2226721
0.0285645,-0.0282593,0.965027,-0.610352,-3.72314,95.3369,0.041,0,19.66,-0.0563965,-0.298111,0,0,0,0,0,40.71,995.135,2226736
0.0422974,0.0192261,1.02795,-0.671387,-3.90625,92.5903,0.069,0.044,16.83,-0.0500183,-0.308777,0,0,0,0,0,40.71,995.154,2226766
0.0157471,-0.0227051,1.02142,-0.183105,-2.19727,91.9189,0.03,0.011,15.45,-0.0466919,-0.314026,0,0,0,0,0,40.71,995.173,2226781
-0.00927734,-0.086792,1.01001,-1.0376,-1.83105,90.271,-0.008,-0.045,11.35,-0.0364075,-0.314087,0,0,0,0,0,40.71,995.212,2226826
0.0115356,-0.012207,1.00671,0.244141,-2.56348,89.2334,0.025,0.023,10.01,-0.0329285,-0.314148,0,0,0,0,0,40.71,995.234,2226841
0.0222778,-0.107971,1.01166,-0.244141,-2.99072,89.9048,0.02,-0.072,8.66,-0.0294189,-0.31424,0,0,0,0,0,40.71,995.254,2226856
0.0346069,0.00372314,0.984314,-0.244141,-3.84521,88.0737,0.047,0.036,6,-0.0223389,-0.31456,0,0,0,0,0,40.71,995.279,2226886
0.0400391,0.145508,0.988953,0.183105,-3.66211,84.5947,0.063,0.177,4.71,-0.0187073,-0.314575,0,0,0,0,0,40.71,995.294,2226901
0.0405884,-0.0604248,1.01202,-0.732422,-2.86865,80.0171,0.047,-0.026,3.5,-0.0149994,-0.314484,0,0,0,0,0,40.71,995.317,2226916
0.0317993,0.0386963,1.11035,-0.549316,-2.01416,74.646,0.041,0.077,1.19,-0.00738525,-0.313965,0,0,0,0,0,40.71,995.337,2226946
0.0611572,-0.03302,1.02197,-0.793457,-1.64795,73.1201,0.068,0.002,0.08,-0.00344849,-0.313568,0,0,0,0,0,40.71,995.352,2226961
0.0482788,0.0324097,0.975342,1.40381,-1.95312,73.4253,0.053,0.067,-1.01,0.000534058,-0.313126,0,0,0,0,0,40.71,995.372,2226976
0.0291138,0.0640259,0.961121,-0.183105,-2.38037,70.0073,0.03,0.097,-3.16,0.00866699,-0.311935,0,0,0,0,0,40.71,995.393,2227006
0.0432129,0.00628662,1.00195,-0.793457,-1.15967,69.3359,0.046,0.043,-4.21,0.0128021,-0.311188,0,0,0,0,0,40.71,995.414,2227021
0.0309448,0.0639648,0.956177,-1.15967,-2.13623,67.3218,0.028,0.098,-5.23,0.016983,-0.310333,0,0,0,0,0,40.71,995.437,2227036
0.0430908,0.244629,0.981628,-1.28174,-3.05176,66.5283,0.019,0.28,-6.24,0.0211945,-0.309219,0,0,0,0,0,40.71,995.454,2227051
0.0197144,0.0526733,0.990234,-1.46484,-1.28174,60.0586,0.013,0.087,-8.14,0.0254364,-0.306732,0,0,0,0,0,40.71,995.473,2227081
-0.00714111,0.0137329,1.06152,0,-1.09863,58.5327,-0.007,0.046,-9.02,0.0254364,-0.305389,0,0,0,0,0,40.71,995.493,2227096
0.0362549,0.041626,1.02856,2.13623,-1.28174,55.9082,0.029,0.079,-9.88,0.0254517,-0.30397,0,0,0,0,0,40.71,995.513,2227111
0.0147705,-0.00866699,0.988403,-0.244141,-1.95312,58.8989,0.015,0.024,-11.58,0.0256195,-0.301117,0,0,0,0,0,40.71,995.534,2227141
0.00134277,-0.0307007,1.02332,-0.732422,-1.15967,57.6172,0.007,0,-12.45,0.0256195,-0.299698,0,0,0,0,0,40.71,995.552,2227156
0.0427246,0.0310669,1.00061,0.488281,-0.854492,56.6406,0.033,0.069,-13.31,0.0256348,-0.298233,0,0,0,0,0,40.71,995.572,2227171
0.0128784,0.0281372,1.0119,-1.58691,-0.854492,50.7202,0.003,0.059,-14.94,0.0257721,-0.295227,0,0,0,0,0,40.7,995.593,2227201
-0.00561523,0.00610352,1.02795,-2.50244,-0.427246,50.7812,-0.009,0.034,-15.7,0.0257721,-0.293655,0,0,0,0,0,40.7,995.613,2227216
0.00299072,0.0158081,1.03052,-1.09863,0,47.2412,-0.003,0.045,-16.42,0.0257721,-0.292023,0,0,0,0,0,40.7,995.634,2227231
0.00744629,0.00994873,1.00806,-0.427246,-0.305176,45.166,0.001,0.039,-17.8,0.0257721,-0.288544,0,0,0,0,0,40.7,995.653,2227261
-0.0102539,0.0493164,1.03583,0.0610352,0.183105,43.2129,-0.028,0.072,-18.47,0.0257568,-0.286682,0,0,0,0,0,40.7,995.672,2227276
0.0326538,-0.0278931,1.01373,-1.46484,-0.0610352,40.5884,0.037,0.012,-19.08,0.0257416,-0.28476,0,0,0,0,0,40.7,995.692,2227291
0.00384521,0.0360107,1.01178,-2.0752,-0.305176,40.3442,-0.012,0.063,-20.32,0.0257568,-0.280823,0,0,0,0,0,40.7,995.713,2227321
-0.0109253,-0.0111084,1.05963,-1.95312,0.305176,41.687,-0.01,0.015,-20.94,0.0257568,-0.278763,0,0,0,0,0,40.7,995.733,2227336
0.0174561,-0.0299072,0.994324,-2.38037,-0.732422,42.6636,0.023,0.006,-21.58,0.0257721,-0.278763,0,0,0,0,0,40.7,995.753,2227351
0.00305176,-0.03302,1.03271,-4.5166,-0.549316,34.1797,0.009,0,-22.73,0.0258331,-0.278763,0,0,0,0,0,40.7,995.772,2227381
0.0687866,0.174316,1.0484,-3.05176,-0.793457,32.3486,-0.011,0.217,-23.23,0.0258331,-0.27861,0,0,0,0,0,40.7,995.794,2227396
-0.0391846,-0.0214844,0.9823,-0.671387,-0.366211,30.0903,-0.032,-0.007,-23.69,0.0258026,-0.27832,0,0,0,0,0,40.7,995.812,2227411
-0.0390625,-0.0622559,1.00494,-0.0610352,-0.244141,25.5737,-0.015,-0.045,-24.49,0.0257111,-0.277557,0,0,0,0,0,40.7,995.833,2227441
-0.00915527,0.0368652,0.999146,-0.0610352,-0.976562,26.7944,-0.029,0.057,-24.89,0.0256348,-0.277145,0,0,0,0,0,40.7,995.852,2227456
-0.0401611,-0.0392456,1.00482,-2.0752,-0.915527,22.0337,-0.025,-0.025,-25.6,0.0254059,-0.276199,0,0,0,0,0,40.7,995.873,2227486
-0.00408936,0.0350952,0.977722,-1.64795,-0.732422,21.4233,-0.024,0.056,-25.94,0.0252686,-0.275696,0,0,0,0,0,40.7,995.893,2227501
-0.0241699,-0.0575562,0.995667,-0.610352,0.854492,16.1133,-0.002,-0.035,-26.2,0.0251007,-0.275192,0,0,0,0,0,40.7,995.912,2227516
0.0078125,0.0883179,0.993408,-0.732422,-1.34277,14.6484,-0.038,0.109,-26.42,0.0249023,-0.274628,0,0,0,0,0,40.7,995.933,2227531
0.0391235,-0.0101318,0.990723,0.732422,-0.549316,11.9019,0.033,0.035,-26.8,0.0243988,-0.273056,0,0,0,0,0,40.7,995.952,2227561
-0.0241699,0.00817871,1.09515,0,0.549316,10.2539,-0.031,0.025,-26.97,0.0241547,-0.272171,0,0,0,0,0,40.7,995.973,2227576
0.0202026,0.088562,0.916199,0.610352,-0.732422,9.39941,-0.027,0.111,-27.23,0.0234985,-0.270279,0,0,0,0,0,40.7,995.996,2227606
-0.0174561,-0.0767212,1.07709,-0.488281,0.183105,7.69043,0.013,-0.048,-27.36,0.0231323,-0.269257,0,0,0,0,0,40.7,996.012,2227621
-0.0221558,-0.0328369,1.0614,-1.09863,-0.427246,8.66699,-0.01,-0.012,-27.48,0.0231323,-0.268265,0,0,0,0,0,40.7,996.033,2227636
-0.0415649,-0.0171509,0.966248,-0.427246,-0.488281,8.23975,-0.034,-0.01,-27.77,0.0231171,-0.266159,0,0,0,0,0,40.7,996.053,2227666
-0.0751953,-0.0266113,1.14532,0.610352,1.09863,9.0332,-0.06,-0.029,-27.9,0.0230255,-0.265121,0,0,0,0,0,40.7,996.073,2227681
0.00787354,0.0316162,0.920898,-0.0610352,-0.427246,6.46973,-0.012,0.054,-28.15,0.0228424,-0.263062,0,0,0,0,0,40.69,996.099,2227712
-0.00524902,0.129944,1.07361,1.46484,0.488281,8.17871,-0.071,0.139,-28.27,0.0227051,-0.261887,0,0,0,0,0,40.69,996.113,2227726
-0.0150757,-0.0778809,1.04578,-0.549316,0.549316,9.0332,0.019,-0.049,-28.4,0.0225372,-0.260666,0,0,0,0,0,40.69,996.134,2227741
0.00701904,0.0186157,1.00391,0.427246,0.244141,8.11768,-0.007,0.044,-28.53,0.0223694,-0.25943,0,0,0,0,0,40.69,996.153,2227756
0.000793457,0.0149536,0.93103,-0.12207,-1.0376,9.94873,-0.009,0.036,-28.82,0.0219269,-0.256744,0,0,0,0,0,40.69,996.173,2227786
-0.036438,-0.0176392,1.04138,-0.671387,0.671387,10.2539,-0.027,-0.007,-28.97,0.0216522,-0.255356,0,0,0,0,0,40.69,996.199,2227801
-0.0230713,0.0419922,1.00824,-1.28174,-1.34277,10.5591,-0.044,0.05,-29.13,0.021347,-0.253937,0,0,0,0,0,40.69,996.213,2227816
-0.0213623,-0.00598145,1.0127,-1.34277,-0.427246,12.0239,-0.019,0.01,-29.3,0.0209808,-0.252472,0,0,0,0,0,40.69,996.233,2227832
-0.0149536,-0.0181274,1.01697,-0.915527,-1.64795,11.4136,-0.007,0.002,-29.62,0.0201874,-0.249466,0,0,0,0,0,40.69,996.255,2227861
0.00170898,0.0286865,0.991943,-0.0610352,0.793457,12.0239,-0.016,0.05,-29.81,0.0197601,-0.24791,0,0,0,0,0,40.69,996.273,2227876
0.0117798,0.00305176,0.987244,0.427246,-0.610352,9.76562,0.005,0.032,-29.96,0.0197601,-0.246307,0,0,0,0,0,40.69,996.293,2227892
-0.00622559,0.0521851,0.999573,-0.610352,1.2207,10.6201,-0.034,0.066,-30.29,0.0197449,-0.243103,0,0,0,0,0,40.69,996.315,2227921
0.00164795,-0.0634155,0.979126,-1.09863,1.15967,8.36182,0.03,-0.03,-30.41,0.0197144,-0.241455,0,0,0,0,0,40.69,996.339,2227936
-0.0187378,-0.00445557,0.986267,-1.58691,1.0376,10.498,-0.016,0.011,-30.72,0.0196381,-0.23819,0,0,0,0,0,40.69,996.354,2227966
0.00811768,-0.0621948,1.01746,-2.0752,0.549316,10.5591,0.035,-0.022,-30.88,0.0195923,-0.236557,0,0,0,0,0,40.69,996.379,2227981
-0.0579224,0.0827026,0.981628,-1.77002,-0.366211,11.3525,-0.095,0.067,-31.04,0.0195007,-0.234894,0,0,0,0,0,40.69,996.395,2227996
-0.0637817,0.0171509,0.984924,-0.793457,-0.305176,11.5967,-0.065,0.007,-31.22,0.0193024,-0.233185,0,0,0,0,0,40.69,996.413,2228012
-0.0240479,0.050293,0.991211,-2.56348,-1.52588,10.376,-0.049,0.057,-31.57,0.0188751,-0.229767,0,0,0,0,0,40.69,996.434,2228041
-0.00231934,-0.0186157,1.02148,-1.58691,-2.19727,12.0239,0.004,0.01,-31.75,0.018631,-0.228012,0,0,0,0,0,40.69,996.453,2228056
-0.0114136,-0.0939941,1.10626,0.427246,-0.366211,8.91113,0.036,-0.055,-32.06,0.0180664,-0.228058,0,0,0,0,0,40.69,996.473,2228087
0.0172119,-0.0456543,1.02832,-1.2207,-0.0610352,10.9253,0.034,-0.002,-32.21,0.0178375,-0.228134,0,0,0,0,0,40.69,996.494,2228102
0.00946045,0.0253906,0.953186,0.183105,-0.488281,9.46045,-0.009,0.051,-32.36,0.0176239,-0.22818,0,0,0,0,0,40.69,996.512,2228117
0.00714111,0.012085,1.08966,0.12207,-0.183105,8.60596,-0.005,0.043,-32.5,0.0174103,-0.228165,0,0,0,0,0,40.69,996.532,2228132
-0.043396,-0.115723,0.984436,-0.305176,1.52588,9.0332,0.022,-0.095,-32.79,0.0170441,-0.22818,0,0,0,0,0,40.69,996.552,2228162
-0.036377,0.0924072,1.01788,0.915527,-0.12207,9.64355,-0.085,0.085,-32.93,0.0168457,-0.228226,0,0,0,0,0,40.69,996.572,2228177
-0.0241089,-0.0804443,1.09076,-0.427246,-0.366211,9.33838,0.019,-0.05,-33.07,0.0166168,-0.228256,0,0,0,0,0,40.69,996.593,2228192
-0.003479,0.0281982,1.04102,-1.15967,-1.77002,5.92041,-0.022,0.049,-33.33,0.016037,-0.228485,0,0,0,0,0,40.71,996.613,2228222
-0.00732422,0.0333252,0.992859,-1.34277,-1.15967,0.732422,-0.028,0.05,-33.35,0.0157013,-0.228546,0,0,0,0,0,40.71,996.632,2228237
-0.0150757,0.0141602,1.01208,-0.915527,-0.976562,-1.40381,-0.024,0.03,-33.35,0.0153351,-0.228546,0,0,0,0,0,40.71,996.652,2228252
0.0487671,0.0978394,0.980408,3.05176,-1.28174,-7.44629,-0.016,0.133,-33.17,0.0149231,-0.228485,0,0,0,0,0,40.71,996.672,2228282
-0.0109253,-0.100342,1.04376,1.89209,1.09863,-8.72803,0.042,-0.064,-33.04,0.0149384,-0.228378,0,0,0,0,0,40.71,996.693,2228297
-0.0022583,0.0245361,0.955505,0.366211,0.854492,-8.8501,-0.017,0.042,-32.91,0.0149841,-0.228287,0,0,0,0,0,40.71,996.713,2228312
-0.067688,0.03125,1.0777,1.0376,2.01416,-9.27734,-0.075,0.015,-32.64,0.0149994,-0.227966,0,0,0,0,0,40.71,996.732,2228342
-0.0366821,-0.0641479,0.976746,0.732422,0.854492,-7.93457,0.002,-0.05,-32.51,0.0149384,-0.227814,0,0,0,0,0,40.71,996.752,2228357
-0.0477905,-0.0457153,0.973328,-0.366211,0.610352,-7.14111,-0.016,-0.04,-32.39,0.0148773,-0.227722,0,0,0,0,0,40.71,996.772,2228372
0.0105591,0.0238037,1.03284,-1.34277,-0.0610352,-6.16455,-0.004,0.051,-32.22,0.0145874,-0.22757,0,0,0,0,0,40.71,996.792,2228402
-0.127991,-0.0169067,0.995728,-1.2207,-1.0376,-5.31006,-0.099,-0.057,-32.13,0.0143433,-0.227493,0,0,0,0,0,40.71,996.816,2228417
-0.00506592,0.0283203,0.99646,-1.15967,-0.854492,-4.57764,-0.019,0.046,-32.07,0.0140076,-0.227417,0,0,0,0,0,40.71,996.832,2228432
-0.0668335,-0.134644,1.06958,-0.12207,0.0610352,-3.96728,0.013,-0.122,-31.89,0.0134277,-0.227356,0,0,0,0,0,40.71,996.853,2228462
0.0654907,0.00927734,0.993408,0.183105,-0.793457,-3.41797,0.049,0.067,-31.85,0.0131989,-0.227417,0,0,0,0,0,40.71,996.873,2228477
-0.0758667,0.00152588,1.03796,1.34277,-0.732422,-7.44629,-0.066,-0.013,-31.75,0.0129547,-0.227448,0,0,0,0,0,40.71,996.893,2228492
-0.0203857,-0.0880737,0.999817,0.793457,0.671387,-4.3335,0.028,-0.061,-31.62,0.0124969,-0.227631,0,0,0,0,0,40.71,996.913,2228522
-0.0975342,-0.0743408,1.12042,1.58691,1.46484,-6.16455,-0.045,-0.087,-31.53,0.0122833,-0.227859,0,0,0,0,0,40.71,996.932,2228537
0.041748,-0.11322,1.03003,-0.305176,1.15967,-3.72314,0.094,-0.049,-31.47,0.0121155,-0.22818,0,0,0,0,0,40.71,996.952,2228552
-0.0913086,-0.0557251,1.0061,0.549316,-0.183105,-6.53076,-0.048,-0.07,-31.29,0.0118561,-0.228912,0,0,0,0,0,40.71,996.973,2228582
0.0704346,-0.0154419,1.06,0.0610352,0.244141,-4.15039,0.068,0.049,-31.21,0.011734,-0.229309,0,0,0,0,0,40.71,996.992,2228597
-0.057312,0.0437622,0.998413,0.915527,-0.12207,-4.57764,-0.07,0.031,-30.97,0.011261,-0.230225,0,0,0,0,0,40.71,997.031,2228642
0.00708008,-0.0345459,1.06042,-1.34277,-0.793457,-5.98144,0.024,0,-30.89,0.0110321,-0.230453,0,0,0,0,0,40.71,997.055,2228657
0.0169067,0.0198975,0.946655,0.488281,-0.549316,-5.18799,0.005,0.047,-30.81,0.0108032,-0.230637,0,0,0,0,0,40.71,997.074,2228672
0.0292358,0.0863037,0.945984,-1.0376,-0.366211,-6.7749,-0.017,0.111,-30.65,0.0108032,-0.230865,0,0,0,0,0,40.71,997.093,2228702
-0.00610352,0.0383911,0.983765,-0.366211,0.427246,-5.85937,-0.023,0.053,-30.56,0.0107727,-0.23085,0,0,0,0,0,40.7,997.113,2228717
0.00793457,0.0479736,1.0011,-1.46484,0.244141,-6.16455,-0.016,0.068,-30.47,0.0107269,-0.230728,0,0,0,0,0,40.7,997.133,2228732
-0.0634155,0.0293579,1.02753,1.46484,0.793457,-5.67627,-0.067,0.016,-30.29,0.010437,-0.230301,0,0,0,0,0,40.7,997.153,2228762
-0.0372314,-0.0010376,1.03937,-0.610352,0.244141,-4.57764,-0.029,0.004,-30.22,0.0101776,-0.230301,0,0,0,0,0,40.7,997.173,2228777
-0.00616455,-0.0090332,0.942627,-0.732422,-0.793457,-5.18799,0.001,0.01,-30.15,0.00991821,-0.230301,0,0,0,0,0,40.7,997.193,2228792
0.0472412,0.0717773,0.978882,-1.89209,-0.915527,-3.479,0.008,0.109,-30.03,0.00915527,-0.230377,0,0,0,0,0,40.7,997.213,2228822
-0.0114746,-0.00878906,1.04407,-0.305176,-1.89209,-5.61523,-0.002,0.011,-29.96,0.00875854,-0.230301,0,0,0,0,0,40.7,997.233,2228837
0.0391235,0.00952148,0.944275,-0.305176,-0.976562,-4.82178,0.031,0.049,-29.83,0.0087738,-0.230255,0,0,0,0,0,40.7,997.254,2228867
-0.0182495,-0.00964355,1.00555,-0.0610352,-0.671387,-7.44629,-0.008,0.005,-29.72,0.00881958,-0.230179,0,0,0,0,0,40.7,997.273,2228882
-0.0306396,0.0404053,1.01605,0,0.854492,-5.12695,-0.044,0.043,-29.63,0.00883484,-0.230087,0,0,0,0,0,40.7,997.293,2228897
-0.0291138,-0.100403,1.02618,0,1.77002,-8.30078,0.026,-0.078,-29.54,0.00881958,-0.230011,0,0,0,0,0,40.7,997.313,2228912
-0.026001,0.0324707,1.01617,-0.488281,2.0752,-6.10352,-0.036,0.039,-29.28,0.00892639,-0.230011,0,0,0,0,0,40.7,997.333,2228942
-0.0100708,-0.0581055,1.01904,-0.854492,0.732422,-8.97217,0.022,-0.031,-29.16,0.00897217,-0.229996,0,0,0,0,0,40.7,997.353,2228957
-0.0141602,0.0629883,0.94458,-0.854492,0.305176,-7.87353,-0.04,0.07,-29.04,0.00900269,-0.22995,0,0,0,0,0,40.7,997.373,2228973
-0.0321045,-0.0482178,0.91272,-1.2207,-1.34277,-5.67627,-0.001,-0.034,-28.79,0.00900269,-0.230042,0,0,0,0,0,40.7,997.41,2229017
0.026001,-0.0657959,1.04291,-0.854492,-0.793457,-4.57764,0.058,-0.018,-28.66,0.00889587,-0.230362,0,0,0,0,0,40.7,997.443,2229047
-0.00683594,-0.06604,0.920105,-0.12207,-1.64795,-3.60107,0.028,-0.037,-28.6,0.00889587,-0.230576,0,0,0,0,0,40.7,997.452,2229062
-0.046875,0.00610352,1.02228,0.610352,-0.549316,-2.31934,-0.041,0.008,-28.56,0.00888062,-0.230835,0,0,0,0,0,40.7,997.466,2229077
0.0784912,0.0256348,0.988464,-0.427246,-0.793457,-3.96728,0.059,0.084,-28.51,0.00889587,-0.231003,0,0,0,0,0,40.7,997.482,2229093
0.0784912,0.0256348,0.988464,-0.427246,-0.793457,-3.96728,0.059,0.084,-28.51,0.00889587,-0.231003,0,0,0,0,0,40.7,997.493,2229093
-0.0333862,0.00952148,1.08154,0.366211,0.610352,-4.5166,-0.031,0.019,-28.39,0.00891113,-0.23143,0,0,0,0,0,40.7,997.515,2229122
-0.00671387,-0.039917,1.01068,-1.46484,0.915527,-7.93457,0.015,-0.012,-28.29,0.00888062,-0.23143,0,0,0,0,0,40.7,997.533,2229137
-0.0646362,-0.0227661,1.02917,-2.13623,0.183105,-9.52148,-0.044,-0.023,-28.16,0.00883484,-0.231445,0,0,0,0,0,40.7,997.553,2229153
-0.0262451,-0.0894165,0.995239,2.92969,0.610352,-17.4561,0.021,-0.066,-27.73,0.00863647,-0.231384,0,0,0,0,0,40.7,997.573,2229182
-0.0657349,-0.0990601,1.03424,0.671387,0.366211,-18.4326,-0.008,-0.092,-27.46,0.00854492,-0.231461,0,0,0,0,0,40.7,997.593,2229197
0.0148315,0.0887451,0.975403,0.427246,0.305176,-19.5923,-0.023,0.111,-27.18,0.00842285,-0.231506,0,0,0,0,0,40.7,997.613,2229213
0.0545654,0.00372314,1.06158,1.83105,0.12207,-22.8271,0.052,0.053,-26.5,0.00798035,-0.231354,0,0,0,0,0,40.69,997.635,2229242
-0.0904541,-0.113037,1.07996,1.34277,1.34277,-24.1089,-0.025,-0.115,-26.15,0.00776672,-0.231277,0,0,0,0,0,40.69,997.652,2229257
0.00274658,-0.0022583,1.04962,3.23486,0.671387,-24.5361,0.009,0.023,-25.79,0.0075531,-0.231262,0,0,0,0,0,40.69,997.672,2229273
-0.0169067,-0.0460205,0.992188,1.89209,0.0610352,-23.9868,0.011,-0.026,-25.04,0.0075531,-0.231293,0,0,0,0,0,40.69,997.692,2229302
0.00189209,-0.0375366,1.00305,1.09863,1.2207,-25.2075,0.024,-0.011,-24.68,0.00756836,-0.231354,0,0,0,0,0,40.69,997.712,2229317
-0.027771,-0.0385742,0.993774,0.0610352,0.671387,-24.231,-0.001,-0.024,-23.91,0.00759888,-0.231445,0,0,0,0,0,40.69,997.737,2229347
-0.0539551,0.000488281,1.07123,0.12207,1.95312,-25.6348,-0.04,0.002,-23.54,0.00758362,-0.231506,0,0,0,0,0,40.69,997.752,2229362
0.0184937,-0.0223999,1.03375,0,0.915527,-25.3296,0.035,0.009,-23.16,0.0075531,-0.231506,0,0,0,0,0,40.69,997.772,2229377
-0.0670166,-0.0176392,1.02155,-0.427246,1.2207,-24.7803,-0.045,-0.019,-22.78,0.00752258,-0.231506,0,0,0,0,0,40.69,997.792,2229393
-0.0592041,-0.0257568,1.01105,-1.77002,1.40381,-25.5737,-0.035,-0.022,-22.05,0.00740051,-0.231522,0,0,0,0,0,40.69,997.812,2229422
-0.0375977,0.0422363,0.961731,-0.976562,0.793457,-22.8882,-0.04,0.048,-21.7,0.00727844,-0.231537,0,0,0,0,0,40.69,997.835,2229437
0.00280762,0.0256958,0.990234,-0.610352,0.488281,-22.8882,0.003,0.048,-21.36,0.00714111,-0.231476,0,0,0,0,0,40.69,997.852,2229453
0.0431519,-0.0180664,1.04144,1.28174,0.854492,-20.3247,0.058,0.023,-20.73,0.00682068,-0.231506,0,0,0,0,0,40.69,997.874,2229483
-0.0724487,-0.0897827,0.966309,0.610352,-0.427246,-20.3247,-0.025,-0.086,-20.42,0.00668335,-0.231598,0,0,0,0,0,40.69,997.892,2229498
-0.0252686,0.076355,0.943176,2.86865,-0.366211,-17.1509,-0.038,0.085,-20.14,0.00650024,-0.231674,0,0,0,0,0,40.69,997.913,2229513
0.0697021,-0.0444946,1.02301,1.09863,-0.244141,-19.4092,0.093,0.004,-19.57,0.00605774,-0.231827,0,0,0,0,0,40.69,997.932,2229543
-0.0487061,-0.0510254,0.998962,-0.305176,0.183105,-19.2871,-0.017,-0.041,-19.28,0.00590515,-0.231934,0,0,0,0,0,40.69,997.952,2229558
-0.0100708,0.0467529,1.01001,-0.549316,1.0376,-20.813,-0.012,0.064,-18.98,0.00590515,-0.232025,0,0,0,0,0,40.69,997.972,2229573
-0.0440063,-0.0345459,0.945007,2.74658,0.305176,-20.752,-0.019,-0.025,-18.33,0.00596619,-0.232254,0,0,0,0,0,40.69,997.995,2229603
-0.0174561,-0.00854492,1.01074,2.99072,1.0376,-20.6909,0,0.008,-18.02,0.00598145,-0.232407,0,0,0,0,0,40.69,998.012,2229618
0.0130615,0.0107422,0.968811,1.77002,0.183105,-21.7895,0.022,0.034,-17.36,0.0059967,-0.232376,0,0,0,0,0,40.69,998.038,2229648
-0.0993042,-0.0220947,1.07043,0,0.915527,-23.6206,-0.073,-0.028,-17.01,0.00596619,-0.232361,0,0,0,0,0,40.69,998.052,2229663
0.0178833,0.0338745,1.01422,0.854492,0.488281,-24.7803,0.022,0.058,-16.65,0.00590515,-0.2323,0,0,0,0,0,40.69,998.073,2229678
-0.0687866,-0.0111084,1.00909,1.2207,0.549316,-25.7568,-0.047,-0.01,-16.26,0.00582886,-0.232224,0,0,0,0,0,40.69,998.093,2229693
-0.00982666,-0.00250244,1.03381,-0.549316,0.549316,-25.2075,0.007,0.015,-15.53,0.00572205,-0.232178,0,0,0,0,0,40.69,998.113,2229723
-0.000976562,-0.0101318,1.0072,-1.15967,0.915527,-25.1465,0.017,0.01,-14.76,0.00572205,-0.232086,0,0,0,0,0,40.71,998.147,2229753
0.0514526,-0.0363159,0.982056,-2.44141,0.183105,-24.4751,0.074,-0.002,-14.04,0.00582886,-0.231812,0,0,0,0,0,40.71,998.173,2229783
-0.0621338,0.031311,1.00812,0.488281,-0.183105,-25.0244,-0.051,0.036,-13.65,0.00593567,-0.231628,0,0,0,0,0,40.71,998.193,2229798
-0.0928955,-0.0878906,1.12097,1.15967,1.89209,-20.9961,-0.051,-0.083,-13.32,0.00598145,-0.231476,0,0,0,0,0,40.71,998.213,2229813
-0.0487671,-0.017395,0.957397,0.0610352,0,-24.231,-0.028,-0.007,-12.64,0.00608826,-0.231369,0,0,0,0,0,40.71,998.239,2229843
-0.129944,-0.121399,1.10675,0.610352,1.64795,-21.6675,-0.082,-0.123,-12.31,0.006073,-0.231461,0,0,0,0,0,40.71,998.253,2229858
0.0172729,-0.0772095,1.02972,-0.793457,1.52588,-20.813,0.05,-0.05,-12.01,0.00604248,-0.231674,0,0,0,0,0,40.71,998.275,2229873
-0.0690918,-0.0375366,1.05328,0.549316,1.2207,-23.0713,-0.042,-0.028,-11.28,0.00604248,-0.232147,0,0,0,0,0,40.71,998.293,2229903
0.0817871,0.0101318,1.07141,-0.793457,1.09863,-21.9727,0.096,0.047,-10.95,0.006073,-0.232376,0,0,0,0,0,40.71,998.313,2229918
-0.0726318,-0.00854492,0.947021,0,0.549316,-24.8413,-0.053,-0.001,-10.59,0.00611877,-0.232574,0,0,0,0,0,40.71,998.332,2229933
-0.074585,0.0441895,1.02893,1.34277,1.2207,-21.6064,-0.062,0.052,-9.89,0.00608826,-0.233139,0,0,0,0,0,40.71,998.36,2229963
-0.0185547,-0.0531006,1.02216,0.12207,0.793457,-23.3154,0.009,-0.034,-9.55,0.00601196,-0.233429,0,0,0,0,0,40.71,998.373,2229978
0.0211792,0.000549316,0.962952,0.427246,0.12207,-24.0478,0.038,0.024,-9.2,0.00596619,-0.233719,0,0,0,0,0,40.71,998.393,2229993
0.0307617,0.0673218,1.0365,0.305176,1.52588,-22.0947,0.04,0.093,-8.52,0.00588989,-0.234253,0,0,0,0,0,40.71,998.413,2230023
-0.0279541,-0.00811768,1.00073,0.183105,0.671387,-25.9399,-0.007,0.008,-8.15,0.00587463,-0.234436,0,0,0,0,0,40.71,998.432,2230038
-0.0338135,-0.0402222,1.06085,0.0610352,1.52588,-24.0478,-0.007,-0.022,-7.41,0.00592041,-0.23494,0,0,0,0,0,40.71,998.457,2230068
0.00897217,0.0431519,0.984009,-0.0610352,0.427246,-25.6348,0.022,0.063,-7.03,0.00595093,-0.235214,0,0,0,0,0,40.71,998.473,2230083
-0.0690918,-0.012085,0.973694,0.427246,1.40381,-27.2217,-0.047,0,-6.63,0.00596619,-0.235428,0,0,0,0,0,40.71,998.493,2230098
0.00866699,-0.022644,1.04956,-0.610352,1.34277,-25.2075,0.032,0,-6.24,0.00598145,-0.235657,0,0,0,0,0,40.71,998.513,2230113
-0.017395,-0.0393066,0.95874,-1.09863,0.427246,-26.123,0.006,-0.021,-5.46,0.00595093,-0.235825,0,0,0,0,0,40.71,998.533,2230143
-0.0265503,0.0421143,0.920959,1.52588,1.46484,-26.3672,-0.01,0.057,-5.07,0.00595093,-0.23584,0,0,0,0,0,40.71,998.555,2230158
-0.0177002,0.0773315,1.02942,2.19727,1.09863,-23.8037,0,0.095,-4.7,0.00595093,-0.235748,0,0,0,0,0,40.71,998.573,2230173
-0.0484009,0.00250244,1.00397,6.71387,0.427246,-24.9634,-0.025,0.014,-3.98,0.00592041,-0.235367,0,0,0,0,0,40.71,998.595,2230203
-0.0245361,0.0432739,0.957275,8.23975,-0.183105,-23.6206,-0.004,0.053,-3.62,0.00588989,-0.235107,0,0,0,0,0,40.71,998.614,2230218
-0.0230713,-0.112305,1.04633,5.67627,0.854492,-25.6958,0.007,-0.102,-3.24,0.00584412,-0.234879,0,0,0,0,0,40.71,998.633,2230233
0.0100708,0.0130005,0.976257,1.58691,1.0376,-23.7427,0.032,0.022,-2.49,0.00585938,-0.234528,0,0,0,0,0,40.66,998.654,2230263
-0.019104,0.0344849,0.977905,3.60107,0,-26.3062,0.002,0.042,-2.12,0.00588989,-0.234314,0,0,0,0,0,40.66,998.673,2230278
-0.0150757,0.0200806,1.02478,5.67627,0.427246,-24.353,0.009,0.025,-1.37,0.00592041,-0.233734,0,0,0,0,0,40.66,998.7,2230308
-0.0405884,0.0205688,1.03296,6.28662,0.12207,-25.6348,-0.015,0.023,-0.98,0.00592041,-0.233398,0,0,0,0,0,40.66,998.713,2230323
-0.0227051,0.0424805,0.967468,8.05664,0.732422,-23.6816,0,0.043,-0.62,0.00592041,-0.233017,0,0,0,0,0,40.66,998.733,2230338
-0.0335083,0.0204468,1.01617,9.33838,0.305176,-24.5361,-0.008,0.018,-0.25,0.00592041,-0.23259,0,0,0,0,0,40.66,998.753,2230354
-0.0383911,-0.043335,0.942993,5.79834,-0.305176,-23.2544,-0.015,-0.048,0.49,0.00595093,-0.231476,0,0,0,0,0,40.66,998.773,2230383
0.0137329,-0.0322266,0.918335,2.50244,-1.58691,-19.9585,0.035,-0.038,0.8,0.00596619,-0.230942,0,0,0,0,0,40.66,998.793,2230398
-0.110718,-0.0161743,1.04767,-2.31934,1.95312,-19.7754,-0.084,-0.021,1.1,0.00596619,-0.230453,0,0,0,0,0,40.66,998.814,2230414
-0.034729,0.0792236,1.03137,-4.94385,1.09863,-17.7612,-0.007,0.075,1.63,0.00608826,-0.229279,0,0,0,0,0,40.66,998.833,2230443
-0.0907593,0.0621948,1.05176,-3.479,1.2207,-20.4468,-0.061,0.06,1.92,0.00614929,-0.228531,0,0,0,0,0,40.66,998.853,2230458
0.0305786,0.0761719,1.02087,-0.488281,1.2207,-20.4468,0.059,0.069,2.23,0.00621033,-0.227707,0,0,0,0,0,40.66,998.873,2230474
-0.0654297,0.0209351,1.03625,4.76074,-0.610352,-23.7427,-0.038,0.014,2.91,0.00643921,-0.225723,0,0,0,0,0,40.66,998.893,2230503
-0.0654297,0.0137329,0.977112,3.54004,-0.12207,-20.3247,-0.039,0.007,3.24,0.0065155,-0.224686,0,0,0,0,0,40.66,998.913,2230518
0.0215454,-0.0193481,0.975647,0.305176,-0.427246,-20.1416,0.045,-0.031,3.53,0.00657654,-0.223663,0,0,0,0,0,40.66,998.932,2230534
-0.0824585,0.0305176,1.01892,-3.66211,-0.610352,-19.9585,-0.054,0.026,4.15,0.00679016,-0.221588,0,0,0,0,0,40.66,998.952,2230563
0.0103149,0.0855713,1.01111,-3.23486,-0.915527,-21.5454,0.042,0.075,4.46,0.00688171,-0.220474,0,0,0,0,0,40.66,998.972,2230578
0.0291138,0.224731,1.05542,2.01416,0.610352,-29.1748,0.073,0.209,4.85,0.00704956,-0.219162,0,0,0,0,0,40.66,998.992,2230594
0.0221558,-0.00762939,0.995361,4.08936,-1.95312,-30.1514,0.044,-0.025,5.79,0.00744629,-0.216202,0,0,0,0,0,40.66,999.013,2230623
0.00970459,0.0166016,0.952393,0,0.12207,-31.0669,0.033,0,6.24,0.00770569,-0.214722,0,0,0,0,0,40.66,999.032,2230638
-0.0614014,-0.00897217,1.0116,-4.27246,1.64795,-31.8603,-0.038,-0.017,6.72,0.00796509,-0.213272,0,0,0,0,0,40.66,999.052,2230654
-0.00115967,0.159973,1.05005,-7.44629,2.0752,-30.8228,0.045,0.146,7.62,0.00854492,-0.210327,0,0,0,0,0,40.66,999.074,2230683
-0.0309448,-0.00756836,1.04071,-6.34766,0.976562,-32.1655,-0.006,-0.013,8.08,0.00888062,-0.20871,0,0,0,0,0,40.66,999.093,2230698
-0.015625,0.0395508,0.990295,-5.31006,1.09863,-30.7617,0.015,0.032,8.55,0.00888062,-0.207092,0,0,0,0,0,40.66,999.113,2230714
-0.0268555,-0.00805664,1.02856,-5.5542,0.549316,-30.7617,-0.001,-0.01,9.47,0.00888062,-0.203812,0,0,0,0,0,40.66,999.132,2230743
-0.0240479,-0.00738525,1.00104,-6.40869,0.488281,-30.3955,0.001,-0.007,9.92,0.00888062,-0.203812,0,0,0,0,0,40.66,999.152,2230758
-0.0297852,-0.019165,0.96167,-7.38525,0.610352,-30.1514,-0.007,-0.016,10.37,0.00888062,-0.203812,0,0,0,0,0,40.66,999.173,2230774
-0.0197754,0.0430908,1.04492,-3.90625,0.854492,-32.5928,0.017,0.045,11.31,0.00894165,-0.203644,0,0,0,0,0,40.66,999.193,2230803
-0.00567627,0.0415649,1.02869,-1.64795,0.610352,-32.3486,0.03,0.041,11.8,0.0090332,-0.203461,0,0,0,0,0,40.66,999.213,2230818
0.003479,0.00750732,1.00818,-0.976562,0.610352,-31.8603,0.032,0.005,12.27,0.00915527,-0.203247,0,0,0,0,0,40.66,999.232,2230834
-0.0131836,-0.0269775,1.02704,-1.70898,1.09863,-31.3721,0.008,-0.023,13.22,0.00950623,-0.202789,0,0,0,0,0,40.66,999.252,2230863
-0.0118408,-0.0237427,1.01532,-2.80762,0.793457,-30.5786,0.01,-0.019,13.68,0.00970459,-0.202591,0,0,0,0,0,40.66,999.273,2230879
-0.0110474,-0.00872803,1.00317,-4.82178,1.0376,-28.5645,0.015,-0.002,14.57,0.00970459,-0.202423,0,0,0,0,0,40.66,999.295,2230909
0.00512695,0.0407104,1.02423,-3.90625,-0.305176,-26.7334,0.045,0.042,14.98,0.00975037,-0.202393,0,0,0,0,0,40.66,999.313,2230924
-0.0193481,-0.0723267,0.992554,-3.11279,0,-24.4751,-0.008,-0.059,15.35,0.0098114,-0.202377,0,0,0,0,0,40.66,999.333,2230939
-0.00927734,-0.0588379,0.981567,-1.09863,-0.12207,-23.3765,0.004,-0.048,15.71,0.00987244,-0.202438,0,0,0,0,0,40.66,999.353,2230954
0.0234985,-0.0543823,1.03009,0.671387,-0.305176,-21.5454,0.038,-0.051,16.37,0.00993347,-0.202698,0,0,0,0,0,40.66,999.376,2230984
0.00482178,-0.0581055,0.984131,1.2207,-0.305176,-23.1323,0.016,-0.049,16.71,0.00999451,-0.202927,0,0,0,0,0,40.66,999.393,2230999
-0.0375977,-0.0421753,1.02649,1.58691,0,-23.3765,-0.018,-0.021,17.06,0.00999451,-0.203201,0,0,0,0,0,40.66,999.413,2231014
-0.00537109,0.0705566,1.06183,6.95801,1.09863,-28.6865,0.046,0.073,17.83,0.0101471,-0.203537,0,0,0,0,0,40.66,999.433,2231044
-0.02948,-0.0524292,1.06006,7.50732,0.976562,-29.7241,-0.015,-0.038,18.28,0.0102692,-0.203613,0,0,0,0,0,40.66,999.453,2231059
0.00622559,0.0447998,0.971497,4.76074,1.09863,-31.6772,0.046,0.039,19.21,0.0106049,-0.203903,0,0,0,0,0,40.66,999.479,2231089
-0.0404663,-0.0147095,1.04333,5.67627,0.915527,-31.4941,-0.016,-0.002,19.69,0.0108185,-0.204041,0,0,0,0,0,40.66,999.493,2231104
-0.00640869,-0.0262451,1.05786,4.76074,1.2207,-31.5552,0.011,-0.026,20.16,0.0108185,-0.204178,0,0,0,0,0,40.66,999.513,2231119
-0.0119019,0.000976562,0.976624,3.84521,0.610352,-31.189,0.013,0,20.64,0.0108185,-0.204346,0,0,0,0,0,40.66,999.533,2231134
-0.0269775,-0.0144043,1.03601,3.17383,0.854492,-30.7617,-0.004,-0.01,21.57,0.0108185,-0.204498,0,0,0,0,0,40.66,999.553,2231164
-0.015564,0.00390625,0.988953,2.13623,-0.183105,-30.4565,0.011,0.001,22.48,0.0108185,-0.204498,0,0,0,0,0,40.66,999.593,2231194
-0.000366211,-0.00292969,1.03546,0.488281,-0.12207,-30.2734,0.023,-0.01,23.38,0.0108337,-0.204498,0,0,0,0,0,40.66,999.614,2231224
-0.00396729,0.02948,1.0033,1.28174,-0.244141,-30.0903,0.031,0.02,23.84,0.0108795,-0.204483,0,0,0,0,0,40.66,999.634,2231239
-0.00421143,0.149109,1.03381,4.76074,0.0610352,-31.9214,0.08,0.127,24.3,0.0110016,-0.204376,0,0,0,0,0,40.66,999.653,2231254
0.0200195,-0.0678101,0.983948,9.46045,-0.976562,-31.3721,0.008,-0.084,25.27,0.0113831,-0.20401,0,0,0,0,0,40.67,999.673,2231284
-0.00512695,-0.112122,0.965271,4.08936,-1.0376,-29.541,-0.035,-0.113,25.72,0.0115814,-0.203995,0,0,0,0,0,40.67,999.694,2231299
-0.0409546,0.121948,0.994934,1.95312,0.12207,-29.541,0.035,0.111,26.18,0.0117645,-0.203964,0,0,0,0,0,40.67,999.713,2231314
-0.000305176,-0.0152588,1.00262,-0.610352,0.488281,-26.7944,0.01,-0.031,27.06,0.0123138,-0.203583,0,0,0,0,0,40.67,999.733,2231344
-0.0245972,0.0160522,0.977722,-2.92969,-0.12207,-26.3062,0.003,0.008,27.44,0.0126343,-0.203369,0,0,0,0,0,40.67,999.753,2231359
-0.0256958,0.182739,1.01697,-2.99072,0.915527,-27.5879,0.081,0.155,27.85,0.0130005,-0.203064,0,0,0,0,0,40.67,999.773,2231374
-0.0268555,-0.0181885,0.991394,0.549316,-0.793457,-29.7852,-0.015,-0.022,28.72,0.0139313,-0.202087,0,0,0,0,0,40.67,999.793,2231404
-0.0032959,0.0458374,0.941162,-1.46484,-1.34277,-28.2593,0.035,0.023,29.15,0.0144196,-0.201584,0,0,0,0,0,40.67,999.813,2231419
-0.0161133,0.12439,1.09418,-1.70898,-0.915527,-31.1279,0.065,0.095,29.6,0.0149689,-0.201004,0,0,0,0,0,40.67,999.833,2231434
0.0301514,-0.0187378,0.943237,0.366211,-1.52588,-28.4424,0.03,-0.05,30.5,0.0162048,-0.199738,0,0,0,0,0,40.67,999.853,2231464
0.019043,0.00146484,1.03729,-2.50244,-0.244141,-29.2969,0.032,-0.028,30.94,0.0168762,-0.199173,0,0,0,0,0,40.67,999.873,2231479
-0.0449219,0.0319824,1.04938,-3.78418,0.366211,-30.7617,-0.005,0.031,31.4,0.0175629,-0.198593,0,0,0,0,0,40.67,999.894,2231494
-0.000976562,0.0245361,1.03992,-2.2583,1.77002,-31.5552,0.027,0.003,32.34,0.0191803,-0.197495,0,0,0,0,0,40.67,999.913,2231524
-0.0131226,-0.0118408,1.02185,-2.01416,0.427246,-31.6772,-0.001,-0.02,32.8,0.02005,-0.196976,0,0,0,0,0,40.67,999.933,2231539
0.0678711,0.0531616,1.00299,-1.89209,1.0376,-31.6772,0.101,-0.008,33.28,0.0209961,-0.196472,0,0,0,0,0,40.67,999.953,2231554
0.00994873,-0.0136108,0.990784,-3.84521,0.549316,-33.9355,0.017,-0.031,34.26,0.0229645,-0.19548,0,0,0,0,0,40.67,999.973,2231584
0.0212402,0.00958252,1.02435,-4.94385,1.2207,-35.5835,0.04,-0.018,34.79,0.0239868,-0.195023,0,0,0,0,0,40.67,999.995,2231599
-0.0796509,-0.0384521,1.04169,-6.46973,1.46484,-36.1938,-0.067,0.001,35.33,0.0249939,-0.19458,0,0,0,0,0,40.67,1000.01,2231614
0.0102539,0.151001,1.02344,-1.34277,0.244141,-35.3394,0.117,0.103,36.39,0.0271606,-0.194504,0,0,0,0,0,40.67,1000.03,2231644
-0.0564575,-0.107239,0.99176,0.305176,-0.488281,-36.1938,-0.09,-0.063,36.94,0.0283356,-0.194397,0,0,0,0,0,40.67,1000.05,2231659
0.0323486,0.0325317,1.01263,-0.305176,-0.427246,-36.9873,0.064,-0.005,37.48,0.02948,-0.194351,0,0,0,0,0,40.67,1000.07,2231674
0.0425415,0.145691,1.00146,-1.28174,-0.610352,-35.6445,0.143,0.077,38.57,0.0318756,-0.194366,0,0,0,0,0,40.67,1000.09,2231704
0.0199585,-0.0426025,1.04443,-0.366211,1.0376,-34.3628,0.008,-0.056,39.1,0.0332031,-0.194366,0,0,0,0,0,40.67,1000.11,2231719
0.0294189,-0.00335693,0.977783,-1.15967,-0.12207,-33.5693,0.039,-0.03,39.6,0.0345764,-0.194412,0,0,0,0,0,40.67,1000.13,2231735
0.0338745,-0.0272827,1.08478,-4.63867,1.95312,-32.3486,0.03,-0.051,40.59,0.0373383,-0.194702,0,0,0,0,0,40.67,1000.15,2231764
-0.05896,-0.162903,1.17712,-2.99072,2.31934,-32.8979,-0.126,-0.092,41.08,0.0386658,-0.194962,0,0,0,0,0,40.7,1000.17,2231779
0.00537109,-0.160828,1.05463,1.09863,2.19727,-28.1372,-0.08,-0.13,41.98,0.0405731,-0.195755,0,0,0,0,0,40.7,1000.19,2231809
-0.103699,-0.0911865,1.03168,2.01416,3.54004,-27.771,-0.115,-0.004,42.4,0.0412903,-0.196289,0,0,0,0,0,40.7,1000.22,2231824
0.0900879,-0.0147705,1.08911,0.671387,0.793457,-25.4517,0.081,-0.079,42.79,0.0419769,-0.196884,0,0,0,0,0,40.7,1000.23,2231839
0.0195923,-0.0222778,1.01556,1.77002,0.854492,-27.832,0.021,-0.036,43.2,0.0427399,-0.197571,0,0,0,0,0,40.7,1000.25,2231855
-0.0790405,0.0463257,1.00824,4.69971,0.549316,-31.3721,-0.003,0.079,44.1,0.0445099,-0.198639,0,0,0,0,0,40.7,1000.27,2231884
0.00976562,-0.00354004,0.993835,4.02832,-0.549316,-32.2266,0.022,-0.018,45.05,0.0445404,-0.199646,0,0,0,0,0,40.7,1000.3,2231915
0.00976562,-0.00354004,0.993835,4.02832,-0.549316,-32.2266,0.022,-0.018,45.05,0.0445404,-0.199646,0,0,0,0,0,40.7,1000.31,2231915
0.0471191,0.0750732,1.01483,1.46484,1.09863,-37.0483,0.105,0.007,46.11,0.0445709,-0.200226,0,0,0,0,0,40.7,1000.33,2231944
0.012146,-0.0840454,1.07281,0.915527,0.488281,-37.0483,-0.034,-0.078,46.66,0.0446472,-0.200272,0,0,0,0,0,40.7,1000.35,2231959
-0.0284424,0.017395,0.987305,0.915527,-0.244141,-38.6353,0.01,0.022,47.23,0.0447083,-0.200348,0,0,0,0,0,40.7,1000.37,2231975
0.0320435,0.0147095,1.04132,-0.12207,0.915527,-37.4146,0.05,-0.025,48.37,0.0447845,-0.200562,0,0,0,0,0,40.7,1000.4,2232004
0.0363159,-0.00250244,1.08344,0,-0.305176,-37.1704,0.04,-0.04,48.94,0.0448914,-0.200729,0,0,0,0,0,40.7,1000.41,2232019
-0.017395,-0.00701904,0.963684,0.427246,-0.732422,-37.7808,0,-0.001,49.5,0.0450134,-0.200928,0,0,0,0,0,40.7,1000.43,2232035
0.0445557,0.0514526,1.09161,0,0.915527,-35.5835,0.085,-0.013,50.58,0.0453186,-0.20137,0,0,0,0,0,40.7,1000.45,2232064
0.0213623,-0.0699463,1.08765,-0.854492,-0.244141,-33.9355,-0.023,-0.072,51.1,0.0455475,-0.201675,0,0,0,0,0,40.7,1000.47,2232079
-0.0126343,0.029541,0.959534,-1.09863,-0.427246,-33.6914,0.03,0.019,51.61,0.0457611,-0.202011,0,0,0,0,0,40.7,1000.49,2232095
0.0170898,0.0183716,1.0954,-2.80762,1.64795,-34.5459,0.043,-0.012,52.63,0.0462189,-0.202332,0,0,0,0,0,40.7,1000.51,2232124
0.0629883,-0.0469971,1.06628,-4.45557,-0.0610352,-34.0576,0.019,-0.087,53.13,0.0464783,-0.202408,0,0,0,0,0,40.7,1000.53,2232139
-0.0598755,0.00909424,0.958862,-5.24902,0.305176,-35.0952,-0.009,0.046,53.66,0.0467529,-0.202499,0,0,0,0,0,40.7,1000.55,2232155
0.132263,0.0390625,1.09705,-1.46484,0.0610352,-29.2969,0.131,-0.092,54.61,0.0474396,-0.20282,0,0,0,0,0,40.7,1000.57,2232184
0.0672607,-0.012085,1.00879,1.0376,-1.09863,-31.0669,0.049,-0.068,55.07,0.0479431,-0.20314,0,0,0,0,0,40.7,1000.59,2232199
-0.0213013,0.0055542,1.05035,2.44141,-0.183105,-32.7148,0.013,0.013,55.55,0.0485077,-0.203506,0,0,0,0,0,40.7,1000.61,2232215
0.117615,0.128479,0.931519,-0.915527,-2.2583,-29.1138,0.19,-0.032,56.43,0.0496979,-0.204407,0,0,0,0,0,40.7,1000.63,2232244
0.0390625,-0.0206299,0.831116,-2.62451,-1.15967,-29.7852,0.021,-0.048,56.88,0.0504913,-0.204956,0,0,0,0,0,40.7,1000.65,2232259
0.017395,-0.0297241,1.01477,-0.610352,1.83105,-27.3437,0.005,-0.036,57.3,0.0513153,-0.205551,0,0,0,0,0,40.7,1000.67,2232275
-0.197571,-0.229065,1.13727,0.610352,4.02832,-28.1982,-0.274,0.041,58.11,0.0528564,-0.207062,0,0,0,0,0,40.66,1000.69,2232305
-0.0877075,-0.20874,1.0639,2.2583,5.06592,-25.2686,-0.2,-0.039,58.5,0.0532227,-0.20784,0,0,0,0,0,40.66,1000.71,2232320
0.124817,0.105408,1.06903,3.11279,1.09863,-26.6724,0.177,-0.057,58.89,0.0535736,-0.208679,0,0,0,0,0,40.66,1000.73,2232335
-0.0339355,-0.0931396,1.16156,1.77002,2.74658,-28.9917,-0.073,-0.023,59.75,0.0543518,-0.21048,0,0,0,0,0,40.66,1000.75,2232365
0.117249,0.0178833,1.07111,2.01416,1.95312,-29.6631,0.095,-0.099,60.19,0.0547028,-0.211472,0,0,0,0,0,40.66,1000.77,2232380
-0.0136108,-0.0407715,1.00818,1.2207,0.915527,-33.8745,-0.022,-0.013,60.69,0.0550995,-0.21254,0,0,0,0,0,40.66,1000.79,2232395
0.0311279,-0.0100098,1.10419,-1.09863,1.77002,-35.2783,0.028,-0.039,61.71,0.0559082,-0.214676,0,0,0,0,0,40.66,1000.81,2232425
0.0600586,0.0379639,1.04919,-1.0376,1.52588,-33.7524,0.083,-0.041,62.23,0.0564117,-0.215805,0,0,0,0,0,40.66,1000.83,2232440
-0.0700684,-0.00219727,0.957703,-0.12207,0.915527,-34.6069,-0.014,0.055,62.75,0.0569458,-0.216919,0,0,0,0,0,40.66,1000.85,2232455
0.0269775,-0.0291138,1.08521,0,1.70898,-31.1279,0.009,-0.044,63.72,0.0583038,-0.219269,0,0,0,0,0,40.66,1000.87,2232485
0.0223389,-0.0125732,1.06543,1.70898,1.77002,-30.6396,0.021,-0.032,64.17,0.0590363,-0.220535,0,0,0,0,0,40.66,1000.89,2232500
-0.138794,-0.125122,1.09204,1.83105,3.11279,-33.1421,-0.149,0.064,64.66,0.0596924,-0.221786,0,0,0,0,0,40.66,1000.91,2232515
0.111084,0.0721436,1.01807,0,-0.12207,-27.6489,0.134,-0.077,65.55,0.0604858,-0.224426,0,0,0,0,0,40.66,1000.93,2232545
-0.133179,-0.00622559,0.910461,-0.183105,1.0376,-30.7007,-0.039,0.113,66,0.0609283,-0.225769,0,0,0,0,0,40.66,1000.95,2232560
0.00585938,-0.0475464,1.03571,0.549316,0.671387,-32.1045,-0.017,-0.031,66.47,0.0613251,-0.227066,0,0,0,0,0,40.66,1000.97,2232575
-0.00720215,-0.0879517,0.992249,0,0,-32.1655,-0.062,-0.033,67.37,0.0623016,-0.229904,0,0,0,0,0,40.66,1000.99,2232605
-0.0196533,0.00531006,0.990295,0,0.610352,-32.5928,0.019,0.013,67.87,0.0627594,-0.2314,0,0,0,0,0,40.66,1001.01,2232620
0.0379028,0.0628662,1.03107,-0.854492,0.427246,-31.4941,0.094,-0.019,68.34,0.0633087,-0.2314,0,0,0,0,0,40.66,1001.03,2232635
-0.142578,-0.118408,1.04254,1.15967,2.68555,-35.2783,-0.138,0.084,69.36,0.0646362,-0.231506,0,0,0,0,0,40.66,1001.05,2232665
-0.0314331,-0.251892,1.09033,1.28174,4.69971,-32.0435,-0.223,-0.065,69.85,0.065033,-0.231537,0,0,0,0,0,40.66,1001.08,2232680
0.118896,-0.0740356,1.03003,1.83105,0.671387,-32.959,-0.007,-0.144,70.34,0.0652618,-0.23172,0,0,0,0,0,40.66,1001.09,2232695
0.201538,0.0939941,0.999207,-0.244141,0.244141,-29.9683,0.174,-0.17,71.75,0.065979,-0.232422,0,0,0,0,0,40.66,1001.13,2232740
-0.072937,-0.108643,0.985229,0.854492,1.40381,-33.4473,-0.105,0.029,72.23,0.06633,-0.232727,0,0,0,0,0,40.66,1001.15,2232755
-0.132935,-0.065979,0.985413,1.0376,2.01416,-31.9214,-0.081,0.099,72.72,0.0665588,-0.232956,0,0,0,0,0,40.66,1001.16,2232770
0.00366211,-0.0527954,1.04938,0.732422,2.62451,-31.189,-0.027,-0.028,73.19,0.0667114,-0.233139,0,0,0,0,0,40.66,1001.18,2232785
-0.173157,-0.0727539,0.926025,2.0752,1.34277,-34.668,-0.098,0.139,74.18,0.066925,-0.23378,0,0,0,0,0,40.65,1001.21,2232815
0.0430298,0.0964966,1.04608,1.34277,1.15967,-32.8369,0.127,-0.025,74.68,0.0670319,-0.234039,0,0,0,0,0,40.65,1001.22,2232830
0.103271,-0.0128784,1.02649,0.183105,0.549316,-33.5693,0.035,-0.112,75.18,0.0672455,-0.23439,0,0,0,0,0,40.65,1001.23,2232845
0.0356445,0.10614,0.938782,0.305176,-0.427246,-35.4614,0.131,-0.015,75.69,0.0675659,-0.234818,0,0,0,0,0,40.65,1001.26,2232860
0.208191,0.151001,1.04462,0.0610352,1.0376,-32.8369,0.216,-0.177,76.71,0.0684509,-0.235626,0,0,0,0,0,40.65,1001.28,2232890
0.0296631,-0.0775146,0.975403,1.15967,0.366211,-35.3394,-0.05,-0.054,77.22,0.0690765,-0.236221,0,0,0,0,0,40.65,1001.29,2232905
-0.0115356,-0.106262,1.05817,1.0376,2.13623,-33.6304,-0.085,-0.02,78.26,0.0700073,-0.237244,0,0,0,0,0,40.65,1001.33,2232935
0.0997925,-0.026062,1.06525,1.28174,0.549316,-33.0811,0.014,-0.112,78.76,0.0703583,-0.237808,0,0,0,0,0,40.65,1001.34,2232950
-0.102112,-0.158264,0.944275,-0.366211,0.366211,-34.5459,-0.156,0.062,79.27,0.0706177,-0.238403,0,0,0,0,0,40.65,1001.35,2232965
-0.0755615,0.0153809,0.96637,1.34277,0.854492,-32.5928,0.02,0.067,79.77,0.0707855,-0.238907,0,0,0,0,0,40.65,1001.37,2232980
0.0144043,-0.178101,0.98291,2.38037,-0.12207,-31.189,-0.154,-0.053,80.25,0.0708466,-0.23941,0,0,0,0,0,40.65,1001.39,2232995
0.0266113,-0.0631714,1.06,1.89209,-0.0610352,-31.8603,-0.038,-0.045,80.7,0.0708008,-0.239975,0,0,0,0,0,40.65,1001.41,2233010
0.0351562,0.00628662,1.07855,1.46484,1.28174,-31.25,0.031,-0.043,81.66,0.0704651,-0.241043,0,0,0,0,0,40.65,1001.43,2233040
0.128479,-0.0787354,1.01282,0.488281,-0.244141,-30.9448,-0.042,-0.146,82.12,0.0702667,-0.241684,0,0,0,0,0,40.65,1001.45,2233055
-0.0241089,-0.130554,1.09167,-0.244141,1.77002,-32.7759,-0.112,-0.001,83.11,0.0697021,-0.243103,0,0,0,0,0,40.65,1001.47,2233085
0.195923,0.00256348,1.07623,-1.09863,1.46484,-30.0903,0.043,-0.203,83.57,0.0693359,-0.243927,0,0,0,0,0,40.65,1001.49,2233100
-0.0098877,0.00524902,0.887756,1.58691,-0.366211,-33.3862,0.02,0.003,84.06,0.0690002,-0.244904,0,0,0,0,0,40.65,1001.51,2233115
0.0078125,-0.0177612,1.01013,1.95312,1.64795,-31.4331,0.001,-0.019,85.07,0.0683136,-0.246597,0,0,0,0,0,40.65,1001.53,2233145
0.0344238,-0.0214844,1.04565,0.793457,0.610352,-32.8369,0,-0.045,85.54,0.0683136,-0.247452,0,0,0,0,0,40.65,1001.55,2233160
-0.105408,-0.163086,0.970947,-0.427246,1.40381,-34.79,-0.152,0.085,86.06,0.0682068,-0.248291,0,0,0,0,0,40.65,1001.57,2233176
0.183838,0.081665,1.02197,-1.34277,-0.854492,-31.25,0.109,-0.189,87.04,0.0679779,-0.250214,0,0,0,0,0,40.65,1001.59,2233205
-0.0695801,0.00823975,0.936096,-1.52588,-0.0610352,-35.0952,0.022,0.061,87.55,0.0680237,-0.251358,0,0,0,0,0,40.65,1001.61,2233220
-0.0315552,-0.0930786,1.06769,-2.13623,0.854492,-35.4614,-0.073,0.017,88.09,0.0680237,-0.252457,0,0,0,0,0,40.65,1001.63,2233236
0.0209351,0.127808,1.03094,0.854492,1.2207,-32.2266,0.147,-0.028,88.58,0.0680847,-0.253571,0,0,0,0,0,40.65,1001.65,2233250
-0.09198,-0.10083,1.03784,0.305176,0.915527,-36.8652,-0.081,0.081,89.59,0.0684357,-0.255875,0,0,0,0,0,40.65,1001.67,2233280
-0.00665283,-0.0897827,1.07513,-1.95312,2.0752,-33.8745,-0.067,-0.004,90.12,0.0684967,-0.256958,0,0,0,0,0,40.65,1001.69,2233296
-0.108032,-0.150513,0.986267,0.671387,1.40381,-32.2876,-0.127,0.102,91.04,0.0683594,-0.259354,0,0,0,0,0,40.69,1001.71,2233325
-0.0899048,-0.0281372,1.01257,1.28174,1.09863,-32.4707,-0.003,0.08,91.53,0.0681305,-0.260452,0,0,0,0,0,40.69,1001.73,2233340
0.0897217,-0.139526,0.994629,0.12207,0.610352,-28.1372,-0.12,-0.095,91.98,0.0678406,-0.261551,0,0,0,0,0,40.69,1001.75,2233356
-0.0779419,-0.0861816,1.02472,1.46484,0.976562,-30.5176,-0.059,0.072,92.84,0.0670166,-0.263916,0,0,0,0,0,40.69,1001.77,2233385
0.0379639,-0.0792847,1.05402,1.34277,1.28174,-29.7241,-0.058,-0.044,93.29,0.0665131,-0.265076,0,0,0,0,0,40.69,1001.79,2233400
0.0287476,-0.0131836,0.989746,2.0752,1.64795,-30.2124,0.006,-0.037,93.74,0.0659637,-0.266281,0,0,0,0,0,40.69,1001.81,2233416
0.048645,0.00970459,1.03735,1.89209,0.427246,-31.6162,0.027,-0.059,94.2,0.0654449,-0.267563,0,0,0,0,0,40.69,1001.83,2233430
0.0760498,0.00616455,0.986145,0.12207,0.610352,-33.9355,0.019,-0.086,95.21,0.0642242,-0.270081,0,0,0,0,0,40.69,1001.85,2233460
-0.0130615,-0.036377,0.994995,0,1.2207,-37.0483,-0.014,0.006,95.75,0.0642242,-0.271393,0,0,0,0,0,40.69,1001.87,2233476
0.124268,0.0648804,0.958191,-2.68555,-0.732422,-35.4614,0.068,-0.14,96.83,0.0641632,-0.274078,0,0,0,0,0,40.69,1001.89,2233505
0.00488281,0.0750122,0.877075,-0.0610352,-1.09863,-36.499,0.091,-0.023,97.38,0.0642548,-0.275589,0,0,0,0,0,40.69,1001.91,2233520
-0.0259399,-0.122131,1.05133,-2.13623,2.0752,-36.6211,-0.094,0.032,98.45,0.0644379,-0.27861,0,0,0,0,0,40.69,1001.94,2233550
0.0612793,0.137695,0.900879,-3.2959,-0.671387,-33.4473,0.146,-0.092,98.98,0.0645142,-0.280151,0,0,0,0,0,40.69,1001.95,2233565
0.0407715,0.00189209,0.965515,-0.549316,-1.52588,-33.5693,0.017,-0.051,99.48,0.0646973,-0.281784,0,0,0,0,0,40.69,1001.97,2233580
-0.0664673,-0.269104,1.09802,0.671387,1.28174,-33.5083,-0.228,0.1,99.98,0.064743,-0.283401,0,0,0,0,0,40.69,1001.99,2233596
-0.0118408,-0.0784302,0.956726,0.976562,0.915527,-31.0669,-0.051,0.016,100.9,0.0643158,-0.286545,0,0,0,0,0,40.69,1002.01,2233625
-0.013855,-0.0344238,1.00079,1.09863,0,-28.8696,-0.006,0.009,101.35,0.0639954,-0.288101,0,0,0,0,0,40.69,1002.03,2233640
0.0754395,0.0168457,1.04297,1.28174,-0.427246,-28.8086,0.026,-0.088,101.77,0.0637054,-0.289719,0,0,0,0,0,40.69,1002.05,2233656
0.0129395,-0.0690308,1.06488,2.80762,-0.0610352,-29.7241,-0.045,-0.008,102.68,0.0629578,-0.29306,0,0,0,0,0,40.69,1002.07,2233686
-0.00915527,-0.00372314,1.03943,0.854492,1.40381,-31.25,0.022,-0.001,103.14,0.0625305,-0.29306,0,0,0,0,0,40.69,1002.09,2233701
0.0211182,-0.104004,0.979309,-0.671387,1.28174,-33.0811,-0.083,-0.006,103.63,0.0620575,-0.29306,0,0,0,0,0,40.69,1002.11,2233716
-0.000549316,-0.0564575,1.0946,0.0610352,1.83105,-33.8745,-0.029,0.003,104.63,0.0610352,-0.29306,0,0,0,0,0,40.69,1002.14,2233746
0.0664673,-0.15863,0.977966,-2.74658,0.183105,-35.1562,-0.147,-0.033,105.16,0.0604248,-0.293076,0,0,0,0,0,40.69,1002.15,2233761
0.010376,-0.017395,0.987183,-2.0752,0.0610352,-34.1187,0.004,-0.016,105.67,0.0596924,-0.293137,0,0,0,0,0,40.69,1002.18,2233776
-0.0603638,0.0346069,0.995422,-0.427246,0.671387,-31.9824,0.075,0.036,106.17,0.0590363,-0.293167,0,0,0,0,0,40.69,1002.19,2233791
0.0078125,0.0877686,0.948303,1.89209,-0.366211,-29.602,0.105,-0.044,107.08,0.057724,-0.29332,0,0,0,0,0,40.67,1002.21,2233821
-0.0145264,-0.00958252,1.03485,0.305176,-0.12207,-30.7007,0.021,0.004,107.53,0.0571747,-0.293457,0,0,0,0,0,40.67,1002.23,2233836
0.0228882,-0.19751,1.04633,-2.01416,0.915527,-30.0903,-0.167,0.025,107.99,0.0565186,-0.293564,0,0,0,0,0,40.67,1002.25,2233851
0.012146,-0.0127563,1.02228,-0.854492,0.671387,-27.9541,0.013,-0.02,108.84,0.0548096,-0.293793,0,0,0,0,0,40.67,1002.27,2233881
-0.0209351,-0.0863647,0.999329,0.549316,1.34277,-28.8086,-0.046,0.034,109.27,0.0539093,-0.293915,0,0,0,0,0,40.67,1002.29,2233896
-0.00494385,-0.0563965,1.02454,1.46484,1.09863,-30.3345,-0.022,0.01,110.16,0.0518646,-0.294006,0,0,0,0,0,40.67,1002.31,2233926
-0.000427246,-0.0253296,1.02484,1.89209,0.732422,-31.5552,0.004,-0.004,110.63,0.0507812,-0.294006,0,0,0,0,0,40.67,1002.33,2233941
0.0088501,-0.0579224,1.01685,2.0752,1.15967,-33.5693,-0.029,-0.001,111.11,0.0496979,-0.294006,0,0,0,0,0,40.67,1002.35,2233956
-0.00750732,-0.0547485,1.00391,-1.52588,1.0376,-33.9966,-0.02,0.013,112.14,0.0474548,-0.294006,0,0,0,0,0,40.67,1002.37,2233986
-0.0227661,-0.0692139,1.01538,-1.95312,1.09863,-32.4707,-0.026,0.032,112.64,0.0462799,-0.293976,0,0,0,0,0,40.67,1002.39,2234001
0.0123291,-0.0272827,1.02423,-0.915527,0.549316,-29.1748,0,-0.016,113.09,0.045105,-0.293945,0,0,0,0,0,40.67,1002.41,2234016
-0.0167847,-0.0695801,1.03424,3.41797,0.854492,-26.7944,-0.028,0.027,113.89,0.0428162,-0.293884,0,0,0,0,0,40.67,1002.43,2234046
-0.0134277,-0.0556641,1.06964,3.17383,1.15967,-26.6724,-0.017,0.019,114.3,0.0416412,-0.293839,0,0,0,0,0,40.67,1002.45,2234061
-0.00140381,-0.024353,1.01544,2.01416,0.366211,-26.9165,0.004,-0.003,114.7,0.0416412,-0.293762,0,0,0,0,0,40.67,1002.47,2234076
0.00878906,0.0291748,1.00763,0.671387,0.549316,-28.1372,0.048,-0.035,115.53,0.0416718,-0.293701,0,0,0,0,0,40.67,1002.49,2234106
-0.0219727,-0.0333862,1.06384,0,1.0376,-28.8086,0.005,0.018,115.96,0.0417328,-0.293716,0,0,0,0,0,40.67,1002.51,2234121
0.00830078,0.0162964,1.01471,0.305176,0.854492,-29.8462,0.035,-0.029,116.4,0.0418396,-0.293716,0,0,0,0,0,40.67,1002.53,2234136
0.00335693,-0.0880737,0.981201,-2.38037,1.15967,-30.7007,-0.055,0.021,116.85,0.0419159,-0.293747,0,0,0,0,0,40.67,1002.55,2234151
0.0176392,0.0655518,0.985596,-3.35693,0,-26.8555,0.075,-0.062,117.72,0.0419922,-0.293808,0,0,0,0,0,40.67,1002.57,2234181
-0.00952148,-0.0164185,0.965942,-1.52588,0.305176,-26.001,0.015,0,118.12,0.0421143,-0.293915,0,0,0,0,0,40.67,1002.59,2234196
-0.0342407,-0.0595093,1.04651,0.12207,0.854492,-23.5596,-0.007,0.04,118.87,0.0422974,-0.294006,0,0,0,0,0,40.67,1002.61,2234226
0.0304565,-0.0396118,0.989258,0.793457,0.183105,-24.6582,-0.022,-0.024,119.24,0.0423431,-0.294006,0,0,0,0,0,40.67,1002.63,2234241
-0.026123,-0.0626221,1.00049,1.58691,0.610352,-25.0854,-0.014,0.035,119.61,0.0423737,-0.293991,0,0,0,0,0,40.67,1002.65,2234256
-0.0187378,-0.0767212,1.03986,0.793457,0.671387,-24.5972,-0.029,0.035,119.98,0.0423737,-0.29393,0,0,0,0,0,40.67,1002.67,2234271
-0.00817871,-0.00762939,1.00781,0.732422,0.671387,-27.0386,0.024,-0.007,120.75,0.0423737,-0.2939,0,0,0,0,0,40.67,1002.69,2234301
-0.0205688,-0.06427,1.05231,0.305176,0.976562,-25.8789,-0.016,0.031,121.15,0.0423737,-0.293884,0,0,0,0,0,40.67,1002.71,2234316
0.0327148,-0.0842896,1.02502,-1.77002,0.610352,-27.8931,-0.061,-0.003,121.56,0.0423431,-0.293854,0,0,0,0,0,40.68,1002.73,2234331
-0.00396729,0.0283203,0.989929,-0.183105,0.549316,-25.5127,0.053,-0.031,122.37,0.0421753,-0.293732,0,0,0,0,0,40.68,1002.75,2234361
-0.0286865,-0.085144,1.01178,1.95312,0.976562,-28.2593,-0.028,0.05,123.17,0.0420685,-0.293655,0,0,0,0,0,40.68,1002.78,2234391
-0.0228882,-0.0838013,1.03369,-0.0610352,0.610352,-27.3437,-0.029,0.044,123.58,0.0419617,-0.293533,0,0,0,0,0,40.68,1002.79,2234406
0.0165405,-0.010437,0.99707,-0.549316,0.427246,-27.3437,0.009,-0.028,124,0.0418396,-0.293411,0,0,0,0,0,40.68,1002.81,2234421
-0.00390625,-0.0424805,0.996887,0,0.488281,-29.0527,-0.005,0.006,124.42,0.0418396,-0.293304,0,0,0,0,0,40.68,1002.83,2234436
0.0339355,-0.0189209,0.975281,-2.19727,0.12207,-27.0386,-0.007,-0.038,125.29,0.0416565,-0.292831,0,0,0,0,0,40.68,1002.85,2234466
0.022644,0.0175171,0.949341,0.732422,0.488281,-25.3296,0.028,-0.05,125.68,0.0415497,-0.292633,0,0,0,0,0,40.68,1002.87,2234481
-0.000732422,0.0317383,1.00763,4.15039,0.488281,-25.1465,0.053,-0.04,126.05,0.0414886,-0.29248,0,0,0,0,0,40.68,1002.89,2234496
-0.00805664,-0.126648,1.02594,3.11279,0.610352,-24.9023,-0.069,0.059,126.43,0.0414276,-0.292313,0,0,0,0,0,40.68,1002.91,2234511
-0.0472412,-0.0379639,1.05713,-0.305176,1.0376,-26.4282,0.026,0.037,127.19,0.0411072,-0.29187,0,0,0,0,0,40.68,1002.93,2234541
0.00579834,0.00872803,0.974182,-1.2207,1.0376,-29.7241,0.029,-0.032,128.04,0.0407562,-0.291428,0,0,0,0,0,40.68,1002.96,2234571
0.00579834,0.00872803,0.974182,-1.2207,1.0376,-29.7241,0.029,-0.032,128.04,0.0407562,-0.291428,0,0,0,0,0,40.68,1002.97,2234571
0.0100098,-0.052063,0.950317,-1.58691,0.671387,-28.5034,-0.02,0.001,128.92,0.0404968,-0.290985,0,0,0,0,0,40.68,1002.99,2234601
-0.00177002,-0.00244141,0.980408,1.46484,0.915527,-26.7944,0.025,-0.021,129.33,0.0403595,-0.290787,0,0,0,0,0,40.68,1003.01,2234617
0.0251465,-0.122803,1.03625,3.2959,0.610352,-27.3437,-0.084,0.035,130.1,0.0402527,-0.290405,0,0,0,0,0,40.68,1003.03,2234646
-0.0464478,-0.0569458,1.0191,1.28174,0.671387,-30.8838,0.012,0.048,130.55,0.0401459,-0.290146,0,0,0,0,0,40.68,1003.05,2234661
0.0319214,-0.0263672,1.01678,-2.0752,1.28174,-28.9917,-0.015,-0.031,130.99,0.0401459,-0.289871,0,0,0,0,0,40.68,1003.07,2234677
-0.0634766,-0.0340576,1.05365,0.305176,1.83105,-35.2173,0.042,0.044,131.96,0.0401764,-0.289459,0,0,0,0,0,40.68,1003.09,2234706
-0.0234985,-0.0961304,0.99353,0.244141,1.64795,-34.668,-0.031,0.058,132.49,0.0402222,-0.289169,0,0,0,0,0,40.68,1003.12,2234721
0.0213013,-0.0333862,1.03973,0.12207,1.58691,-33.4473,-0.014,-0.017,132.99,0.0402374,-0.288864,0,0,0,0,0,40.68,1003.13,2234737
0.0145874,-0.0103149,1.04169,-0.549316,0.366211,-35.2783,0.006,-0.028,133.51,0.0402374,-0.288589,0,0,0,0,0,40.68,1003.15,2234751
-0.0325317,-0.176575,1.00055,-1.58691,0.854492,-31.7383,-0.079,0.121,134.51,0.0401917,-0.28804,0,0,0,0,0,40.68,1003.17,2234781
-0.0454712,-0.0757446,1.06903,-3.84521,1.0376,-28.7476,0.004,0.057,134.97,0.0401001,-0.287613,0,0,0,0,0,40.68,1003.19,2234797
0.0032959,-0.0714722,0.94751,-4.57764,0.183105,-28.0762,-0.029,0.021,135.39,0.0399933,-0.287125,0,0,0,0,0,40.68,1003.21,2234811
-0.036499,-0.0299072,1.03546,3.90625,0.915527,-21.0571,0.03,0.017,136.13,0.0397186,-0.286194,0,0,0,0,0,40.7,1003.23,2234841
0.0806274,-0.0613403,1.05139,3.479,0,-22.0337,-0.075,-0.04,136.44,0.039566,-0.285751,0,0,0,0,0,40.7,1003.25,2234857
-0.0512085,-0.0150757,1.02765,3.90625,1.15967,-24.4751,0.05,0.018,137.16,0.0391388,-0.284927,0,0,0,0,0,40.7,1003.27,2234886
0.00201416,-0.0847778,1.09607,0,0.793457,-28.5034,-0.035,0.032,137.57,0.0389404,-0.28447,0,0,0,0,0,40.7,1003.29,2234901
0.0230713,0.0419922,0.935547,-0.671387,1.34277,-30.8228,0.031,-0.071,138.03,0.0387421,-0.284042,0,0,0,0,0,40.7,1003.31,2234917
-0.0352783,0.00531006,1.02032,-1.34277,1.58691,-30.4565,0.051,-0.007,138.49,0.0386047,-0.283676,0,0,0,0,0,40.7,1003.33,2234931
0.0897827,-0.0645752,1.00085,-5.18799,0.793457,-33.8135,-0.089,-0.037,139.48,0.0382996,-0.282898,0,0,0,0,0,40.7,1003.35,2234961
-0.113953,0.0559082,0.931335,-1.46484,-0.305176,-32.7148,0.142,0.003,139.99,0.038147,-0.282547,0,0,0,0,0,40.7,1003.37,2234977
-0.0261841,0.0698853,1.05811,0.183105,1.28174,-31.3721,0.086,-0.068,140.46,0.038147,-0.282227,0,0,0,0,0,40.7,1003.39,2234991
-0.027832,-0.113281,1.0354,-2.62451,-0.12207,-31.7383,-0.026,0.074,141.42,0.0381165,-0.281525,0,0,0,0,0,40.7,1003.42,2235021
-0.00921631,0.0254517,0.981323,-0.854492,1.15967,-30.0903,0.043,-0.045,141.87,0.0380859,-0.281113,0,0,0,0,0,40.7,1003.44,2235037
0.0162964,-0.10376,1.00873,-1.2207,1.28174,-28.4424,-0.053,0.039,142.78,0.0379639,-0.280106,0,0,0,0,0,40.7,1003.46,2235067
0.0297241,-0.0445557,0.997986,-4.3335,-1.40381,-27.1606,-0.028,-0.016,143.18,0.0378113,-0.279541,0,0,0,0,0,40.7,1003.47,2235082
-0.0766602,0.00341797,0.992249,-0.12207,1.58691,-28.2593,0.086,0.008,143.61,0.0377045,-0.279541,0,0,0,0,0,40.7,1003.49,2235097
0.0549316,-0.0805054,0.973328,0.0610352,0.671387,-25.8789,-0.07,-0.001,144.01,0.0376129,-0.279541,0,0,0,0,0,40.7,1003.51,2235112
-0.0986328,-0.0372925,1.01196,2.13623,1.09863,-27.4658,0.081,0.051,144.82,0.0373535,-0.279602,0,0,0,0,0,40.7,1003.54,2235142
-0.010498,-0.120422,1.0022,-0.854492,0.366211,-29.48,-0.038,0.068,145.24,0.037262,-0.279556,0,0,0,0,0,40.7,1003.55,2235157
0.0475464,-0.0164795,1.07104,-2.68555,0.549316,-27.3437,-0.025,-0.052,145.67,0.0371399,-0.27948,0,0,0,0,0,40.7,1003.57,2235172
0.000488281,-0.0617676,0.957031,-0.854492,-0.732422,-30.3345,-0.014,0.016,146.55,0.0370178,-0.279495,0,0,0,0,0,40.7,1003.59,2235202
-0.0236816,-0.00927734,1.02997,0.427246,1.0376,-30.8228,0.036,-0.018,147.01,0.0369873,-0.279526,0,0,0,0,0,40.7,1003.61,2235217
-0.0480347,0.0442505,0.991089,-1.15967,0.549316,-29.0527,0.085,-0.049,147.44,0.0370331,-0.279587,0,0,0,0,0,40.7,1003.63,2235232
0.0469971,0.0181885,1.0274,-0.915527,0.12207,-31.4331,-0.009,-0.079,148.38,0.0371552,-0.279861,0,0,0,0,0,40.7,1003.65,2235262
-0.107788,0.0413208,0.984253,0.976562,2.38037,-31.0059,0.133,-0.017,148.84,0.0372467,-0.28009,0,0,0,0,0,40.7,1003.68,2235277
0.0621338,0.0621948,0.995239,0,1.46484,-34.729,-0.002,-0.123,149.34,0.0374146,-0.280426,0,0,0,0,0,40.7,1003.69,2235292
-0.0257568,0.0702515,0.96582,-0.671387,0.488281,-33.2642,0.074,-0.085,150.33,0.0377197,-0.281372,0,0,0,0,0,40.7,1003.71,2235322
-0.0686646,0.0601807,0.995056,-0.0610352,1.64795,-34.1797,0.106,-0.057,150.84,0.0379944,-0.281982,0,0,0,0,0,40.7,1003.73,2235337
-0.00445557,0.039917,1.02362,-3.54004,-0.0610352,-32.6538,0.039,-0.073,151.81,0.0386963,-0.283203,0,0,0,0,0,40.67,1003.75,2235367
-0.0908203,-0.173157,1.00739,-0.244141,1.77002,-32.7759,0.016,0.155,152.3,0.039093,-0.283768,0,0,0,0,0,40.67,1003.78,2235382
-0.0909424,-0.305176,1.17389,-1.40381,3.96728,-30.5786,-0.039,0.264,152.77,0.0394745,-0.284042,0,0,0,0,0,40.67,1003.79,2235397
0.00848389,-0.0587158,1.04706,-4.63867,0.12207,-28.0762,-0.016,0.003,153.2,0.0398102,-0.284134,0,0,0,0,0,40.67,1003.81,2235412
-0.0706177,-0.138428,1.01917,1.2207,1.2207,-26.1841,0.019,0.111,154.05,0.0401306,-0.284195,0,0,0,0,0,40.67,1003.83,2235442
0.0557251,-0.0679932,1.05139,0.366211,0.366211,-25.7568,-0.063,-0.008,154.43,0.0401001,-0.284119,0,0,0,0,0,40.67,1003.85,2235457
-0.022583,-0.20697,1.08392,-0.366211,1.34277,-26.6113,-0.048,0.149,155.23,0.0398102,-0.283646,0,0,0,0,0,40.67,1003.88,2235487
0.000305176,-0.0657959,1.01508,0.671387,1.89209,-27.2217,-0.011,0.014,155.65,0.0395813,-0.283203,0,0,0,0,0,40.67,1003.89,2235502
0.0010376,-0.0241699,0.968384,0.488281,1.46484,-28.7476,0.003,-0.021,156.07,0.0393372,-0.282776,0,0,0,0,0,40.67,1003.91,2235517
0.0172729,-0.0787964,1.01569,-0.549316,2.68555,-30.4565,-0.032,0.019,156.96,0.0393219,-0.281891,0,0,0,0,0,40.67,1003.93,2235547
-0.0274048,-0.122314,1.07208,0,2.68555,-31.1279,-0.007,0.075,157.42,0.0392761,-0.281372,0,0,0,0,0,40.67,1003.95,2235562
-0.0510864,-0.0389404,1.05499,2.80762,2.44141,-29.2969,0.045,0.008,157.86,0.0392456,-0.280792,0,0,0,0,0,40.67,1003.97,2235577
-0.0461426,-0.0467529,1.00543,2.0752,1.52588,-30.2124,0.036,0.016,158.3,0.0392914,-0.280212,0,0,0,0,0,40.67,1003.99,2235592
-0.0230103,-0.0162964,0.968323,-0.366211,1.15967,-29.541,0.025,-0.019,159.22,0.0393982,-0.278915,0,0,0,0,0,40.67,1004.01,2235622
-0.000244141,0.0124512,0.956238,-0.854492,-0.793457,-30.6396,0.013,-0.053,159.68,0.0394745,-0.27832,0,0,0,0,0,40.67,1004.03,2235637
-0.0835571,-0.0460205,1.10358,-1.28174,1.28174,-30.9448,0.073,0.023,160.14,0.0396118,-0.277725,0,0,0,0,0,40.67,1004.05,2235652
-0.00250244,-0.0305176,0.985474,-1.64795,-0.732422,-31.9214,0.001,-0.014,161.08,0.0400085,-0.27713,0,0,0,0,0,40.67,1004.07,2235682
-0.0314331,0.0512695,1.08582,-0.793457,0.793457,-29.9072,0.055,-0.086,161.54,0.0402374,-0.277191,0,0,0,0,0,40.67,1004.09,2235697
-0.0280762,-0.0111084,1.08997,0.12207,-0.0610352,-31.3721,0.033,-0.029,162.47,0.0410004,-0.277771,0,0,0,0,0,40.67,1004.12,2235727
0.0576782,-0.0534668,1.14441,-2.74658,0.732422,-31.6772,-0.061,-0.016,162.93,0.0413971,-0.278152,0,0,0,0,0,40.67,1004.13,2235742
-0.0142212,0.0197754,0.925903,-0.549316,-0.366211,-31.0059,0.027,-0.056,163.4,0.0417786,-0.27858,0,0,0,0,0,40.67,1004.15,2235757
0.0181274,-0.124939,1.02972,-0.183105,0.0610352,-32.2266,-0.043,0.069,164.35,0.0425873,-0.27948,0,0,0,0,0,40.67,1004.17,2235787
-0.050354,-0.0162964,0.897339,-0.854492,-0.427246,-29.9072,0.051,-0.011,164.81,0.0429993,-0.279861,0,0,0,0,0,40.67,1004.19,2235802
-0.026001,0.00756836,1.01129,0.183105,0.183105,-32.6538,0.034,-0.046,165.28,0.043457,-0.280289,0,0,0,0,0,40.67,1004.21,2235817
-0.000793457,-0.120911,1.02655,0,0.244141,-29.9683,-0.021,0.071,165.73,0.0439148,-0.280701,0,0,0,0,0,40.67,1004.23,2235832
-0.0411377,-0.119019,1.09192,3.11279,1.77002,-32.8979,0.02,0.077,166.66,0.0449677,-0.281448,0,0,0,0,0,40.67,1004.25,2235862
0.00421143,-0.0205078,1.03314,1.77002,2.0752,-32.7148,-0.002,-0.025,167.15,0.0455475,-0.281784,0,0,0,0,0,40.67,1004.27,2235877
0.0646362,-0.0678101,1.008,1.15967,-0.366211,-33.8135,-0.071,0.009,167.66,0.046051,-0.28212,0,0,0,0,0,40.67,1004.29,2235892
-0.102844,-0.0316772,0.954834,0.488281,1.09863,-34.3628,0.099,0.011,168.68,0.0469055,-0.282715,0,0,0,0,0,40.67,1004.31,2235922
0.0541382,0.0914307,0.936096,-0.610352,0.244141,-33.0811,-0.033,-0.138,169.71,0.0479279,-0.283188,0,0,0,0,0,40.67,1004.35,2235952
-0.0726929,0.0967407,0.923584,0.366211,0.305176,-35.2783,0.091,-0.12,170.22,0.0484772,-0.283615,0,0,0,0,0,40.67,1004.35,2235967
-0.0635376,0.086731,0.983154,1.28174,2.56348,-32.2266,0.078,-0.115,170.72,0.0491486,-0.284195,0,0,0,0,0,40.67,1004.37,2235982
0.0480957,-0.0663452,0.940186,-1.0376,-0.366211,-33.02,-0.055,0.02,171.2,0.0498352,-0.284851,0,0,0,0,0,40.67,1004.39,2235998
-0.0114746,-0.131775,1.1059,1.0376,2.19727,-31.9214,-0.006,0.088,172.16,0.0513458,-0.286331,0,0,0,0,0,40.67,1004.41,2236027
0.0502319,-0.2677,1.00409,1.15967,2.86865,-33.5693,-0.083,0.219,172.66,0.0520782,-0.286896,0,0,0,0,0,40.67,1004.43,2236042
-0.0431519,0.111572,0.98877,0.366211,0.488281,-32.5928,0.055,-0.144,173.16,0.0527802,-0.287399,0,0,0,0,0,40.67,1004.45,2236058
-0.0477905,-0.00939941,1.08759,0.183105,1.64795,-32.8979,0.045,-0.028,173.65,0.0535583,-0.28801,0,0,0,0,0,40.67,1004.47,2236072
-0.046814,-0.0355835,0.946167,1.40381,1.40381,-32.959,0.041,0.003,174.62,0.0550232,-0.289322,0,0,0,0,0,40.67,1004.49,2236102
-0.273376,-0.123962,1.069031,0.7422,3.78418,-32.1655,0.259,0.104,175.58,0.0566864,-0.289261,0,0,0,0,0,40.67,1004.53,2236132
-0.0809937,0.222717,0.94104,5.43213,1.09863,-32.1045,0.09,-0.251,176.5,0.0588074,-0.288513,0,0,0,0,0,40.67,1004.55,2236162
-0.0564575,-0.0892334,1.22174,0.183105,3.60107,-30.9448,0.045,0.05,176.96,0.059967,-0.288254,0,0,0,0,0,40.67,1004.57,2236178
-0.0640259,0.0245361,0.978027,-0.610352,2.31934,-32.2266,0.059,-0.055,177.89,0.0622559,-0.287888,0,0,0,0,0,40.67,1004.6,2236207
-0.0139771,-0.039978,1.01215,-0.488281,1.46484,-32.8369,0.006,0.005,178.38,0.063446,-0.287796,0,0,0,0,0,40.67,1004.61,2236222
-0.010376,-0.00787354,1.12872,-1.83105,2.80762,-32.4707,0.002,-0.03,178.86,0.063446,-0.28772,0,0,0,0,0,40.67,1004.63,2236238
-0.043396,0.0393066,0.956726,-0.183105,1.28174,-32.1045,0.037,-0.071,179.35,0.0634766,-0.28772,0,0,0,0,0,40.67,1004.65,2236252
0.0100708,-0.0360107,1.00195,-1.09863,1.28174,-32.2266,-0.017,0.002,-179.7,0.0635681,-0.287842,0,0,0,0,0,40.67,1004.67,2236282
0.00744629,0.105713,0.920166,-0.305176,0.793457,-30.6396,-0.016,-0.137,-179.23,0.0635681,-0.28801,0,0,0,0,0,40.67,1004.69,2236298
-0.074707,-0.0274048,1.03369,-1.70898,0.427246,-33.0811,0.066,-0.009,-178.74,0.0635986,-0.288269,0,0,0,0,0,40.67,1004.71,2236312
-0.0870972,0.0421143,0.907349,2.0752,1.40381,-32.0435,0.076,-0.076,-177.79,0.0638275,-0.288849,0,0,0,0,0,40.67,1004.74,2236342
-0.0360107,-0.0588989,1.11353,1.95312,1.2207,-33.3252,0.027,0.02,-177.3,0.0640259,-0.2892,0,0,0,0,0,40.67,1004.76,2236358
0.0310059,-0.0501099,1.06958,-0.793457,2.2583,-33.1421,-0.038,0.016,-176.81,0.0642242,-0.289536,0,0,0,0,0,40.67,1004.77,2236372
-0.0215454,-0.0513306,1.04919,0.732422,1.77002,-33.1421,0.013,0.015,-175.8,0.0645447,-0.290085,0,0,0,0,0,40.67,1004.79,2236402
0.0404663,-0.036377,1.01678,0.12207,1.15967,-34.2407,-0.048,0.006,-175.3,0.064682,-0.290329,0,0,0,0,0,40.67,1004.82,2236418
0.0300293,0.036499,1.03937,0.0610352,0.671387,-32.5928,-0.046,-0.066,-174.29,0.0650635,-0.290939,0,0,0,0,0,40.67,1004.85,2236447
-0.00891113,-0.0977173,1.04828,0.488281,1.52588,-34.0576,0.006,0.062,-173.78,0.0652618,-0.29129,0,0,0,0,0,40.67,1004.86,2236463
-0.0562134,0.0443115,0.987183,-0.427246,1.70898,-32.7759,0.037,-0.081,-173.29,0.0654755,-0.291641,0,0,0,0,0,40.67,1004.87,2236478
-0.0402222,-0.0951538,1.08331,-0.854492,2.56348,-32.5317,0.037,0.054,-172.29,0.0660095,-0.292252,0,0,0,0,0,40.67,1004.91,2236508
-0.0418701,0.0195923,0.912842,0.732422,0.793457,-33.4473,0.024,-0.054,-171.79,0.06633,-0.292511,0,0,0,0,0,40.67,1004.91,2236523
-0.145752,-0.147766,1.08405,1.28174,2.92969,-32.8369,0.15,0.089,-171.3,0.0667877,-0.29274,0,0,0,0,0,40.67,1004.93,2236538
0.0874023,-0.031189,0.983093,-1.34277,0,-32.1655,-0.096,0.014,-170.81,0.0672607,-0.292892,0,0,0,0,0,40.67,1004.95,2236553
-0.0622559,-0.057373,1.09229,0.793457,3.78418,-31.1279,0.052,0.011,-169.84,0.068161,-0.293304,0,0,0,0,0,40.67,1004.97,2236583
0.0626831,-0.0396118,1.02222,0.793457,2.2583,-33.02,-0.071,0.019,-169.36,0.0686188,-0.293503,0,0,0,0,0,40.67,1004.99,2236598
-0.0883789,-0.00579834,0.933838,-0.610352,1.46484,-32.6538,0.071,-0.039,-168.86,0.0690918,-0.293716,0,0,0,0,0,40.67,1005.01,2236613
0.0139771,-0.0508423,1.00073,-0.427246,1.58691,-32.4097,-0.021,0.022,-167.88,0.0701447,-0.294144,0,0,0,0,0,40.67,1005.03,2236643
0.0361328,0.0532837,0.827881,-3.96728,-1.83105,-32.2876,-0.062,-0.068,-167.39,0.0706177,-0.294388,0,0,0,0,0,40.67,1005.05,2236658
-0.0549927,-0.0213623,0.995789,-1.89209,0.305176,-33.9355,0.038,-0.021,-166.89,0.0710754,-0.294678,0,0,0,0,0,40.67,1005.07,2236673
-0.0343628,-0.0513306,0.989685,1.77002,0.427246,-32.8369,0.026,0.013,-165.94,0.0719452,-0.295227,0,0,0,0,0,40.67,1005.09,2236703
-0.083374,-0.0421143,1.10706,2.99072,2.13623,-33.5083,0.069,-0.011,-165.43,0.0724335,-0.295227,0,0,0,0,0,40.67,1005.11,2236718
0.0405273,0.012207,1.01453,1.0376,0.793457,-32.5928,-0.063,-0.029,-164.94,0.072937,-0.295258,0,0,0,0,0,40.67,1005.13,2236733
-0.0637207,-0.00970459,1.03888,-0.0610352,1.34277,-34.2407,0.042,-0.036,-163.94,0.0739594,-0.295288,0,0,0,0,0,40.67,1005.15,2236763
-0.00524902,-0.0592041,0.940857,-0.671387,0.244141,-34.729,0.002,0.029,-163.42,0.0745392,-0.295319,0,0,0,0,0,40.67,1005.17,2236778
-0.00195312,-0.0500488,1.12262,-2.31934,0.549316,-34.3628,-0.006,0.016,-162.91,0.0751038,-0.295319,0,0,0,0,0,40.67,1005.19,2236793
-0.0259399,-0.0307617,0.923096,-1.15967,0.854492,-33.9966,0.014,-0.004,-161.87,0.0751038,-0.295364,0,0,0,0,0,40.67,1005.21,2236823
-0.0177612,-0.0300293,1.06055,-1.40381,0,-34.3628,0.003,-0.006,-161.36,0.0751038,-0.29541,0,0,0,0,0,40.67,1005.23,2236838
-0.00170898,-0.0628662,1.15204,-2.80762,1.28174,-34.6069,-0.002,0.025,-160.85,0.0751038,-0.295441,0,0,0,0,0,40.67,1005.25,2236853
0.0195312,-0.0249634,0.98053,-1.95312,-2.13623,-33.8745,-0.031,0.001,-159.83,0.0751495,-0.295517,0,0,0,0,0,40.65,1005.27,2236883
0.0227661,-0.00848389,1.08179,0,0.732422,-31.3721,-0.042,-0.015,-158.35,0.0751953,-0.295303,0,0,0,0,0,40.65,1005.32,2236928
-0.0487671,-0.0889893,0.982666,1.52588,1.0376,-31.6772,0.056,0.035,-157.88,0.0751801,-0.295135,0,0,0,0,0,40.65,1005.34,2236943
