raw_accel_x,raw_accel_y,raw_accel_z,raw_gyro_x,raw_gyro_y,raw_gyro_z,world_accel_x,world_accel_y,yaw,x,y,z,left_encoder_rate,right_encoder_rate,left_motor,right_motor,temp,fpga time,navx time
-0.00994873,-0.0170898,1.01135,0,-0.12207,0,0,0,-2.24,-0.00288391,0.00120544,0,0,0,0,0,39.46,263.267,1494853
-0.00994873,-0.0170898,1.01135,0,-0.12207,0,0,0,-2.24,-0.00288391,0.00120544,0,0,0,0,0,39.46,263.274,1494853
-0.0123291,-0.0163574,1.01678,0.0610352,-0.12207,0,-0.002,0,0,0,0,0,0,0,0,0,39.46,263.292,1494883
-0.0100098,-0.0160522,1.01849,-0.0610352,-0.12207,0,0,0,0,0,0,0,0,0,0,0,39.46,263.313,1494898
-0.00701904,-0.0140381,1.01239,0,0.0610352,0,0.003,0.002,0,0,0,0,0,0,0,0,39.46,263.333,1494915
-0.0119019,-0.0164185,1.01617,-0.12207,-0.183105,0.0610352,-0.001,0,0,0,0,0,0,0,0,0,39.46,263.353,1494943
-0.00646973,-0.0180664,1.01147,-0.0610352,-0.12207,-0.0610352,0.003,-0.001,0,0,0,0,0,0,0,0,39.46,263.373,1494958
-0.0113525,-0.0181274,1.01355,0,-0.12207,0.0610352,-0.001,-0.001,0,0,0,0,0,0,0,0,39.46,263.393,1494973
-0.0109253,-0.0189819,1.01196,0,-0.0610352,0,0,-0.002,0,0,0,0,0,0,0,0,39.46,263.416,1495003
-0.00994873,-0.0164795,1.01526,0,-0.183105,0.12207,0,0,0,0,0,0,0,0,0,0,39.46,263.432,1495018
-0.00994873,-0.0172119,1.01776,0.0610352,0.0610352,0,0,0,0,0,0,0,0,0,0,0,39.46,263.453,1495033
-0.0102539,-0.0149536,1.01416,0.12207,0,0,0,0.001,0,0,0,0,0,0,0,0,39.46,263.474,1495063
-0.00958252,-0.0195312,1.01599,0,0.0610352,0.12207,0,-0.002,0,0,0,0,0,0,0,0,39.46,263.493,1495078
-0.0103149,-0.0170288,1.01349,-0.0610352,-0.0610352,0.12207,0,0,0,0,0,0,0,0,0,0,39.46,263.513,1495093
-0.0116577,-0.0168457,1.01147,-0.0610352,-0.0610352,0,-0.001,0,0,0,0,0,0,0,0,0,39.46,263.533,1495108
-0.010498,-0.0188599,1.01508,-0.0610352,-0.12207,0,0,-0.002,0,0,0,0,0,0,0,0,39.46,263.553,1495138
-0.00836182,-0.015625,1.01263,-0.0610352,-0.183105,-0.0610352,0.001,0.001,0,0,0,0,0,0,0,0,39.46,263.585,1495168
-0.0107422,-0.0181885,1.01794,0,0.0610352,0,0,-0.001,0,0,0,0,0,0,0,0,39.46,263.593,1495183
-0.00927734,-0.0187378,1.01483,-0.0610352,-0.0610352,-0.12207,0.001,-0.001,0,0,0,0,0,0,0,0,39.46,263.613,1495198
-0.012207,-0.0172729,1.01617,0.0610352,0,0,-0.001,0,0,0,0,0,0,0,0,0,39.46,263.633,1495213
-0.0100708,-0.0188599,1.01129,-0.0610352,-0.0610352,0.0610352,0,-0.002,-0.01,0,0,0,0,0,0,0,39.46,263.653,1495243
-0.0088501,-0.0179443,1.01031,-0.0610352,0,-0.0610352,0.001,-0.001,-0.01,0,0,0,0,0,0,0,39.46,263.673,1495259
-0.0123901,-0.015686,1.01465,-0.12207,-0.0610352,-0.0610352,-0.002,0.001,0,0,0,0,0,0,0,0,39.46,263.693,1495273
-0.0109863,-0.0194092,1.01251,0,0.0610352,-0.0610352,0,-0.002,0,0,0,0,0,0,0,0,39.46,263.713,1495303
-0.0101318,-0.0200195,1.02075,-0.0610352,-0.12207,0,0,-0.003,0,0,0,0,0,0,0,0,39.46,263.733,1495319
-0.0100708,-0.0177612,1.01361,0,0,0.0610352,0,0,0,0,0,0,0,0,0,0,39.42,263.753,1495333
-0.0098877,-0.0177612,1.01666,0.0610352,0,0,0,0,0,0,0,0,0,0,0,0,39.42,263.774,1495363
-0.00854492,-0.0178833,1.01764,-0.0610352,-0.0610352,-0.0610352,0.001,0,0,0,0,0,0,0,0,0,39.42,263.793,1495379
-0.012207,-0.0183105,1.01691,-0.0610352,-0.12207,0.0610352,-0.001,-0.001,0,0,0,0,0,0,0,0,39.42,263.813,1495394
-0.0090332,-0.0171509,1.01263,0.0610352,-0.0610352,-0.0610352,0.001,0,0,0,0,0,0,0,0,0,39.42,263.833,1495423
-0.0105591,-0.0161743,1.01819,0,0,0,0,0,0,0,0,0,0,0,0,0,39.42,263.853,1495439
-0.010498,-0.0182495,1.02155,-0.0610352,-0.0610352,0,0,-0.001,0,0,0,0,0,0,0,0,39.42,263.873,1495453
-0.00927734,-0.0201416,1.01398,0.0610352,0.183105,0.0610352,0.001,-0.003,-0.01,0,0,0,0,0,0,0,39.42,263.893,1495483
-0.0112915,-0.0166626,1.0141,0.12207,0,-0.0610352,0,0,-0.01,0,0,0,0,0,0,0,39.42,263.913,1495499
-0.0101318,-0.015686,1.01453,-0.0610352,-0.0610352,0,0,0.001,-0.01,0,0,0,0,0,0,0,39.42,263.936,1495513
-0.0114136,-0.0177612,1.01367,0.0610352,0.0610352,0.0610352,0,0,-0.01,0,0,0,0,0,0,0,39.42,263.954,1495543
-0.0110474,-0.0152588,1.02075,0.0610352,0.0610352,-0.0610352,0,0.001,-0.01,0,0,0,0,0,0,0,39.42,263.974,1495559
-0.0106812,-0.0188599,1.01691,-0.0610352,-0.12207,-0.0610352,0,-0.001,-0.01,0,0,0,0,0,0,0,39.42,263.994,1495573
-0.0142822,-0.0159912,1.01318,-0.0610352,-0.0610352,0,-0.003,0,0,0,0,0,0,0,0,0,39.42,264.013,1495603
-0.00958252,-0.0166626,1.0188,0,0,-0.12207,0.001,0,0,0,0,0,0,0,0,0,39.42,264.038,1495619
-0.0103149,-0.0192261,1.0191,-0.0610352,-0.183105,0,0,-0.002,0,0,0,0,0,0,0,0,39.42,264.053,1495633
-0.0125732,-0.0192261,1.01147,-0.0610352,-0.0610352,0.0610352,-0.002,-0.002,0,0,0,0,0,0,0,0,39.42,264.074,1495663
-0.012085,-0.0195312,1.01508,0,0,0,-0.001,-0.002,0,0,0,0,0,0,0,0,39.42,264.093,1495679
-0.0090332,-0.0136108,1.01636,-0.0610352,-0.0610352,0.0610352,0.001,0.003,0,0,0,0,0,0,0,0,39.42,264.113,1495693
-0.00854492,-0.0161133,1.01678,0.0610352,-0.12207,0.0610352,0.002,0,-0.01,0,0,0,0,0,0,0,39.42,264.134,1495723
-0.0111084,-0.0181274,1.01605,-0.0610352,-0.0610352,-0.0610352,0,-0.001,-0.01,0,0,0,0,0,0,0,39.42,264.154,1495739
-0.012085,-0.0175171,1.01538,0.0610352,-0.0610352,-0.12207,-0.001,0,-0.01,0,0,0,0,0,0,0,39.42,264.173,1495753
-0.0111694,-0.0177612,1.01459,-0.0610352,-0.0610352,-0.0610352,0,0,-0.01,0,0,0,0,0,0,0,39.42,264.194,1495783
-0.00946045,-0.0171509,1.00739,0.0610352,0.0610352,-0.0610352,0.001,0,0,0,0,0,0,0,0,0,39.42,264.212,1495799
-0.0111084,-0.0153809,1.01227,0,0,0,0,0.001,0,0,0,0,0,0,0,0,39.42,264.232,1495814
-0.0122681,-0.0170898,1.00995,-0.0610352,-0.0610352,0.0610352,-0.001,0,-0.01,0,0,0,0,0,0,0,39.42,264.252,1495829
-0.0108643,-0.0140381,1.01221,0.12207,0.0610352,0.0610352,0,0.002,-0.01,0,0,0,0,0,0,0,39.42,264.273,1495859
-0.00958252,-0.0174561,1.01636,0,-0.0610352,-0.0610352,0,0,-0.01,0,0,0,0,0,0,0,39.42,264.293,1495874
-0.012207,-0.0177002,1.01599,0.0610352,0.183105,-0.0610352,-0.001,0,-0.01,0,0,0,0,0,0,0,39.42,264.312,1495889
-0.010376,-0.0180664,1.00983,-0.0610352,-0.0610352,0,0,-0.001,0,0,0,0,0,0,0,0,39.42,264.332,1495919
-0.00805664,-0.0145874,1.01508,0,0,0,0.002,0.002,0,0,0,0,0,0,0,0,39.42,264.352,1495934
-0.00805664,-0.0145874,1.01508,0,0,0,0.002,0.002,0,0,0,0,0,0,0,0,39.42,264.372,1495934
-0.00805664,-0.0145874,1.01508,0,0,0,0.002,0.002,0,0,0,0,0,0,0,0,39.42,264.392,1495934
-0.0090332,-0.0184937,1.01404,-0.0610352,-0.0610352,-0.0610352,0.001,-0.001,-0.01,0,0,0,0,0,0,0,39.42,264.412,1495949
-0.0090332,-0.0184937,1.01404,-0.0610352,-0.0610352,-0.0610352,0.001,-0.001,-0.01,0,0,0,0,0,0,0,39.42,264.433,1495949
-0.0090332,-0.0184937,1.01404,-0.0610352,-0.0610352,-0.0610352,0.001,-0.001,-0.01,0,0,0,0,0,0,0,39.42,264.452,1495949
-0.0090332,-0.0184937,1.01404,-0.0610352,-0.0610352,-0.0610352,0.001,-0.001,-0.01,0,0,0,0,0,0,0,39.42,264.473,1495949
-0.0123291,-0.0194092,1.01062,-0.0610352,-0.0610352,0.0610352,-0.001,-0.002,-0.01,0,0,0,0,0,0,0,39.42,264.497,1496087
-0.00921631,-0.0170898,1.00812,0.12207,0,-0.12207,0.001,0,-0.01,0,0,0,0,0,0,0,39.42,264.513,1496099
-0.00952148,-0.0214844,1.01208,0.0610352,-0.0610352,-0.183105,0.001,-0.004,-0.01,0,0,0,0,0,0,0,39.42,264.533,1496117
-0.00952148,-0.0214844,1.01208,0.0610352,-0.0610352,-0.183105,0.001,-0.004,-0.01,0,0,0,0,0,0,0,39.42,264.553,1496117
-0.00952148,-0.0214844,1.01208,0.0610352,-0.0610352,-0.183105,0.001,-0.004,-0.01,0,0,0,0,0,0,0,39.42,264.573,1496117
-0.0123291,-0.0197144,1.01575,0,0.183105,0.0610352,-0.001,-0.002,-0.01,0,0,0,0,0,0,0,39.42,264.594,1496183
-0.010498,-0.0137939,1.01416,-0.12207,-0.183105,-0.0610352,0,0.003,-0.01,0,0,0,0,0,0,0,39.42,264.612,1496204
-0.0109863,-0.017334,1.01672,-0.0610352,-0.0610352,0,0,0,-0.01,0,0,0,0,0,0,0,39.42,264.632,1496219
-0.0101318,-0.019165,1.00317,0.0610352,-0.0610352,0.0610352,0,-0.002,-0.01,0,0,0,0,0,0,0,39.42,264.653,1496234
-0.0105591,-0.013916,1.01733,0.0610352,-0.0610352,-0.12207,0,0.002,-0.01,0,0,0,0,0,0,0,39.42,264.673,1496264
-0.0107422,-0.0198975,1.01257,-0.0610352,-0.0610352,0,0,-0.003,-0.01,0,0,0,0,0,0,0,39.42,264.693,1496279
-0.00909424,-0.0188599,1.01495,0,0,0,0.001,-0.002,-0.01,0,0,0,0,0,0,0,39.42,264.713,1496294
-0.0124512,-0.0183105,1.01685,-0.0610352,-0.0610352,0,-0.001,-0.001,-0.01,0,0,0,0,0,0,0,39.42,264.733,1496309
-0.0114136,-0.0164185,1.01453,-0.0610352,-0.0610352,0,0,0,-0.01,0,0,0,0,0,0,0,39.42,264.755,1496339
-0.0109253,-0.0189209,1.01758,-0.12207,-0.0610352,-0.12207,0,-0.002,-0.01,0,0,0,0,0,0,0,39.44,264.773,1496354
-0.00976562,-0.0143433,1.01294,-0.0610352,-0.0610352,0.0610352,0,0.002,-0.01,0,0,0,0,0,0,0,39.44,264.795,1496384
-0.0117188,-0.0181885,1.01385,0,0,0,-0.001,-0.001,-0.01,0,0,0,0,0,0,0,39.44,264.813,1496399
-0.012207,-0.0151367,1.02002,0,0.0610352,0.0610352,-0.001,0.001,-0.01,0,0,0,0,0,0,0,39.44,264.833,1496414
-0.0125732,-0.0167236,1.01355,0,-0.0610352,0.0610352,-0.002,0,-0.01,0,0,0,0,0,0,0,39.44,264.865,1496444
-0.0067749,-0.0160522,1.01654,0,0,-0.0610352,0.003,0,-0.01,0,0,0,0,0,0,0,39.44,264.873,1496459
-0.0109253,-0.0166016,1.01483,-0.0610352,0.0610352,0.0610352,0,0,-0.01,0,0,0,0,0,0,0,39.44,264.894,1496474
-0.00933838,-0.0177002,1.0155,-0.0610352,-0.0610352,0.183105,0.001,0,-0.01,0,0,0,0,0,0,0,39.44,264.913,1496489
-0.00933838,-0.0160522,1.01672,0,0,0,0.001,0,-0.01,0,0,0,0,0,0,0,39.44,264.933,1496519
-0.0126953,-0.0151978,1.01471,0.0610352,0.0610352,-0.0610352,-0.002,0.001,-0.01,0,0,0,0,0,0,0,39.44,264.953,1496534
-0.0119629,-0.0170898,1.01147,-0.0610352,-0.0610352,0.0610352,-0.001,0,-0.01,0,0,0,0,0,0,0,39.44,264.973,1496564
-0.00946045,-0.0152588,1.01337,-0.0610352,-0.12207,0,0.001,0.001,-0.01,0,0,0,0,0,0,0,39.44,264.995,1496579
-0.00952148,-0.0168457,1.01532,0.0610352,0.0610352,0,0.001,0,-0.01,0,0,0,0,0,0,0,39.44,265.013,1496594
-0.0116577,-0.0182495,1.01483,0.0610352,0.0610352,-0.0610352,0,-0.001,-0.01,0,0,0,0,0,0,0,39.44,265.033,1496624
-0.00976562,-0.0178833,1.01447,0.0610352,0.0610352,-0.12207,0,-0.001,-0.01,0,0,0,0,0,0,0,39.44,265.053,1496639
-0.00488281,-0.0179443,1.01349,0.0610352,0.12207,0,0.005,-0.001,-0.01,0,0,0,0,0,0,0,39.44,265.073,1496654
-0.0130005,-0.0152588,1.01703,0,-0.0610352,0,-0.002,0.001,-0.01,0,0,0,0,0,0,0,39.44,265.093,1496669
-0.0098877,-0.0169067,1.01538,0,0,-0.0610352,0,0,-0.01,0,0,0,0,0,0,0,39.44,265.113,1496699
-0.0114136,-0.0183716,1.02075,0.0610352,0,-0.0610352,0,-0.001,-0.01,0,0,0,0,0,0,0,39.44,265.134,1496714
-0.00933838,-0.0171509,1.0116,0,-0.12207,0.0610352,0.001,0,-0.01,0,0,0,0,0,0,0,39.44,265.154,1496744
-0.0107422,-0.0153809,1.01605,0,0,-0.0610352,0,0.001,-0.01,0,0,0,0,0,0,0,39.44,265.173,1496760
-0.010376,-0.0194702,1.01819,0.0610352,-0.0610352,-0.0610352,0,-0.002,-0.01,0,0,0,0,0,0,0,39.44,265.193,1496774
-0.00683594,-0.0144043,1.01862,-0.183105,-0.0610352,-0.0610352,0.003,0.002,-0.01,0,0,0,0,0,0,0,39.44,265.213,1496804
-0.00714111,-0.0189209,1.01245,0,0,0,0.003,-0.002,-0.01,0,0,0,0,0,0,0,39.44,265.233,1496820
-0.00939941,-0.0166016,1.01959,-0.0610352,-0.0610352,0.0610352,0.001,0,-0.01,0,0,0,0,0,0,0,39.44,265.253,1496834
-0.0112305,-0.0184937,1.01453,-0.0610352,-0.0610352,0,0,-0.001,-0.01,0,0,0,0,0,0,0,39.44,265.274,1496849
-0.0133667,-0.0166016,1.01691,0,-0.0610352,0,-0.002,0,-0.01,0,0,0,0,0,0,0,39.44,265.293,1496880
-0.0108643,-0.0174561,1.01129,-0.0610352,-0.0610352,0.0610352,0,0,-0.01,0,0,0,0,0,0,0,39.44,265.313,1496894
-0.0120239,-0.0172729,1.01581,-0.0610352,-0.0610352,0.12207,-0.001,0,-0.01,0,0,0,0,0,0,0,39.44,265.333,1496924
-0.00982666,-0.0141602,1.01355,-0.0610352,-0.0610352,0.0610352,0,0.002,-0.02,0,0,0,0,0,0,0,39.44,265.353,1496940
-0.00769043,-0.0180054,1.01617,-0.12207,-0.183105,0,0.003,-0.001,-0.02,0,0,0,0,0,0,0,39.44,265.373,1496954
-0.0112305,-0.0185547,1.01935,0,-0.12207,0,0,-0.001,-0.02,0,0,0,0,0,0,0,39.44,265.393,1496969
-0.0110474,-0.0170288,1.01544,-0.0610352,-0.12207,-0.0610352,0,0,-0.01,0,0,0,0,0,0,0,39.44,265.413,1497000
-0.0078125,-0.0184937,1.01831,-0.0610352,-0.12207,-0.0610352,0.002,-0.001,-0.02,0,0,0,0,0,0,0,39.44,265.433,1497014
-0.0126343,-0.017334,1.01691,0.0610352,0,-0.0610352,-0.002,0,-0.02,0,0,0,0,0,0,0,39.44,265.454,1497044
-0.00854492,-0.0195312,1.01721,-0.0610352,-0.183105,0,0.002,-0.002,-0.02,0,0,0,0,0,0,0,39.44,265.474,1497060
-0.0131226,-0.0166016,1.01904,-0.12207,-0.0610352,-0.0610352,-0.002,0,-0.01,0,0,0,0,0,0,0,39.44,265.494,1497074
-0.00982666,-0.0154419,1.01678,0,0.0610352,-0.12207,0,0.001,-0.01,0,0,0,0,0,0,0,39.44,265.513,1497089
-0.0116577,-0.0168457,1.01117,0,0,0,-0.001,0,-0.01,0,0,0,0,0,0,0,39.44,265.533,1497120
-0.0102539,-0.0159302,1.01495,0,0,0.0610352,0,0,-0.01,0,0,0,0,0,0,0,39.44,265.552,1497134
-0.0119019,-0.0177002,1.01349,0,-0.12207,0.0610352,-0.001,0,-0.02,0,0,0,0,0,0,0,39.44,265.585,1497164
-0.00970459,-0.0169067,1.01758,0.0610352,0,0,0,0,-0.02,0,0,0,0,0,0,0,39.44,265.594,1497180
-0.00897217,-0.0195923,1.01343,0,0,-0.0610352,0.001,-0.002,-0.02,0,0,0,0,0,0,0,39.44,265.612,1497194
-0.00982666,-0.0160522,1.01404,-0.0610352,-0.0610352,0.0610352,0,0,-0.02,0,0,0,0,0,0,0,39.44,265.632,1497209
-0.00952148,-0.0150146,1.01819,0,0,0,0.001,0.001,-0.02,0,0,0,0,0,0,0,39.44,265.652,1497240
-0.0119629,-0.0179443,1.01666,-0.12207,-0.183105,0,-0.001,-0.001,-0.02,0,0,0,0,0,0,0,39.44,265.676,1497254
-0.0117188,-0.0171509,1.01135,0,-0.0610352,-0.0610352,-0.001,0,-0.02,0,0,0,0,0,0,0,39.44,265.693,1497269
-0.00976562,-0.0151367,1.01483,0,0.0610352,0.12207,0,0.001,-0.02,0,0,0,0,0,0,0,39.44,265.713,1497300
-0.0107422,-0.0209351,1.01489,-0.0610352,-0.12207,0,0,-0.004,-0.02,0,0,0,0,0,0,0,39.44,265.734,1497315
-0.010437,-0.017334,1.01758,0,0.0610352,0.0610352,0,0,-0.02,0,0,0,0,0,0,0,39.44,265.753,1497345
-0.0124512,-0.0164795,1.01685,-0.0610352,-0.0610352,0,-0.001,0,-0.02,0,0,0,0,0,0,0,39.44,265.774,1497360
-0.00976562,-0.0154419,1.01514,-0.12207,-0.12207,0.0610352,0,0.001,-0.02,0,0,0,0,0,0,0,39.43,265.793,1497375
-0.0125122,-0.0150146,1.01624,0.12207,0,-0.12207,-0.002,0.001,-0.02,0,0,0,0,0,0,0,39.43,265.814,1497405
-0.010437,-0.0181274,1.01196,0.12207,0,-0.12207,0,-0.001,-0.02,0,0,0,0,0,0,0,39.43,265.833,1497420
-0.00860596,-0.0162964,1.02136,-0.0610352,-0.0610352,-0.12207,0.001,0,-0.02,0,0,0,0,0,0,0,39.43,265.853,1497435
-0.0110474,-0.0172729,1.0127,0,-0.0610352,0.0610352,0,0,-0.02,0,0,0,0,0,0,0,39.43,265.873,1497465
-0.00970459,-0.0172119,1.01434,0,0,0,0,0,-0.02,0,0,0,0,0,0,0,39.43,265.893,1497480
-0.0105591,-0.0160522,1.01794,-0.0610352,-0.183105,0.0610352,0,0,-0.02,0,0,0,0,0,0,0,39.43,265.913,1497495
-0.00878906,-0.015686,1.0188,0,0,0,0.001,0.001,-0.02,0,0,0,0,0,0,0,39.43,265.932,1497510
-0.00964355,-0.0153809,1.0188,0.0610352,0.12207,-0.0610352,0,0.001,-0.02,0,0,0,0,0,0,0,39.43,265.953,1497540
-0.00921631,-0.0180664,1.01587,0,0,-0.12207,0.001,-0.001,-0.02,0,0,0,0,0,0,0,39.43,265.976,1497555
-0.0100098,-0.0192871,1.01825,0,-0.0610352,0,0,-0.002,-0.02,0,0,0,0,0,0,0,39.43,265.992,1497570
-0.0102539,-0.0189819,1.01489,-0.0610352,-0.183105,0.12207,0,-0.002,-0.02,0,0,0,0,0,0,0,39.43,266.013,1497600
-0.0100098,-0.0153198,1.0199,0.0610352,0.0610352,-0.0610352,0,0.001,-0.02,0,0,0,0,0,0,0,39.43,266.034,1497615
-0.00994873,-0.0161743,1.01361,-0.0610352,-0.12207,0.0610352,0,0,-0.02,0,0,0,0,0,0,0,39.43,266.053,1497630
-0.00494385,-0.102478,1.03265,-1.0376,-0.244141,0.793457,0.005,-0.085,-0.02,0,-4.57764e-05,0,0,0,0,0,39.43,266.073,1497660
-0.0267944,-0.0577393,1.00201,-2.13623,-0.244141,0.305176,-0.016,-0.039,-0.04,0,-0.000183105,0,0,0,0,0,39.43,266.092,1497675
-0.00537109,-0.0358276,1.00378,-1.70898,-0.0610352,-0.732422,0.005,-0.017,-0.03,0,-0.000366211,0,0,0,0,0,39.43,266.113,1497690
-0.0440063,-0.0300293,1.01105,2.01416,-0.12207,0.183105,-0.033,-0.011,-0.02,-1.52588e-05,-0.000366211,0,0,0,0,0,39.43,266.133,1497720
-0.00494385,-0.0397949,1.02661,2.31934,-0.12207,-0.305176,0.005,-0.021,-0.02,-4.57764e-05,-0.000396729,0,0,0,0,0,39.43,266.153,1497735
0.00714111,-0.059082,1.03784,1.15967,0,0.244141,0.017,-0.04,-0.02,-6.10352e-05,-0.000457764,0,0,0,0,0,39.43,266.173,1497750
-0.0135498,-0.0317993,1.02887,-0.793457,0,-1.15967,-0.002,-0.013,0,-6.10352e-05,-0.000549316,0,0,0,0,0,39.43,266.2,1497780
0.00366211,-0.0172119,1.00409,-0.671387,-0.183105,-0.915527,0.013,0,0.01,-6.10352e-05,-0.000549316,0,0,0,0,0,39.43,266.213,1497795
-0.0268555,0.00933838,1.0199,-0.12207,0,-0.488281,-0.016,0.027,0.02,-6.10352e-05,-0.000518799,0,0,0,0,0,39.43,266.232,1497810
-0.00170898,-0.0123291,1.01764,0.488281,-0.0610352,0.793457,0.008,0.005,0,-6.10352e-05,-0.000427246,0,0,0,0,0,39.43,266.253,1497840
-0.019043,-0.0261841,1.01678,0.183105,0.0610352,0.549316,-0.008,-0.008,0,-6.10352e-05,-0.000427246,0,0,0,0,0,39.43,266.277,1497855
-0.0169067,-0.00915527,1.01331,-1.15967,-0.12207,0.183105,-0.006,0.009,-0.02,-6.10352e-05,-0.000427246,0,0,0,0,0,39.44,266.297,1497885
-0.00683594,-0.015625,0.999878,-1.09863,-0.366211,0.183105,0.003,0.002,-0.02,-6.10352e-05,-0.000427246,0,0,0,0,0,39.44,266.313,1497900
-0.0165405,-0.0325928,1.02051,-0.793457,-0.183105,-0.183105,-0.006,-0.013,-0.02,-6.10352e-05,-0.000427246,0,0,0,0,0,39.44,266.333,1497915
-0.00408936,-0.0115356,1.00494,1.0376,-0.0610352,-0.305176,0.006,0.006,-0.01,-6.10352e-05,-0.00038147,0,0,0,0,0,39.44,266.353,1497945
-0.012146,-0.0444946,1.03253,0.732422,0.0610352,-0.610352,-0.001,-0.026,0,-6.10352e-05,-0.000366211,0,0,0,0,0,39.44,266.373,1497960
-0.00695801,-0.0293579,1.0257,-0.366211,-0.0610352,-0.976562,0.003,-0.01,0,-6.10352e-05,-0.000366211,0,0,0,0,0,39.44,266.393,1497975
-0.00408936,0.00427246,1.00482,-0.488281,-0.0610352,-0.244141,0.006,0.022,0.01,-6.10352e-05,-0.000366211,0,0,0,0,0,39.44,266.413,1497990
-0.0043335,-0.0236206,1.01587,-0.976562,-0.183105,4.45557,0.006,-0.004,-0.06,-6.10352e-05,-0.000457764,0,0,0,0,0,39.44,266.434,1498020
-0.0140381,0.0135498,1.00452,0.183105,0.305176,4.69971,-0.003,0.032,-0.13,-6.10352e-05,-0.00050354,0,0,0,0,0,39.44,266.453,1498035
-0.0211792,-0.026123,1.01868,1.28174,0.427246,6.34766,-0.01,-0.007,-0.21,-6.10352e-05,-0.000534058,0,0,0,0,0,39.44,266.473,1498050
-0.0126953,-0.0296631,1.01624,-1.09863,-0.305176,11.6577,-0.002,-0.01,-0.52,-6.10352e-05,-0.000717163,0,0,0,0,0,39.44,266.495,1498080
-0.0167236,-0.00457764,1.00464,-0.427246,-0.0610352,11.8408,-0.006,0.014,-0.7,-6.10352e-05,-0.000839233,0,0,0,0,0,39.44,266.513,1498095
-0.0139771,0.0010376,0.996826,0.427246,-0.183105,13.916,-0.003,0.02,-0.9,-6.10352e-05,-0.000930786,0,0,0,0,0,39.44,266.534,1498110
-0.0236206,-0.0405273,1.02991,0.183105,-0.183105,10.9253,-0.012,-0.021,-1.28,-6.10352e-05,-0.00114441,0,0,0,0,0,39.44,266.553,1498140
-0.0240479,-0.0214233,1.00171,-0.793457,-0.488281,11.1694,-0.013,-0.002,-1.44,-6.10352e-05,-0.00128174,0,0,0,0,0,39.44,266.574,1498155
-0.00506592,-0.0233765,1.01752,-0.488281,-0.549316,10.437,0.005,-0.003,-1.61,-6.10352e-05,-0.00143433,0,0,0,0,0,39.44,266.594,1498170
-0.00909424,-0.0129395,1.00366,0.12207,-0.610352,11.9019,0.001,0.006,-1.94,-6.10352e-05,-0.00143433,0,0,0,0,0,39.44,266.613,1498201
-0.00714111,-0.0145874,1.01532,1.0376,-0.305176,12.0239,0.003,0.004,-2.12,-6.10352e-05,-0.00143433,0,0,0,0,0,39.44,266.634,1498215
-0.00811768,-0.027832,1.02094,0.0610352,-0.366211,11.1694,0.002,-0.008,-2.47,-6.10352e-05,-0.00143433,0,0,0,0,0,39.44,266.653,1498245
-0.0055542,-0.0134888,1.01831,-0.671387,-0.305176,10.8643,0.004,0.005,-2.63,-6.10352e-05,-0.00143433,0,0,0,0,0,39.44,266.673,1498261
-0.0186157,-0.0215454,1.01025,-0.793457,-0.244141,11.9019,-0.008,-0.002,-2.81,-6.10352e-05,-0.00143433,0,0,0,0,0,39.44,266.693,1498275
-0.0032959,-0.0951538,1.02527,-1.28174,-0.488281,12.0239,0.011,-0.074,-3.16,-6.10352e-05,-0.00146484,0,0,0,0,0,39.44,266.713,1498305
-0.0287476,-0.0090332,1.01282,-1.77002,-0.244141,11.5356,-0.019,0.01,-3.34,-6.10352e-05,-0.0015564,0,0,0,0,0,39.44,266.733,1498321
-0.0153198,-0.020813,1.00128,-0.0610352,0,11.2915,-0.005,0,-3.5,-6.10352e-05,-0.00163269,0,0,0,0,0,39.44,266.753,1498335
-0.00463867,-0.0792236,1.02313,0.732422,-0.183105,13.1836,0.009,-0.057,-3.69,-6.10352e-05,-0.00175476,0,0,0,0,0,39.44,266.774,1498350
-0.0140991,0.0177002,1.01166,-0.976562,-0.0610352,12.5732,-0.006,0.039,-4.1,-6.10352e-05,-0.00224304,0,0,0,0,0,39.44,266.795,1498381
-0.010376,-0.0266113,0.995911,0.732422,-0.488281,12.9395,0,-0.004,-4.29,-6.10352e-05,-0.00248718,0,0,0,0,0,39.43,266.813,1498395
-0.022583,-0.0822754,1.00098,0.671387,-0.732422,12.9395,-0.007,-0.061,-4.49,-6.10352e-05,-0.0027771,0,0,0,0,0,39.43,266.834,1498410
-0.0107422,-0.0032959,1.03009,1.34277,-0.549316,11.1084,-0.001,0.018,-4.84,-6.10352e-05,-0.00337219,0,0,0,0,0,39.43,266.852,1498441
-0.0315552,-0.0557861,1.01953,1.09863,-0.427246,11.4746,-0.018,-0.036,-5.01,-6.10352e-05,-0.00366211,0,0,0,0,0,39.43,266.872,1498455
-0.00671387,-0.0656128,1.00079,-0.854492,-1.0376,12.8174,0.007,-0.043,-5.19,-6.10352e-05,-0.00401306,0,0,0,0,0,39.43,266.892,1498470
-0.0249023,0.00396729,1.01434,-0.183105,-0.610352,11.2915,-0.017,0.023,-5.57,-6.10352e-05,-0.00480652,0,0,0,0,0,39.43,266.912,1498501
-0.0334473,-0.0203857,0.963623,0.732422,-0.793457,12.207,-0.024,-0.002,-5.74,-9.15527e-05,-0.00518799,0,0,0,0,0,39.43,266.932,1498515
0.0444946,-0.00201416,1.03564,0.305176,-0.976562,12.9395,0.052,0.025,-5.93,-0.000106812,-0.0055542,0,0,0,0,0,39.43,266.952,1498530
-0.0630493,-0.0446777,0.962158,-0.0610352,-0.610352,13.1226,-0.051,-0.03,-6.29,-9.15527e-05,-0.00619507,0,0,0,0,0,39.43,266.974,1498561
0.0334473,-0.00787354,1.0202,-0.427246,-1.09863,14.7095,0.041,0.018,-6.51,-0.000106812,-0.00653076,0,0,0,0,0,39.43,266.993,1498575
-0.0319214,0.0123901,1.06604,-0.366211,0,14.3433,-0.026,0.031,-6.73,-0.000106812,-0.00682068,0,0,0,0,0,39.43,267.012,1498590
0.0275879,0.0525513,1.0238,-3.2959,-0.671387,15.9912,0.026,0.08,-7.2,-0.000137329,-0.00765991,0,0,0,0,0,39.43,267.033,1498621
0.00640869,0.0088501,0.981812,-1.0376,-0.0610352,13.6719,0.01,0.032,-7.41,-0.00012207,-0.00802612,0,0,0,0,0,39.43,267.052,1498635
-0.031311,-0.11731,1.05005,0.854492,-0.0610352,13.1226,-0.009,-0.095,-7.61,-9.15527e-05,-0.00843811,0,0,0,0,0,39.43,267.073,1498651
-0.0103149,0.0352783,0.968628,0.183105,0.793457,10.0708,-0.009,0.057,-7.98,-9.15527e-05,-0.00952148,0,0,0,0,0,39.43,267.092,1498681
0.0164185,-0.0643921,0.95282,-0.0610352,-0.427246,8.54492,0.03,-0.037,-8.1,-7.62939e-05,-0.0100555,0,0,0,0,0,39.43,267.113,1498695
-0.0341187,-0.0539551,1.05096,1.09863,-0.305176,8.97217,-0.019,-0.031,-8.24,-6.10352e-05,-0.0106354,0,0,0,0,0,39.43,267.133,1498710
-0.00152588,-0.0239258,0.99115,-2.01416,-0.671387,10.1929,0.007,0.003,-8.49,-3.05176e-05,-0.0121307,0,0,0,0,0,39.43,267.153,1498741
-0.0346069,-0.0164185,0.985413,0.915527,-0.732422,10.7422,-0.026,0.005,-8.65,-4.57764e-05,-0.0121307,0,0,0,0,0,39.43,267.172,1498756
0.00933838,-0.0720215,1.01935,2.74658,-0.671387,10.8643,0.025,-0.042,-8.81,-6.10352e-05,-0.0121613,0,0,0,0,0,39.43,267.192,1498771
-0.0385742,-0.0652466,1.03992,-0.671387,-0.732422,13.4888,-0.022,-0.041,-9.19,-0.000137329,-0.0125275,0,0,0,0,0,39.43,267.213,1498801
0.013855,0.057251,0.98114,1.2207,-1.09863,13.4888,0.008,0.085,-9.4,-0.000198364,-0.0127411,0,0,0,0,0,39.43,267.233,1498816
-0.0432739,-0.0637207,1.05347,1.09863,-1.0376,14.6484,-0.027,-0.041,-9.61,-0.000274658,-0.0129089,0,0,0,0,0,39.43,267.253,1498831
0.0101318,-0.0408936,1.05591,-0.12207,-0.488281,13.0005,0.021,-0.01,-10.04,-0.00038147,-0.0133209,0,0,0,0,0,39.43,267.274,1498861
-0.0775146,-0.0887451,1.10242,-0.244141,0.244141,12.9395,-0.056,-0.072,-10.23,-0.000427246,-0.0135803,0,0,0,0,0,39.43,267.293,1498876
0.0202026,0.00750732,1.01117,0,-0.244141,14.4043,0.022,0.037,-10.44,-0.000518799,-0.0138702,0,0,0,0,0,39.43,267.314,1498891
-0.0465088,0.0428467,1.00262,-0.12207,-0.12207,13.1836,-0.05,0.058,-10.83,-0.000640869,-0.0143738,0,0,0,0,0,39.44,267.333,1498921
-0.0205688,0.0057373,1.00757,-0.732422,-0.366211,14.2822,-0.017,0.027,-11.04,-0.000747681,-0.0145416,0,0,0,0,0,39.44,267.353,1498936
0.00946045,-0.0237427,0.980469,-3.60107,-0.610352,13.3667,0.016,0.005,-11.25,-0.000869751,-0.0146942,0,0,0,0,0,39.44,267.375,1498951
-0.0560303,-0.0268555,1.03961,0.915527,-0.0610352,12.4512,-0.046,-0.008,-11.63,-0.00088501,-0.0148773,0,0,0,0,0,39.44,267.393,1498981
0.0159912,-0.125732,1.04272,0.366211,-0.244141,11.0474,0.043,-0.09,-11.81,-0.000930786,-0.0150146,0,0,0,0,0,39.44,267.413,1498996
0.0316772,0.0496216,0.960205,0.671387,-1.40381,8.91113,0.022,0.082,-11.96,-0.000915527,-0.015152,0,0,0,0,0,39.44,267.433,1499011
-0.00622559,-0.0556641,1.07434,1.77002,0.427246,9.8877,0.007,-0.025,-12.23,-0.000823975,-0.0154419,0,0,0,0,0,39.44,267.453,1499041
-0.0240479,-0.00799561,1.02313,0.915527,-0.183105,8.30078,-0.019,0.015,-12.37,-0.000823975,-0.015625,0,0,0,0,0,39.44,267.473,1499056
0.00701904,-0.0714111,1.01056,0.427246,0,10.6201,0.024,-0.04,-12.5,-0.000823975,-0.0158081,0,0,0,0,0,39.44,267.493,1499071
0.0198975,0.121643,0.949158,-0.244141,-1.77002,11.4136,-0.006,0.149,-12.87,-0.000839233,-0.0162506,0,0,0,0,0,39.44,267.513,1499101
-0.0163574,-0.0128784,1.1189,0.610352,0.183105,11.0474,-0.011,0.014,-13.03,-0.000839233,-0.0163269,0,0,0,0,0,39.44,267.536,1499116
-0.0472412,0.0285034,0.958679,1.58691,-0.183105,13.3057,-0.05,0.043,-13.22,-0.00088501,-0.0163727,0,0,0,0,0,39.44,267.553,1499131
0.00323486,-0.0761719,1.08887,1.70898,0.12207,12.0239,0.023,-0.045,-13.59,-0.000976562,-0.0165558,0,0,0,0,0,39.44,267.574,1499161
0.00177002,0.0128784,0.99353,0.244141,-1.09863,13.2446,0,0.038,-13.78,-0.000976562,-0.0166779,0,0,0,0,0,39.44,267.593,1499176
0.00939941,-0.0534058,1.08606,-0.854492,0.427246,14.7095,0.024,-0.022,-14.21,-0.000930786,-0.016922,0,0,0,0,0,39.44,267.616,1499206
-0.00854492,0.00775146,0.989807,-1.40381,-1.09863,13.3057,-0.008,0.03,-14.41,-0.00088501,-0.0170288,0,0,0,0,0,39.44,267.634,1499221
0.0172729,0.0255737,0.888733,-0.305176,-1.28174,14.5874,0.011,0.051,-14.63,-0.00088501,-0.0170898,0,0,0,0,0,39.44,267.653,1499236
0.0473633,-0.00360107,0.993896,0.12207,-0.488281,14.7705,0.048,0.033,-14.86,-0.000839233,-0.0171051,0,0,0,0,0,39.44,267.673,1499251
-0.0526733,0.0532837,1.01636,-0.183105,-0.0610352,14.5874,-0.063,0.062,-15.28,-0.000762939,-0.0171509,0,0,0,0,0,39.44,267.693,1499281
0.00622559,0.0250854,1.04553,-1.15967,0.244141,15.0757,0,0.051,-15.5,-0.000793457,-0.0171051,0,0,0,0,0,39.44,267.713,1499296
-0.0160522,-0.0192261,1.05725,-0.427246,-0.915527,14.6484,-0.009,0.003,-15.72,-0.000823975,-0.0170288,0,0,0,0,0,39.44,267.733,1499311
-0.0579224,-0.157227,0.982056,-0.732422,-0.183105,13.4277,-0.011,-0.142,-16.14,-0.000976562,-0.016861,0,0,0,0,0,39.44,267.753,1499341
0.0956421,-0.0458984,0.99469,-0.244141,-0.305176,12.207,0.105,0.007,-16.34,-0.00100708,-0.0169067,0,0,0,0,0,39.44,267.774,1499356
0.0257568,-0.00537109,1.10944,0.610352,1.70898,12.2681,0.026,0.029,-16.52,-0.000930786,-0.0169373,0,0,0,0,0,39.44,267.793,1499371
0.0377197,-0.0396729,1.01068,0.732422,0.671387,11.7187,0.048,-0.002,-16.84,-0.00088501,-0.0171509,0,0,0,0,0,39.44,267.813,1499401
0.019104,0.0925293,0.957214,0.488281,0.854492,13.3667,-0.007,0.117,-17.04,-0.000823975,-0.0172272,0,0,0,0,0,39.43,267.833,1499416
-0.0513306,-0.0911865,1.14081,-1.83105,0.427246,14.8926,-0.019,-0.074,-17.46,-0.000854492,-0.0172882,0,0,0,0,0,39.43,267.853,1499446
-0.0809326,0.0498657,1.02588,-1.83105,0.427246,17.0898,-0.09,0.048,-17.71,-0.000961304,-0.0173645,0,0,0,0,0,39.43,267.873,1499461
0.0501099,0.105774,0.88855,0.976562,-2.38037,16.5405,0.016,0.138,-17.96,-0.00111389,-0.0173035,0,0,0,0,0,39.43,267.892,1499476
0.0536499,-0.0346069,1.03357,-0.366211,-2.44141,16.2964,0.063,0.009,-18.21,-0.0012207,-0.0171661,0,0,0,0,0,39.43,267.912,1499491
0.0119629,-0.0693359,1.03162,-0.0610352,-1.09863,15.686,0.034,-0.036,-18.7,-0.00138855,-0.0170441,0,0,0,0,0,39.43,267.932,1499521
0.00793457,-0.0350342,1.04712,1.28174,0.244141,15.686,0.019,-0.005,-18.94,-0.00144958,-0.0170441,0,0,0,0,0,39.43,267.955,1499536
0.0455322,-0.0292358,0.98645,-0.427246,-1.46484,15.0757,0.053,0.01,-19.17,-0.00146484,-0.0170441,0,0,0,0,0,39.43,267.973,1499551
0.000671387,0.015625,0.980347,-2.01416,0.854492,15.564,-0.004,0.038,-19.61,-0.00135803,-0.0171051,0,0,0,0,0,39.43,267.993,1499581
0.050415,0.0479736,1.01624,-0.854492,0.0610352,14.8315,0.03,0.086,-19.83,-0.00126648,-0.0170441,0,0,0,0,0,39.43,268.013,1499596
-0.0343628,0.00323486,1.04779,-0.366211,0.427246,14.2212,-0.033,0.016,-20.04,-0.00119019,-0.016922,0,0,0,0,0,39.43,268.033,1499611
-0.00457764,-0.141907,1.09711,-0.427246,0.427246,12.8174,0.045,-0.107,-20.46,-0.00109863,-0.0168762,0,0,0,0,0,39.43,268.052,1499641
-0.0275879,0.0289307,1.04272,1.15967,-0.488281,12.8174,-0.035,0.042,-20.65,-0.0010376,-0.0169678,0,0,0,0,0,39.43,268.073,1499656
-0.078125,0.00445557,0.948059,0.976562,-1.95312,12.8784,-0.074,0,-20.84,-0.0010376,-0.0170135,0,0,0,0,0,39.43,268.093,1499671
-0.0901489,-0.0162354,1.10864,0.12207,0.305176,15.0757,-0.077,-0.021,-21.26,-0.00111389,-0.0173798,0,0,0,0,0,39.43,268.113,1499702
0.00256348,0.0255127,1.06439,-0.366211,-1.15967,15.5029,-0.006,0.049,-21.49,-0.0012207,-0.0175934,0,0,0,0,0,39.43,268.134,1499716
-0.0314941,0.0153198,0.988281,0.12207,-2.01416,15.7471,-0.035,0.025,-21.71,-0.00134277,-0.017746,0,0,0,0,0,39.43,268.153,1499731
0.0223389,-0.0109253,0.950623,-0.549316,-1.34277,16.9067,0.023,0.02,-22.21,-0.00158691,-0.0180817,0,0,0,0,0,39.43,268.174,1499762
0.0142822,0.0240479,1.05994,-0.854492,0,15.9912,0.002,0.052,-22.47,-0.00166321,-0.0182037,0,0,0,0,0,39.43,268.193,1499776
-0.041626,0.00567627,0.994507,0.244141,-0.244141,14.8926,-0.042,0.012,-22.69,-0.00177002,-0.01828,0,0,0,0,0,39.43,268.213,1499791
-0.0424194,-0.0838623,1.03864,0.183105,0.793457,13.916,-0.008,-0.07,-23.13,-0.00196838,-0.0186462,0,0,0,0,0,39.43,268.232,1499822
0.0201416,0.0477295,0.963867,-0.0610352,-0.488281,13.5498,-0.002,0.073,-23.34,-0.00196838,-0.0188904,0,0,0,0,0,39.43,268.254,1499836
0.0192261,0.0313721,0.959412,-1.09863,-0.366211,14.2212,0.002,0.058,-23.54,-0.00196838,-0.0190277,0,0,0,0,0,39.43,268.273,1499851
-0.0160522,-0.00634766,0.947571,1.09863,-1.34277,14.0381,-0.014,0.009,-23.99,-0.00210571,-0.0191345,0,0,0,0,0,39.43,268.294,1499882
-0.0771484,-0.216064,0.994995,0.305176,-1.0376,15.0757,0.016,-0.205,-24.21,-0.00219727,-0.0193024,0,0,0,0,0,39.43,268.313,1499896
0.0133057,0.0700073,1.01337,1.34277,-0.915527,13.977,-0.019,0.091,-24.66,-0.0022583,-0.0198669,0,0,0,0,0,39.42,268.336,1499926
-0.0745239,-0.0410767,1.00708,0.610352,-1.15967,15.5029,-0.053,-0.045,-24.87,-0.00233459,-0.0200958,0,0,0,0,0,39.42,268.353,1499942
0.0408325,-0.0752563,0.966797,-0.0610352,-1.2207,13.2446,0.066,-0.029,-25.09,-0.00239563,-0.0203705,0,0,0,0,0,39.42,268.376,1499956
0.0292969,-0.0284424,1.00995,0.183105,-1.09863,13.4277,0.035,0.008,-25.29,-0.00239563,-0.0206757,0,0,0,0,0,39.42,268.393,1499971
0.045166,-0.0390625,1.03595,2.01416,-1.77002,12.3291,0.053,0.006,-25.69,-0.00238037,-0.0209656,0,0,0,0,0,39.42,268.413,1500002
-0.113037,-0.147644,1.08984,1.52588,0.488281,12.9395,-0.041,-0.159,-25.88,-0.00236511,-0.0210571,0,0,0,0,0,39.42,268.433,1500016
0.03125,-0.0635986,0.967468,0.854492,-0.671387,14.0991,0.052,-0.023,-26.09,-0.00234985,-0.021286,0,0,0,0,0,39.42,268.453,1500031
-0.0843506,-0.0227051,1.0683,-1.40381,-0.0610352,13.855,-0.069,-0.036,-26.48,-0.00213623,-0.0218506,0,0,0,0,0,39.42,268.473,1500062
0.00482178,0.0372925,0.961853,-1.58691,-1.83105,14.1602,-0.016,0.055,-26.7,-0.00209045,-0.0221405,0,0,0,0,0,39.42,268.493,1500076
0.010437,-0.0420532,1.10687,-0.793457,-0.549316,13.7939,0.023,-0.009,-26.89,-0.00202942,-0.0223999,0,0,0,0,0,39.42,268.513,1500091
0.0045166,0.0405273,0.985474,0.366211,-1.0376,11.8408,-0.019,0.058,-27.29,-0.00192261,-0.023056,0,0,0,0,0,39.42,268.536,1500122
0.0412598,-0.0389404,0.996765,0.915527,-0.0610352,13.4277,0.049,0.004,-27.48,-0.00186157,-0.0233459,0,0,0,0,0,39.42,268.553,1500136
-0.0338135,-0.0515137,1.07672,-1.09863,0.0610352,13.1226,-0.011,-0.039,-27.68,-0.00177002,-0.0236664,0,0,0,0,0,39.42,268.573,1500151
0.0737305,0.145325,0.95697,-0.244141,-0.183105,15.1367,-0.008,0.182,-28.08,-0.00170898,-0.0242004,0,0,0,0,0,39.42,268.594,1500182
-0.0111694,-0.0255737,0.929932,-0.732422,-1.34277,15.4419,-0.002,-0.008,-28.32,-0.00170898,-0.0242767,0,0,0,0,0,39.42,268.613,1500196
-0.0487671,-0.159912,1.14337,-1.0376,0.244141,14.2822,0.027,-0.14,-28.54,-0.00167847,-0.0244598,0,0,0,0,0,39.42,268.633,1500211
0.0251465,0.0479736,0.925842,-0.305176,-1.46484,12.8784,-0.006,0.073,-28.95,-0.0017395,-0.024826,0,0,0,0,0,39.42,268.653,1500242
0.0335083,0.0106201,1.09161,1.64795,-0.12207,13.4277,0.018,0.047,-29.16,-0.0017395,-0.0248871,0,0,0,0,0,39.42,268.674,1500257
0.00628662,-0.0845947,1.09644,0.0610352,-0.549316,11.8408,0.041,-0.049,-29.34,-0.00169373,-0.0249329,0,0,0,0,0,39.42,268.693,1500272
0.0721436,-0.0170288,1.06006,0,0,14.3433,0.065,0.041,-29.74,-0.00161743,-0.0251007,0,0,0,0,0,39.42,268.713,1500302
0.0357666,-0.06604,0.985229,-0.305176,-0.854492,13.3667,0.058,-0.02,-29.95,-0.00149536,-0.0251617,0,0,0,0,0,39.42,268.733,1500317
-0.0592651,-0.108154,1.07965,-1.34277,0.915527,13.3667,-0.003,-0.102,-30.14,-0.00132751,-0.0252991,0,0,0,0,0,39.42,268.754,1500332
-0.0562744,-0.0357056,1.06726,0.671387,0.854492,12.9395,-0.036,-0.038,-30.54,-0.000991821,-0.0257263,0,0,0,0,0,39.42,268.773,1500362
-0.022522,-0.0198975,1.08014,0.488281,0.976562,14.2212,-0.015,-0.007,-30.76,-0.000869751,-0.0259705,0,0,0,0,0,39.42,268.794,1500377
0.0375977,0.020874,0.921936,-1.64795,-0.671387,14.9536,0.016,0.056,-30.98,-0.000869751,-0.0261841,0,0,0,0,0,39.42,268.812,1500392
0.00158691,0.112366,0.961792,1.34277,-0.488281,15.9302,-0.063,0.116,-31.44,-0.000915527,-0.0265045,0,0,0,0,0,39.42,268.833,1500422
-0.0674438,-0.254639,0.956909,-0.244141,-1.34277,14.0381,0.071,-0.232,-31.67,-0.000961304,-0.0267029,0,0,0,0,0,39.42,268.852,1500437
0.0635986,-0.0773926,0.951904,-0.366211,-0.915527,15.5029,0.089,-0.012,-31.9,-0.00088501,-0.0270691,0,0,0,0,0,39.42,268.873,1500452
-0.0245361,-0.0214844,1.06567,1.40381,-1.09863,14.7705,-0.016,-0.009,-32.37,-0.000717163,-0.0275726,0,0,0,0,0,39.42,268.893,1500482
0.000915527,-0.126526,0.992432,0.671387,0,15.1367,0.062,-0.085,-32.59,-0.00062561,-0.0278473,0,0,0,0,0,39.42,268.914,1500497
0.118835,0.0354004,0.939087,-0.305176,-1.0376,15.686,0.074,0.113,-32.82,-0.000427246,-0.0280914,0,0,0,0,0,39.42,268.932,1500512
-0.0585327,-0.0675659,1.08429,0.0610352,0.915527,14.7705,-0.019,-0.066,-33.27,-0.000183105,-0.0286713,0,0,0,0,0,39.42,268.953,1500542
0.0401611,-0.0671387,0.938965,-0.915527,0,15.3198,0.064,-0.014,-33.5,-0.000152588,-0.029068,0,0,0,0,0,39.42,268.974,1500557
0.0461426,-0.0180664,1.05719,-0.244141,0.305176,14.9536,0.04,0.032,-33.72,-4.57764e-05,-0.0294495,0,0,0,0,0,39.42,268.993,1500572
-0.0258179,-0.0369263,1.0354,0.0610352,-0.183105,14.1602,-0.007,-0.023,-34.15,4.57764e-05,-0.0302887,0,0,0,0,0,39.42,269.012,1500602
-0.00396729,-0.0570679,1.02991,0.12207,-0.793457,15.9302,0.022,-0.027,-34.38,7.62939e-05,-0.0307617,0,0,0,0,0,39.42,269.033,1500617
-0.0479126,0.0553589,0.973145,0.793457,-1.64795,14.5264,-0.077,0.038,-34.83,6.10352e-05,-0.0319672,0,0,0,0,0,39.42,269.055,1500647
0.046936,0.0119629,0.961487,-0.793457,-1.77002,14.2822,0.025,0.056,-35.05,-1.52588e-05,-0.0325317,0,0,0,0,0,39.42,269.073,1500662
0.0548706,0.0422363,0.967773,0.610352,-0.976562,13.6719,0.013,0.085,-35.26,-6.10352e-05,-0.0329895,0,0,0,0,0,39.42,269.093,1500677
-0.0055542,0.0206299,1.0155,1.64795,-0.854492,12.207,-0.023,0.033,-35.44,-0.000137329,-0.033371,0,0,0,0,0,39.42,269.113,1500692
0.0231323,-0.0270996,0.97937,-0.183105,0.366211,14.2822,0.027,0.01,-35.84,-0.000259399,-0.0341187,0,0,0,0,0,39.42,269.134,1500722
0.0266724,0.106873,0.946899,0.793457,-0.0610352,14.1602,-0.048,0.12,-36.05,-0.000335693,-0.0344086,0,0,0,0,0,39.42,269.155,1500737
0.000732422,-0.130188,1.00549,-0.427246,-1.64795,15.0757,0.069,-0.084,-36.27,-0.00038147,-0.034668,0,0,0,0,0,39.42,269.173,1500752
-0.000610352,-0.00518799,1.02618,-0.366211,-0.732422,17.0898,-0.005,0.015,-36.78,-0.000457764,-0.0354309,0,0,0,0,0,39.42,269.195,1500782
-0.0241699,0.00286865,1.02515,0.976562,-1.58691,16.8457,-0.028,0.007,-37.03,-0.000518799,-0.0358124,0,0,0,0,0,39.42,269.213,1500797
-0.0183716,-0.0411377,0.981995,-0.671387,-1.58691,18.1885,0.002,-0.025,-37.29,-0.000610352,-0.0361938,0,0,0,0,0,39.42,269.234,1500812
-0.0635986,-0.112915,1.12915,0.488281,-0.976562,18.0054,0.01,-0.108,-37.83,-0.000656128,-0.0370789,0,0,0,0,0,39.42,269.253,1500842
-0.020813,0.0402832,0.996521,0.793457,-2.01416,17.2119,-0.049,0.036,-38.1,-0.000671387,-0.0375977,0,0,0,0,0,39.42,269.273,1500857
0.00415039,-0.0512085,0.96814,-0.366211,-1.83105,17.8833,0.026,-0.02,-38.35,-0.000717163,-0.0381165,0,0,0,0,0,39.42,269.293,1500872
0.00921631,-0.0618896,1.02838,-0.671387,-1.34277,15.9912,0.036,-0.025,-38.89,-0.000762939,-0.0390015,0,0,0,0,0,39.42,269.32,1500902
-0.0788574,-0.00280762,1.05469,0.305176,-0.183105,16.6016,-0.069,-0.034,-39.13,-0.000808716,-0.0394592,0,0,0,0,0,39.42,269.333,1500917
0.0153809,0.0258789,0.954285,0.793457,-1.09863,16.5405,-0.013,0.045,-39.38,-0.000900269,-0.0399017,0,0,0,0,0,39.42,269.355,1500932
-0.078186,-0.181702,1.11224,-1.70898,0.549316,13.0615,0.046,-0.172,-39.79,-0.000961304,-0.0407257,0,0,0,0,0,39.46,269.373,1500962
0.0164185,-0.00286865,1.01648,1.34277,-0.183105,14.4043,0.005,0.024,-40,-0.000915527,-0.041275,0,0,0,0,0,39.46,269.393,1500977
-0.00476074,-0.0147705,1.05212,1.34277,0.183105,14.0381,-0.003,0.001,-40.21,-0.000915527,-0.0417938,0,0,0,0,0,39.46,269.413,1500992
0.00732422,-0.090271,1.03461,-0.793457,-2.62451,15.3198,0.054,-0.047,-40.65,-0.00105286,-0.0418243,0,0,0,0,0,39.46,269.433,1501022
0.0184326,-0.0438843,1.01318,-1.28174,-0.793457,17.0288,0.032,-0.005,-40.89,-0.00108337,-0.0419006,0,0,0,0,0,39.46,269.453,1501037
-0.0169678,0.0632324,1.02502,-0.793457,-1.70898,16.2964,-0.065,0.051,-41.14,-0.00111389,-0.0419464,0,0,0,0,0,39.46,269.473,1501052
-0.0427856,0.0209961,0.983826,0,-0.610352,16.1743,-0.056,0.001,-41.62,-0.00138855,-0.0418549,0,0,0,0,0,39.46,269.493,1501082
0.0308838,0.013916,0.981689,0,-1.70898,15.1978,0.002,0.044,-41.86,-0.00160217,-0.0417633,0,0,0,0,0,39.46,269.513,1501097
-0.000854492,-0.0661621,1.19073,-0.793457,0.732422,15.0757,0.03,-0.033,-42.08,-0.00178528,-0.0416718,0,0,0,0,0,39.46,269.533,1501112
-0.0292969,-0.024353,0.965759,-0.244141,-0.427246,14.8315,-0.016,-0.024,-42.53,-0.00215149,-0.0415344,0,0,0,0,0,39.46,269.554,1501143
-0.0232544,0.0141602,0.998352,0,0.427246,14.9536,-0.038,0.008,-42.75,-0.00239563,-0.0414886,0,0,0,0,0,39.46,269.573,1501157
0.0270996,-0.0812988,1.05353,0.915527,-1.58691,13.0615,0.062,-0.026,-42.96,-0.00260925,-0.0414581,0,0,0,0,0,39.46,269.593,1501172
-0.0383911,-0.0223999,1.01312,1.52588,-0.183105,14.0381,-0.024,-0.029,-43.37,-0.0030365,-0.0415955,0,0,0,0,0,39.46,269.613,1501203
0.0386963,0.0606079,0.978638,1.2207,-1.83105,12.7563,-0.025,0.082,-43.57,-0.0032959,-0.0416718,0,0,0,0,0,39.46,269.634,1501217
-0.0318604,0.0565796,0.959473,0.976562,-1.09863,12.6343,-0.073,0.03,-43.75,-0.00363159,-0.0416718,0,0,0,0,0,39.46,269.654,1501232
0.0668335,-0.0258789,1.10901,0.183105,0,12.8174,0.052,0.041,-44.15,-0.00428772,-0.0417023,0,0,0,0,0,39.46,269.673,1501263
-0.0109863,0.0480347,1.04846,0,-0.915527,11.5967,-0.054,0.038,-44.34,-0.00457764,-0.041687,0,0,0,0,0,39.46,269.693,1501277
-0.0858765,-0.114136,0.985718,1.0376,-0.854492,12.3901,0.007,-0.13,-44.51,-0.00491333,-0.0417175,0,0,0,0,0,39.46,269.713,1501292
0.00891113,-0.00579834,1.04681,-0.12207,-1.15967,13.1226,-0.002,0.013,-44.93,-0.00547791,-0.0418854,0,0,0,0,0,39.46,269.734,1501323
-0.0391235,0.0635376,0.924377,-0.488281,-1.77002,12.7563,-0.084,0.027,-45.12,-0.00579834,-0.0419312,0,0,0,0,0,39.46,269.752,1501337
0.0386353,0.0259399,0.936218,-0.976562,-0.854492,15.625,-0.002,0.056,-45.35,-0.00617981,-0.0419006,0,0,0,0,0,39.46,269.772,1501352
-0.00543213,-0.0501099,1.0766,0,0,14.2212,0.018,-0.027,-45.79,-0.00679016,-0.0418701,0,0,0,0,0,39.46,269.793,1501383
-0.0609131,-0.0966797,1.03949,-0.0610352,-0.488281,14.7705,0.014,-0.099,-46,-0.00704956,-0.0419464,0,0,0,0,0,39.46,269.812,1501397
-0.0194092,-0.0630493,1.05109,1.95312,0.427246,14.5264,0.019,-0.046,-46.22,-0.00704956,-0.0421295,0,0,0,0,0,39.46,269.833,1501412
-0.0111694,-0.0584717,0.975098,0.915527,-1.64795,15.564,0.022,-0.038,-46.67,-0.00706482,-0.0424957,0,0,0,0,0,39.46,269.852,1501443
0.0438232,-0.00958252,0.984985,0.183105,0.0610352,18.0054,0.024,0.035,-46.92,-0.00704956,-0.0426788,0,0,0,0,0,39.43,269.874,1501457
-0.0324707,-0.0210571,1.02985,-0.183105,-0.732422,18.0664,-0.019,-0.027,-47.21,-0.00701904,-0.0428619,0,0,0,0,0,39.43,269.892,1501472
0.0326538,0.0623169,0.948547,-1.58691,-1.2207,18.3105,-0.036,0.075,-47.75,-0.00712585,-0.0431061,0,0,0,0,0,39.43,269.912,1501503
-0.00939941,-0.0641479,0.996399,-1.0376,-0.854492,17.7002,0.028,-0.04,-48.01,-0.00723267,-0.0431671,0,0,0,0,0,39.43,269.934,1501517
0.00653076,0.0673828,1.0119,0.488281,-0.976562,17.5171,-0.059,0.059,-48.27,-0.00733948,-0.0432129,0,0,0,0,0,39.43,269.952,1501532
0.00769043,-0.0376587,1.11938,0.671387,-0.12207,16.6626,0.019,-0.009,-49.03,-0.00808716,-0.0431061,0,0,0,0,0,39.43,269.985,1501577
0.00769043,-0.0376587,1.11938,0.671387,-0.12207,16.6626,0.019,-0.009,-49.03,-0.00808716,-0.0431061,0,0,0,0,0,39.43,269.992,1501577
0.00482178,-0.0297241,1.01178,-0.854492,-0.244141,15.3809,0.012,-0.007,-49.26,-0.00808716,-0.0430603,0,0,0,0,0,39.43,270.014,1501592
0.019043,-0.108826,1.18445,-0.488281,-0.12207,15.686,0.08,-0.046,-49.74,-0.00813293,-0.0429077,0,0,0,0,0,39.43,270.033,1501623
-0.041687,0.0144043,1.02301,0.549316,0.0610352,15.9912,-0.05,-0.014,-49.98,-0.00811768,-0.0428925,0,0,0,0,0,39.43,270.053,1501637
-0.00299072,-0.0772705,0.993774,0.12207,-0.854492,16.9067,0.044,-0.044,-50.46,-0.00831604,-0.0427399,0,0,0,0,0,39.43,270.083,1501667
-0.0841675,0.0232544,1.15137,1.2207,0.854492,16.7236,-0.085,-0.042,-50.72,-0.00846863,-0.0427246,0,0,0,0,0,39.43,270.093,1501683
-0.0333252,-0.00964355,1.01489,-0.12207,-0.610352,15.8691,-0.026,-0.024,-50.96,-0.00868225,-0.0427399,0,0,0,0,0,39.43,270.113,1501697
0.000732422,0.000976562,0.979919,0.244141,-0.366211,16.4185,-0.012,0.008,-51.2,-0.00892639,-0.0427704,0,0,0,0,0,39.43,270.132,1501713
0.00396729,-0.0617065,1.01324,-0.610352,-1.46484,14.5874,0.038,-0.028,-51.67,-0.00952148,-0.0425415,0,0,0,0,0,39.43,270.153,1501743
0.0836182,0.101685,0.971985,1.2207,-0.671387,14.3433,-0.041,0.134,-52.12,-0.0101318,-0.0420227,0,0,0,0,0,39.43,270.19,1501773
-0.0419922,-0.101929,1.11786,1.40381,-0.427246,13.7939,0.041,-0.089,-52.33,-0.0104675,-0.0416718,0,0,0,0,0,39.43,270.199,1501788
-0.0598755,0.0350952,0.953552,1.64795,-0.915527,14.0381,-0.075,-0.02,-52.55,-0.0108032,-0.0413971,0,0,0,0,0,39.43,270.213,1501803
0.0144653,-0.0675049,0.963013,1.2207,-0.793457,14.6484,0.05,-0.024,-52.77,-0.0111694,-0.041153,0,0,0,0,0,39.43,270.233,1501818
-0.00360107,-0.0432129,1.11359,1.09863,-0.549316,15.1367,0.018,-0.023,-52.99,-0.0114899,-0.0409393,0,0,0,0,0,39.43,270.254,1501833
0.00848389,0.0557251,0.963013,0.976562,-1.70898,15.8691,-0.051,0.044,-53.45,-0.0122681,-0.0405426,0,0,0,0,0,39.43,270.273,1501863
0.0379028,-0.0180664,0.999207,0.183105,-1.15967,15.4419,0.025,0.023,-53.68,-0.0127258,-0.0402832,0,0,0,0,0,39.43,270.293,1501878
-0.00158691,0.00701904,1.01093,1.15967,-1.77002,13.855,-0.018,0.006,-53.9,-0.0131683,-0.0400085,0,0,0,0,0,39.43,270.313,1501893
0.0528564,0.0203247,0.937805,0.244141,-0.366211,12.6953,0.003,0.057,-54.32,-0.0141296,-0.0393524,0,0,0,0,0,39.43,270.335,1501923
0.0124512,-0.0115967,1.07214,0,0.915527,12.6343,0.004,0.006,-54.51,-0.0146179,-0.0389557,0,0,0,0,0,39.43,270.353,1501938
-0.022583,0.00286865,0.946716,0.427246,0.488281,13.4277,-0.026,-0.014,-54.91,-0.0156403,-0.0389557,0,0,0,0,0,39.44,270.387,1501968
0.0108032,-0.0485229,1.0246,0.366211,1.77002,14.8926,0.034,-0.015,-55.12,-0.0161743,-0.0389557,0,0,0,0,0,39.44,270.397,1501983
-0.0383301,-0.0214233,1.08081,-0.732422,-0.854492,15.564,-0.016,-0.04,-55.36,-0.0166779,-0.0390015,0,0,0,0,0,39.44,270.413,1501998
-0.0181274,-0.0342407,1.01544,-1.09863,-0.183105,17.0288,0.006,-0.03,-55.6,-0.0171967,-0.0390778,0,0,0,0,0,39.44,270.434,1502013
-0.0112305,-0.0853271,1.04041,-1.77002,-2.38037,17.9443,0.052,-0.053,-56.13,-0.01828,-0.0392609,0,0,0,0,0,39.44,270.453,1502043
-0.0292969,0.121399,1.05133,-0.915527,-0.0610352,18.7378,-0.129,0.046,-56.41,-0.0188751,-0.0393524,0,0,0,0,0,39.44,270.473,1502058
0.036499,0.0547485,0.926697,-0.12207,-2.19727,17.6392,-0.036,0.063,-56.68,-0.019577,-0.0393829,0,0,0,0,0,39.44,270.495,1502073
-0.00195312,-0.00732422,1.07031,-1.15967,-1.58691,17.1509,-0.008,-0.002,-57.21,-0.0211487,-0.0391235,0,0,0,0,0,39.44,270.513,1502103
-0.00738525,0.0308228,0.971863,-0.0610352,-0.793457,17.334,-0.042,0.012,-57.47,-0.0220032,-0.0389557,0,0,0,0,0,39.44,270.534,1502118
0.0623779,-0.0055542,1.00104,-0.244141,0.793457,17.5171,0.025,0.051,-57.73,-0.0228577,-0.0387268,0,0,0,0,0,39.44,270.554,1502133
-0.00744629,0.0822754,1.02747,-1.52588,1.15967,16.4795,-0.087,0.038,-58.23,-0.0244446,-0.0382385,0,0,0,0,0,39.44,270.575,1502163
0.046814,0.0617676,0.960815,-0.488281,0.610352,15.686,-0.04,0.074,-58.48,-0.0253143,-0.0379181,0,0,0,0,0,39.44,270.593,1502178
-0.00921631,-0.0563354,1.04926,0,0.732422,13.4277,0.029,-0.034,-58.68,-0.0262146,-0.0375519,0,0,0,0,0,39.44,270.613,1502193
0.00762939,-0.0022583,0.949341,-0.12207,-0.305176,14.0381,-0.006,0.008,-59.1,-0.0280609,-0.0370789,0,0,0,0,0,39.44,270.634,1502223
-0.00170898,-0.14447,1.15253,0.183105,1.15967,14.0991,0.108,-0.071,-59.31,-0.0289307,-0.036911,0,0,0,0,0,39.44,270.653,1502238
-0.0692139,0.107361,1.02545,-0.0610352,-1.2207,14.3433,-0.141,-0.001,-59.52,-0.0298309,-0.0368042,0,0,0,0,0,39.44,270.673,1502253
0.0336304,-0.0933228,1.11322,-1.2207,0.610352,17.0288,0.082,-0.013,-60,-0.0316162,-0.0367889,0,0,0,0,0,39.44,270.694,1502283
0.0135498,-0.0131226,1.04657,-1.34277,-1.83105,15.3809,0.003,0.008,-60.24,-0.0324097,-0.0368347,0,0,0,0,0,39.44,270.715,1502298
0.085144,0.109192,0.969299,1.2207,-1.58691,15.625,-0.067,0.131,-60.71,-0.034317,-0.0367432,0,0,0,0,0,39.44,270.738,1502328
0.0249634,-0.119995,1.11005,0.671387,-0.244141,13.5498,0.1,-0.034,-60.92,-0.0353241,-0.0366058,0,0,0,0,0,39.44,270.754,1502343
-0.0341797,-0.055603,1.09009,-0.854492,0.610352,15.0146,0.016,-0.054,-61.13,-0.0362396,-0.0365143,0,0,0,0,0,39.44,270.773,1502358
0.0402832,0.00360107,1.09827,0.183105,2.01416,14.9536,0,0.039,-61.59,-0.0380096,-0.0363007,0,0,0,0,0,39.44,270.796,1502388
-0.0971069,-0.0855103,1.1333,-1.15967,0.488281,14.9536,0.012,-0.123,-61.82,-0.0388794,-0.0362244,0,0,0,0,0,39.44,270.812,1502403
-0.02948,0.0010376,0.919983,-0.976562,0.183105,15.2588,-0.028,-0.023,-62.04,-0.0397491,-0.0362396,0,0,0,0,0,39.44,270.833,1502418
0.0584717,0.113892,1.0097,1.89209,0.671387,15.8081,-0.089,0.108,-62.27,-0.0407104,-0.0362091,0,0,0,0,0,39.44,270.853,1502433
-0.0668335,-0.101257,1.15875,-0.427246,-1.09863,14.7705,0.041,-0.103,-62.49,-0.0417023,-0.0361633,0,0,0,0,0,39.44,270.872,1502448
0.0831299,0.13208,0.933472,1.46484,-1.34277,15.625,-0.093,0.137,-62.97,-0.0436707,-0.036499,0,0,0,0,0,39.44,270.9,1502478
-0.0668335,-0.0530396,1.12323,3.96728,-0.793457,14.2822,0,-0.08,-63.2,-0.0447388,-0.0366364,0,0,0,0,0,39.44,270.913,1502493
0.0252686,-0.106323,0.90863,2.13623,-2.44141,17.6392,0.094,-0.023,-63.69,-0.0466919,-0.0371857,0,0,0,0,0,39.44,270.935,1502523
0.0406494,0.0337524,1.08331,2.2583,0.793457,17.2729,-0.026,0.052,-63.95,-0.0475616,-0.0374756,0,0,0,0,0,39.44,270.953,1502538
-0.00732422,-0.0501099,1.07092,1.46484,-0.732422,16.2354,0.027,-0.028,-64.19,-0.0484314,-0.037735,0,0,0,0,0,39.44,270.972,1502553
0.0370483,-0.00646973,0.977844,0.244141,0.183105,17.6392,0.009,0.03,-64.72,-0.0501862,-0.0383148,0,0,0,0,0,39.44,270.993,1502583
-0.0130005,-0.0194702,1.02747,-0.671387,0,15.8691,-0.001,-0.02,-64.96,-0.0510712,-0.0385895,0,0,0,0,0,39.44,271.012,1502598
-0.0161133,-0.0148926,1.04993,-1.46484,0.244141,15.564,-0.007,-0.02,-65.2,-0.0510712,-0.0388947,0,0,0,0,0,39.44,271.033,1502613
0.013855,-0.010498,1.01758,-0.427246,-0.366211,15.1978,0.001,0.008,-65.66,-0.0511322,-0.0394592,0,0,0,0,0,39.44,271.053,1502644
-0.0380249,-0.00585938,1.05591,-0.244141,-0.244141,14.8926,-0.023,-0.036,-65.88,-0.051178,-0.0397491,0,0,0,0,0,39.44,271.072,1502658
-0.0162964,-0.0479736,1.01508,-0.0610352,-1.09863,17.7002,0.024,-0.034,-66.14,-0.051239,-0.0401001,0,0,0,0,0,39.44,271.093,1502673
-0.0233765,-0.0665894,0.99884,-1.34277,-1.95312,16.5405,0.038,-0.047,-66.65,-0.0513763,-0.040802,0,0,0,0,0,39.44,271.113,1502704
-0.00646973,0.0379639,1.01508,-1.2207,-1.89209,18.6768,-0.051,0.009,-66.92,-0.0514679,-0.0411835,0,0,0,0,0,39.44,271.133,1502718
0.0467529,-0.0429688,1.03833,-0.610352,-2.0752,16.6016,0.043,0.026,-67.18,-0.0515442,-0.0415497,0,0,0,0,0,39.44,271.155,1502733
0.02771,-0.0305176,1.04395,-0.610352,-1.09863,15.8081,0.024,0.012,-67.42,-0.05159,-0.0418854,0,0,0,0,0,39.44,271.173,1502748
0.0247803,-0.0772095,1.00586,0.610352,-0.366211,15.0757,0.067,-0.008,-67.89,-0.05159,-0.0422058,0,0,0,0,0,39.44,271.193,1502778
0.0177612,0.0319214,1.01666,2.44141,0.793457,14.5874,-0.036,0.026,-68.1,-0.0515289,-0.0421906,0,0,0,0,0,39.44,271.213,1502793
-0.0170288,-0.0463867,1.05609,0.610352,1.52588,13.855,0.022,-0.034,-68.51,-0.0515747,-0.042099,0,0,0,0,0,39.44,271.235,1502824
0.00964355,-0.0413208,1.08301,0.305176,0.793457,14.3433,0.028,-0.007,-68.72,-0.0515594,-0.0420685,0,0,0,0,0,39.44,271.254,1502838
-0.0349121,-0.0532837,1.02747,0.427246,0.244141,12.3291,0.024,-0.053,-68.92,-0.0515137,-0.042099,0,0,0,0,0,39.44,271.273,1502853
0.0437012,-0.0171509,0.969971,-1.28174,-1.52588,14.5264,0.019,0.033,-69.35,-0.0515137,-0.0421143,0,0,0,0,0,39.44,271.293,1502884
0.0223389,0.0834961,1.02228,0.427246,-0.305176,13.7939,-0.083,0.048,-69.57,-0.0515747,-0.0420532,0,0,0,0,0,39.44,271.314,1502898
-0.019165,0.142944,0.921326,-0.549316,-2.13623,14.2212,-0.152,0.03,-69.78,-0.0517883,-0.0419312,0,0,0,0,0,39.44,271.334,1502913
0.0352783,0.0308838,1.02075,0.183105,-0.549316,14.4043,-0.029,0.041,-70.23,-0.0524597,-0.0414886,0,0,0,0,0,39.44,271.353,1502944
-0.0313721,0.0348511,0.98053,0.488281,-1.77002,15.564,-0.055,-0.019,-70.45,-0.0528564,-0.041214,0,0,0,0,0,39.44,271.373,1502958
0.0302734,0.06073,1.02258,2.80762,0.854492,17.2119,-0.059,0.046,-70.72,-0.0533447,-0.0409241,0,0,0,0,0,39.44,271.394,1502973
0.00634766,-0.126282,1.0224,0.244141,-0.183105,15.8081,0.109,-0.038,-70.95,-0.0537872,-0.0406189,0,0,0,0,0,39.46,271.413,1502988
0.0350952,-0.0101318,0.970398,0,0.366211,17.7002,0.009,0.027,-71.46,-0.0545807,-0.0401611,0,0,0,0,0,39.46,271.433,1503018
0.0245972,-0.0167236,0.965576,0.549316,-0.549316,15.8691,0.013,0.015,-71.69,-0.0549622,-0.039917,0,0,0,0,0,39.46,271.453,1503033
-0.0106812,-0.0808716,1.00305,-0.244141,-0.183105,16.5405,0.063,-0.037,-72.2,-0.0558167,-0.0399323,0,0,0,0,0,39.46,271.473,1503064
0.0646362,-0.0131836,0.987,1.83105,0.549316,16.6626,0.022,0.055,-72.45,-0.0561829,-0.0399475,0,0,0,0,0,39.46,271.493,1503078
-0.0631104,-0.101074,1.0719,-0.12207,0.305176,16.1743,0.066,-0.093,-72.69,-0.056488,-0.039978,0,0,0,0,0,39.46,271.513,1503093
0.103455,0.0588379,0.984314,0.915527,0.305176,15.9912,-0.036,0.113,-73.18,-0.0569916,-0.0401611,0,0,0,0,0,39.46,271.533,1503124
0.00561523,-0.086731,1.07001,1.64795,-0.12207,13.4277,0.074,-0.022,-73.38,-0.0572357,-0.0401611,0,0,0,0,0,39.46,271.553,1503139
-0.036499,-0.081604,1.05109,0.976562,0.305176,15.3198,0.058,-0.061,-73.6,-0.0573883,-0.0402222,0,0,0,0,0,39.46,271.573,1503153
0.0135498,-0.0584106,1.07318,1.64795,0.12207,15.1978,0.051,-0.006,-74.08,-0.057663,-0.0403595,0,0,0,0,0,39.46,271.593,1503184
-0.0884399,-0.00494385,1.06342,1.58691,0,16.9067,-0.027,-0.089,-74.32,-0.057785,-0.0404968,0,0,0,0,0,39.46,271.615,1503199
0.0317383,-0.00701904,0.965698,1.83105,-1.2207,17.4561,0.008,0.025,-74.58,-0.0579071,-0.0406647,0,0,0,0,0,39.46,271.633,1503214
-0.0255737,-0.020813,1.09595,-0.0610352,-1.0376,18.0664,0.005,-0.033,-75.11,-0.0580902,-0.0410156,0,0,0,0,0,39.46,271.653,1503244
-0.0088501,0.0108643,1.03955,0.549316,0.0610352,18.8599,-0.02,-0.009,-75.39,-0.0581818,-0.0412445,0,0,0,0,0,39.46,271.673,1503259
0.0275269,-0.00683594,0.949219,0.976562,0.305176,18.1885,0.007,0.021,-75.67,-0.0582733,-0.0414581,0,0,0,0,0,39.46,271.693,1503274
-0.00842285,0.0596924,1.05908,0.976562,0,19.104,-0.067,0.001,-76.23,-0.0584869,-0.0418701,0,0,0,0,0,39.46,271.714,1503304
0.029541,-0.0296021,0.960449,0.549316,-1.2207,18.9819,0.029,0.017,-76.52,-0.0586243,-0.0418701,0,0,0,0,0,39.46,271.733,1503319
0.00335693,0.0300903,1.00427,1.52588,-0.549316,18.9819,-0.034,0.005,-76.8,-0.0587769,-0.0418701,0,0,0,0,0,39.46,271.754,1503334
-0.000305176,-0.0421143,1.04974,0.305176,-1.15967,18.6157,0.035,-0.014,-77.08,-0.0589294,-0.0418701,0,0,0,0,0,39.46,271.773,1503349
0.0346069,-0.00842285,1.00446,1.46484,-0.12207,16.4795,0.01,0.026,-77.62,-0.0590668,-0.0418701,0,0,0,0,0,39.46,271.793,1503379
-0.0279541,-0.0198364,1.10803,0.793457,-1.0376,17.6392,0.008,-0.037,-77.87,-0.0590668,-0.0418701,0,0,0,0,0,39.46,271.813,1503394
0.0167236,-0.0282593,0.964355,2.13623,-1.15967,16.6626,0.027,0.004,-78.38,-0.0592041,-0.0418854,0,0,0,0,0,39.46,271.833,1503424
-0.0289917,0.0119629,1.12506,1.40381,-0.0610352,17.1509,-0.021,-0.033,-78.64,-0.0592651,-0.0419006,0,0,0,0,0,39.46,271.853,1503439
-0.017334,0.0140381,1.03955,1.58691,-0.671387,17.2729,-0.02,-0.02,-78.89,-0.0593719,-0.0419617,0,0,0,0,0,39.46,271.873,1503454
0.0169678,0.0116577,1.01196,1.77002,-0.732422,17.0288,-0.01,0.011,-79.41,-0.0594788,-0.042038,0,0,0,0,0,39.46,271.893,1503484
-0.0159302,-0.0275879,1.02765,1.09863,-1.70898,17.7002,0.022,-0.027,-79.68,-0.0594635,-0.0420532,0,0,0,0,0,39.44,271.915,1503499
0.0510864,0.0587158,0.988525,2.80762,-0.854492,16.7236,-0.05,0.053,-79.93,-0.0594788,-0.0420532,0,0,0,0,0,39.44,271.933,1503514
0.0319214,0.0352173,1.05609,1.52588,-0.854492,18.1885,-0.03,0.028,-80.44,-0.0594788,-0.0419464,0,0,0,0,0,39.44,271.954,1503544
-0.00158691,0.024353,0.977234,1.95312,-0.427246,16.7847,-0.024,-0.005,-80.7,-0.0595093,-0.0418549,0,0,0,0,0,39.44,271.973,1503559
0.00665283,-0.000854492,1.03577,2.80762,-0.793457,17.2119,0.002,-0.002,-80.95,-0.0595551,-0.0417938,0,0,0,0,0,39.44,271.992,1503574
-0.00488281,-0.0170288,1.05817,2.56348,-1.34277,17.5781,0.017,-0.017,-81.22,-0.0595856,-0.0417938,0,0,0,0,0,39.44,272.012,1503589
0.0206299,-0.00878906,1.00085,3.05176,-0.427246,16.9067,0.014,0.009,-81.73,-0.0595856,-0.0419006,0,0,0,0,0,39.44,272.032,1503619
0.0200806,-0.0012207,1.02679,3.78418,-1.34277,15.7471,0.008,0.009,-81.97,-0.0595856,-0.0419617,0,0,0,0,0,39.44,272.053,1503634
0.00982666,0.0368652,0.9776,3.54004,-0.671387,15.0757,-0.029,0.004,-82.45,-0.0596008,-0.0419617,0,0,0,0,0,39.44,272.084,1503664
0.0427246,-0.0177002,1.07629,3.66211,-0.488281,14.9536,0.029,0.028,-82.67,-0.0596161,-0.0419312,0,0,0,0,0,39.44,272.094,1503679
-0.0509033,0.0374756,1.04901,3.72314,-0.549316,15.564,-0.035,-0.057,-82.9,-0.0596466,-0.0419312,0,0,0,0,0,39.44,272.112,1503694
-0.012207,-0.00628662,0.954224,5.31006,-0.793457,14.5874,0.013,-0.023,-83.12,-0.0596771,-0.0419769,0,0,0,0,0,39.44,272.132,1503709
-0.0543823,-0.000427246,1.06567,5.79834,-1.2207,15.3198,0.006,-0.066,-83.58,-0.0596924,-0.0420227,0,0,0,0,0,39.44,272.153,1503739
0.0327759,0.0255737,1.03992,6.83594,0.488281,16.2354,-0.008,0.022,-83.81,-0.0596924,-0.0420685,0,0,0,0,0,39.44,272.172,1503754
0.0020752,-0.0100708,1.06384,7.26318,0,15.4419,0.027,-0.012,-84.26,-0.0596161,-0.0420532,0,0,0,0,0,39.44,272.196,1503784
0.00982666,0.0341797,1.01318,7.20215,0.244141,15.8081,-0.014,0,-84.5,-0.0595551,-0.0420532,0,0,0,0,0,39.44,272.213,1503799
0.0452881,0.0170898,1.0033,8.05664,-0.244141,15.1367,0.007,0.033,-84.73,-0.0595551,-0.042038,0,0,0,0,0,39.44,272.233,1503814
0.00927734,0.00402832,1.01123,4.3335,-0.366211,14.3433,0.02,-0.003,-85.17,-0.0594482,-0.042038,0,0,0,0,0,39.44,272.253,1503844
0.0445557,0.0809937,0.970032,1.77002,-0.366211,12.8174,-0.053,0.038,-85.37,-0.0594025,-0.0420227,0,0,0,0,0,39.44,272.273,1503859
-0.0822144,0.0565186,1.02301,-1.46484,0.854492,11.0474,-0.037,-0.09,-85.55,-0.0594177,-0.0420532,0,0,0,0,0,39.44,272.293,1503874
0.0258179,0.086731,1.01239,-3.35693,0.427246,10.6812,-0.059,0.019,-85.72,-0.059494,-0.0421295,0,0,0,0,0,39.44,272.313,1503889
-0.0443115,0.0724487,1.03387,-3.96728,-0.488281,10.1318,-0.05,-0.051,-85.98,-0.059845,-0.0422211,0,0,0,0,0,39.44,272.338,1503919
0.00323486,0.0460205,1.02313,-1.89209,0.427246,10.1318,-0.021,-0.005,-86.13,-0.0601044,-0.0423279,0,0,0,0,0,39.44,272.354,1503934
0.010376,-0.0307617,0.997925,-1.34277,0.0610352,13.855,0.054,-0.003,-86.46,-0.0605469,-0.0423279,0,0,0,0,0,39.44,272.374,1503964
-0.0114136,0.00280762,1.0127,-0.854492,1.0376,13.4277,0.02,-0.022,-86.66,-0.0606842,-0.0423431,0,0,0,0,0,39.44,272.393,1503979
-0.0185547,-0.088501,0.977783,-1.70898,0.488281,12.9395,0.109,-0.033,-86.86,-0.06073,-0.0423889,0,0,0,0,0,39.44,272.416,1503994
-0.0419922,0.0883179,1.03864,-1.83105,0.12207,17.395,-0.068,-0.048,-87.33,-0.0608063,-0.0426025,0,0,0,0,0,39.46,272.435,1504024
0.00335693,0.0100708,1.05579,-1.58691,1.09863,16.1133,0.011,-0.006,-87.58,-0.0609131,-0.0427704,0,0,0,0,0,39.46,272.453,1504039
0.0355835,0.0408936,1.01135,-1.28174,-0.488281,16.5405,-0.019,0.027,-87.82,-0.0609131,-0.0429077,0,0,0,0,0,39.46,272.473,1504054
0.00775146,0.0283203,1.08478,-0.549316,0.976562,16.6016,-0.005,-0.001,-88.35,-0.0609131,-0.0432434,0,0,0,0,0,39.46,272.493,1504085
0.0436401,0.0206909,1.08398,-0.0610352,0.305176,16.2964,0.001,0.033,-88.6,-0.0609131,-0.043396,0,0,0,0,0,39.46,272.513,1504099
-0.0136719,0.0515137,0.982727,-0.488281,0.244141,17.8223,-0.032,-0.022,-88.86,-0.0609436,-0.0435333,0,0,0,0,0,39.46,272.533,1504114
-0.00683594,-0.163269,0.913818,-0.549316,-0.183105,15.7471,0.181,-0.017,-89.12,-0.0608521,-0.0437012,0,0,0,0,0,39.46,272.554,1504129
-0.0388184,0.0621948,1.01862,-2.62451,-0.244141,15.686,-0.043,-0.047,-89.57,-0.0604858,-0.0440369,0,0,0,0,0,39.46,272.574,1504159
-0.00915527,0.0533447,1.04828,-2.13623,1.58691,15.3809,-0.034,-0.017,-89.8,-0.0603638,-0.0442505,0,0,0,0,0,39.46,272.593,1504174
0.048584,0.0839844,1.08228,-2.13623,0.549316,13.5498,-0.064,0.039,-90.01,-0.060318,-0.0444641,0,0,0,0,0,39.46,272.613,1504189
0.0130615,0.050293,0.997314,-0.854492,1.09863,16.0522,-0.033,0.004,-90.49,-0.0605621,-0.0448761,0,0,0,0,0,39.46,272.636,1504219
0.0377808,-0.113281,0.99292,-1.40381,-0.0610352,13.7939,0.129,0.031,-90.71,-0.0606689,-0.0450592,0,0,0,0,0,39.46,272.653,1504234
0.0235596,0.117798,1.00696,-0.854492,0.854492,15.7471,-0.101,0.013,-90.93,-0.0607605,-0.0452271,0,0,0,0,0,39.46,272.673,1504249
0.0427246,0.000488281,1.08777,-2.56348,1.64795,13.977,0.015,0.034,-91.39,-0.0610352,-0.0455322,0,0,0,0,0,39.46,272.693,1504279
-0.00482178,0.0686646,1.04279,-2.19727,0.854492,15.564,-0.053,-0.014,-91.6,-0.0611725,-0.0456696,0,0,0,0,0,39.46,272.713,1504294
0.041626,0.00396729,1.07263,-0.671387,1.46484,14.9536,0.01,0.034,-92.09,-0.0617065,-0.0460358,0,0,0,0,0,39.46,272.734,1504325
0.0136108,0.0484009,1.03778,-1.46484,0.549316,16.2964,-0.034,0.005,-92.33,-0.0620117,-0.0461884,0,0,0,0,0,39.46,272.753,1504339
-0.00463867,0.100159,0.997803,-0.12207,0.549316,18.7988,-0.085,-0.015,-92.6,-0.0624084,-0.0461884,0,0,0,0,0,39.46,272.773,1504354
-0.0340576,-0.0663452,1.07281,-2.50244,-0.0610352,17.7002,0.082,-0.036,-93.1,-0.0631104,-0.0462189,0,0,0,0,0,39.46,272.793,1504385
-0.00109863,0.116577,0.97644,-1.83105,0.12207,18.2495,-0.103,-0.013,-93.39,-0.0634308,-0.0462646,0,0,0,0,0,39.46,272.813,1504399
-0.0209961,0.00518799,1.09259,-1.28174,0.610352,17.334,0.01,-0.027,-93.64,-0.0638123,-0.0463409,0,0,0,0,0,39.46,272.833,1504414
-0.0247192,0.0645752,1.00305,-0.976562,0.0610352,17.334,-0.05,-0.035,-94.14,-0.064682,-0.0465546,0,0,0,0,0,39.46,272.853,1504445
0.0217896,0.0238647,0.985596,0.610352,0.671387,15.5029,-0.012,0.014,-94.39,-0.0652008,-0.0466919,0,0,0,0,0,39.46,272.873,1504459
0.0620728,-0.0612183,1.03204,0.488281,-0.488281,14.0991,0.069,0.06,-94.61,-0.0656738,-0.0467682,0,0,0,0,0,39.46,272.893,1504474
0.0032959,0.00158691,1.00793,0.244141,0.976562,15.9302,0.01,-0.003,-94.83,-0.0660858,-0.0467987,0,0,0,0,0,39.46,272.913,1504489
0.0336914,0.0444336,1.12067,-0.671387,0.610352,13.5498,-0.033,0.023,-95.28,-0.0667877,-0.0469055,0,0,0,0,0,39.44,272.934,1504519
0.0136108,-0.0106201,0.999512,-2.01416,0.549316,15.3809,0.021,0.009,-95.5,-0.0671387,-0.046936,0,0,0,0,0,39.44,272.953,1504534
-0.0476074,0.0664673,0.977844,-0.12207,0.305176,16.1133,-0.049,-0.058,-95.74,-0.0675049,-0.0469818,0,0,0,0,0,39.44,272.973,1504549
-0.00482178,0.0209351,0.979919,-0.366211,-0.366211,16.6626,-0.008,-0.011,-96.2,-0.0679016,-0.0472107,0,0,0,0,0,39.44,272.993,1504579
-0.0388184,0.0405273,1.00848,0.732422,0.0610352,18.9209,-0.023,-0.047,-96.47,-0.0679321,-0.0473633,0,0,0,0,0,39.44,273.014,1504594
0.0192261,0.0302734,1.01263,-0.0610352,-0.610352,16.2964,-0.02,0.01,-96.94,-0.0681,-0.0477142,0,0,0,0,0,39.44,273.034,1504625
-0.00683594,-0.115784,0.908386,-1.40381,-1.2207,16.0522,0.126,0.003,-97.19,-0.0681305,-0.0477142,0,0,0,0,0,39.44,273.052,1504640
0.0142822,0.0065918,1.0307,-0.854492,-0.488281,14.2822,0.004,0.008,-97.42,-0.0680847,-0.0477142,0,0,0,0,0,39.44,273.073,1504655
-0.0441895,0.0471191,0.951355,-0.12207,0.244141,15.8691,-0.029,-0.054,-97.86,-0.0680542,-0.0476227,0,0,0,0,0,39.44,273.092,1504685
0.0535278,-0.0223999,1.03369,1.09863,1.15967,14.9536,0.027,0.051,-98.09,-0.0680542,-0.0475922,0,0,0,0,0,39.44,273.114,1504700
0.0377197,-0.0109253,1.09882,0.671387,0.854492,15.0757,0.019,0.034,-98.31,-0.0680389,-0.0474854,0,0,0,0,0,39.44,273.132,1504715
-0.0515137,0.0250854,0.983398,1.28174,0.732422,16.2354,-0.004,-0.059,-98.55,-0.0679932,-0.0474091,0,0,0,0,0,39.44,273.153,1504730
0.0234375,-0.0455322,1.0249,-0.671387,0.12207,15.3198,0.054,0.026,-99.03,-0.0679779,-0.0473328,0,0,0,0,0,39.44,273.173,1504760
0.0209351,-0.00695801,1.04541,-0.427246,1.89209,16.7236,0.015,0.018,-99.29,-0.0679016,-0.0472565,0,0,0,0,0,39.44,273.193,1504775
-0.0334473,0.0455322,0.96051,-0.915527,0.366211,17.0898,-0.028,-0.043,-99.54,-0.0678253,-0.0471954,0,0,0,0,0,39.44,273.212,1504790
-0.0350342,0.110168,1.00568,0.244141,-0.793457,17.8223,-0.091,-0.056,-100.06,-0.0677032,-0.0470886,0,0,0,0,0,39.44,273.234,1504820
-0.0378418,-0.000732422,0.983276,1.2207,-0.793457,18.1885,0.018,-0.039,-100.33,-0.0677032,-0.0471039,0,0,0,0,0,39.44,273.254,1504835
-0.0335083,0.00976562,1.04742,0.671387,-1.28174,17.7002,0.009,-0.037,-100.86,-0.0676117,-0.0471191,0,0,0,0,0,39.44,273.273,1504865
0.0157471,-0.0330811,0.991455,0.610352,0.244141,18.3105,0.041,0.019,-101.13,-0.0675354,-0.0471497,0,0,0,0,0,39.44,273.293,1504880
0.0126953,0.0667114,0.990784,2.13623,0.305176,16.4185,-0.055,-0.003,-101.39,-0.0674438,-0.0471497,0,0,0,0,0,39.44,273.313,1504895
0.000183105,-0.0209961,1.06927,-0.488281,1.89209,15.625,0.034,0.001,-101.62,-0.0673828,-0.0471497,0,0,0,0,0,39.44,273.334,1504910
0.0327759,0.0158081,1.03345,0.12207,0.793457,14.9536,-0.008,0.026,-102.09,-0.067337,-0.0471802,0,0,0,0,0,39.44,273.354,1504940
-0.00964355,0.0636597,0.983521,0.183105,1.0376,14.8926,-0.047,-0.025,-102.31,-0.0673828,-0.0471802,0,0,0,0,0,39.44,273.372,1504955
-0.00854492,0.0374146,1.0108,0,-0.610352,17.5171,-0.021,-0.018,-102.56,-0.0674591,-0.047226,0,0,0,0,0,39.44,273.393,1504970
-0.00531006,0.0484009,1.04901,-0.366211,-0.488281,16.3574,-0.032,-0.017,-103.07,-0.0678101,-0.0474091,0,0,0,0,0,39.44,273.413,1505000
-0.0109253,0.154175,1.04987,0.427246,-0.366211,18.3105,-0.134,-0.047,-103.33,-0.0681458,-0.0475464,0,0,0,0,0,39.44,273.433,1505015
0.0256958,-0.0720825,0.985046,-0.305176,-1.64795,16.2964,0.076,0.04,-103.88,-0.0688171,-0.0478668,0,0,0,0,0,39.47,273.455,1505045
0.0244141,0.0592651,0.982178,1.2207,-1.34277,19.6533,-0.049,0.007,-104.16,-0.0690918,-0.0479736,0,0,0,0,0,39.47,273.472,1505060
-0.0498047,-0.0559082,1.04114,0.183105,-0.610352,19.7754,0.081,-0.036,-104.45,-0.0693512,-0.048111,0,0,0,0,0,39.47,273.495,1505075
0.0189209,0.0211792,1.01239,0.732422,-0.244141,18.4937,-0.01,0.01,-105,-0.069931,-0.0483551,0,0,0,0,0,39.47,273.512,1505105
-0.0253906,-0.000854492,1.03687,-0.549316,0.793457,19.2871,0.023,-0.026,-105.28,-0.0702515,-0.0484619,0,0,0,0,0,39.47,273.535,1505120
0.0427856,0.0666504,1.06067,1.09863,1.28174,17.7612,-0.06,0.02,-105.55,-0.0706024,-0.048584,0,0,0,0,0,39.47,273.553,1505135
-0.00927734,-0.0178223,1.01025,-0.305176,-0.183105,18.2495,0.034,-0.006,-105.83,-0.0709534,-0.0487061,0,0,0,0,0,39.47,273.573,1505150
-0.0139771,-0.13446,0.999939,-0.0610352,-0.183105,17.8223,0.148,0.022,-106.38,-0.07164,-0.0490112,0,0,0,0,0,39.47,273.593,1505180
-0.0110474,0.143982,1.04193,0.732422,-0.244141,17.2119,-0.118,-0.053,-106.65,-0.0719299,-0.0491791,0,0,0,0,0,39.47,273.613,1505195
0.000732422,-0.0098877,0.986328,0.427246,0.305176,17.334,0.024,0.002,-106.91,-0.0722809,-0.0493927,0,0,0,0,0,39.47,273.634,1505210
0.00665283,0.00372314,1.03961,-0.976562,-1.15967,14.8926,0.01,0.003,-107.4,-0.0729675,-0.0495911,0,0,0,0,0,39.47,273.653,1505240
-0.02771,0.101196,1.01501,0.305176,-0.244141,17.8223,-0.072,-0.058,-107.66,-0.073349,-0.0496368,0,0,0,0,0,39.47,273.674,1505255
-0.0540161,0.0496826,1.08948,-0.427246,-0.0610352,13.4888,-0.013,-0.069,-108.12,-0.0742188,-0.0497589,0,0,0,0,0,39.47,273.694,1505285
0.0269775,0.0772095,0.966248,-0.183105,-0.366211,15.9302,-0.065,0,-108.34,-0.074707,-0.0498657,0,0,0,0,0,39.47,273.713,1505300
0.0286255,-0.0332642,0.991882,1.40381,-0.549316,15.3809,0.039,0.035,-108.58,-0.0752106,-0.0499725,0,0,0,0,0,39.47,273.733,1505315
0.0100708,-0.0307007,1.02826,-0.915527,-0.0610352,14.4653,0.042,0.017,-108.8,-0.0756683,-0.0500336,0,0,0,0,0,39.47,273.753,1505330
-0.00421143,0.0131226,1.06458,-0.244141,1.2207,17.6392,0.006,-0.01,-109.29,-0.0765533,-0.0500793,0,0,0,0,0,39.47,273.773,1505360
-0.00653076,-0.0296021,1.02185,-1.58691,0.427246,15.7471,0.046,0.001,-109.54,-0.0769653,-0.0500793,0,0,0,0,0,39.47,273.793,1505375
-0.00506592,0.0264282,1.00482,-1.40381,-0.610352,16.7236,-0.007,-0.016,-109.77,-0.0773468,-0.0500793,0,0,0,0,0,39.47,273.813,1505390
0.0114746,-0.0656738,1.04297,-0.671387,-0.427246,15.625,0.073,0.031,-110.26,-0.0781708,-0.0500641,0,0,0,0,0,39.47,273.834,1505420
0.0227661,0.155701,1.08752,0.183105,0.671387,17.7002,-0.137,-0.035,-110.52,-0.0786133,-0.0500488,0,0,0,0,0,39.47,273.853,1505435
0.024231,-0.0315552,1.08514,0,0.244141,17.5781,0.037,0.031,-111.05,-0.0798187,-0.0500793,0,0,0,0,0,39.47,273.877,1505465
-0.03479,0.0183716,1.0105,-0.427246,-0.12207,17.0288,0.01,-0.041,-111.31,-0.0804138,-0.0500946,0,0,0,0,0,39.47,273.894,1505480
0.024292,0.0684204,0.94873,-1.15967,-1.0376,19.4702,-0.058,-0.004,-111.59,-0.0810394,-0.0501404,0,0,0,0,0,39.47,273.914,1505495
0.0316162,-0.0185547,1.09546,-1.09863,-0.488281,18.1885,0.021,0.034,-112.13,-0.082428,-0.050415,0,0,0,0,0,39.47,273.937,1505525
0.0205078,0.0696411,0.923584,0.183105,-1.2207,18.9209,-0.058,-0.009,-112.42,-0.0831604,-0.0505524,0,0,0,0,0,39.47,273.954,1505540
0.0328369,-0.134094,1.07532,0.366211,-0.610352,17.8223,0.127,0.079,-112.93,-0.0845642,-0.0504913,0,0,0,0,0,39.47,273.985,1505570
-0.0206299,0.076355,0.994263,0.427246,0.244141,16.9678,-0.046,-0.051,-113.19,-0.0851593,-0.050415,0,0,0,0,0,39.47,274.002,1505586
0.00927734,-0.0445557,1.01434,0.671387,1.09863,17.5171,0.053,0.024,-113.45,-0.0857391,-0.0503693,0,0,0,0,0,39.47,274.013,1505600
0.0319214,-0.112671,1.02411,-0.427246,0,17.334,0.106,0.072,-113.72,-0.0862274,-0.0502472,0,0,0,0,0,39.47,274.033,1505615
-0.0250854,0.00292969,0.953247,0,-0.854492,17.0288,0.021,-0.026,-113.97,-0.0866241,-0.0500946,0,0,0,0,0,39.47,274.053,1505630
-0.00561523,0.0122681,1.06506,-1.09863,0.366211,16.6626,0.006,-0.011,-114.51,-0.0870056,-0.0499268,0,0,0,0,0,39.47,274.074,1505660
0.0320435,0.0796509,1.06659,-0.183105,0.244141,19.5312,-0.07,-0.006,-114.78,-0.0870514,-0.0499268,0,0,0,0,0,39.47,274.093,1505675
-0.0290527,0.0197144,0.967773,-0.305176,-0.610352,20.813,0.008,-0.036,-115.09,-0.0871277,-0.0499573,0,0,0,0,0,39.47,274.113,1505690
0.0249634,0.0784912,1.04486,1.40381,-1.28174,20.0806,-0.066,-0.013,-115.69,-0.0873413,-0.0500183,0,0,0,0,0,39.47,274.134,1505720
-0.0198975,-0.0182495,0.947021,1.58691,-1.64795,21.0571,0.04,-0.011,-116,-0.0874939,-0.0500183,0,0,0,0,0,39.47,274.155,1505735
0.0345459,-0.0118408,1.08545,-0.366211,-0.915527,18.4937,0.012,0.033,-116.58,-0.087677,-0.0500031,0,0,0,0,0,39.47,274.176,1505766
0.0595093,0.18042,1.02747,-0.427246,0.305176,19.104,-0.171,-0.031,-116.86,-0.0878601,-0.0499878,0,0,0,0,0,39.47,274.193,1505780
0.0172119,0.0568237,1.03821,-0.915527,1.46484,17.1509,-0.041,-0.013,-117.13,-0.0881958,-0.0499878,0,0,0,0,0,39.47,274.213,1505795
0.0274658,-0.0708008,1.06622,-1.28174,0.183105,16.5405,0.067,0.054,-117.38,-0.0885162,-0.0499725,0,0,0,0,0,39.47,274.233,1505810
-0.0251465,0.0258179,1.05963,0.305176,0.366211,17.0898,0.005,-0.037,-117.89,-0.0891266,-0.0499573,0,0,0,0,0,39.47,274.253,1505840
0.0229492,0.0441895,1.0733,-0.0610352,0.12207,16.1133,-0.032,-0.002,-118.14,-0.0894623,-0.0500183,0,0,0,0,0,39.47,274.274,1505855
0.019104,0.0498657,1.005,0.244141,-0.366211,17.7612,-0.036,-0.009,-118.4,-0.0898438,-0.0500793,0,0,0,0,0,39.47,274.295,1505870
-0.0313721,-0.126465,1.05646,-1.77002,0,16.6626,0.143,0.031,-118.91,-0.0907745,-0.0500488,0,0,0,0,0,39.47,274.314,1505900
-0.00280762,0.0204468,0.982605,-1.46484,-0.0610352,17.1509,-0.001,-0.014,-119.17,-0.0911407,-0.0500183,0,0,0,0,0,39.47,274.333,1505915
0.00323486,-0.00622559,0.893982,-1.2207,-0.0610352,17.2119,0.017,0.003,-119.43,-0.0911407,-0.0499878,0,0,0,0,0,39.47,274.352,1505930
0.0304565,0.036438,1.05621,-0.671387,-0.244141,18.0664,-0.03,0.005,-119.95,-0.0910492,-0.0499878,0,0,0,0,0,39.47,274.376,1505960
-0.010376,0.012207,0.961792,-0.0610352,-0.793457,19.5923,0.009,-0.017,-120.23,-0.0910187,-0.0500183,0,0,0,0,0,39.47,274.392,1505975
0.0618896,0.0325317,1.00397,0.793457,-0.488281,18.3105,-0.043,0.034,-120.52,-0.0910187,-0.0500183,0,0,0,0,0,39.47,274.412,1505990
0.0253906,0.0935059,1.00623,1.46484,-1.2207,20.2637,-0.077,-0.029,-121.11,-0.0909576,-0.0500336,0,0,0,0,0,39.47,274.433,1506020
0.0236816,-0.00262451,1.04468,0.793457,0.183105,18.6157,0.007,0.019,-121.39,-0.0909882,-0.0500641,0,0,0,0,0,39.47,274.453,1506035
-0.0479736,0.0671997,0.966614,-2.38037,-1.0376,18.0054,-0.016,-0.079,-121.94,-0.0908966,-0.0499573,0,0,0,0,0,39.45,274.475,1506066
0.0338135,0.0336304,1.11505,-0.427246,0.671387,17.0288,-0.029,0.007,-122.2,-0.0908661,-0.0499573,0,0,0,0,0,39.45,274.495,1506080
0.0123901,-0.0167847,0.992798,-0.488281,-1.28174,15.9912,0.023,0.016,-122.44,-0.0908356,-0.0499573,0,0,0,0,0,39.45,274.512,1506095
-0.0443726,0.050293,1.0481,0.305176,-0.488281,18.0664,-0.001,-0.067,-122.71,-0.0908051,-0.0499878,0,0,0,0,0,39.45,274.535,1506111
0.0179443,0.010498,0.983704,1.09863,-1.09863,15.1978,-0.002,0.006,-123.18,-0.0908051,-0.0501099,0,0,0,0,0,39.45,274.553,1506141
0.000427246,0.093689,1.02716,0.244141,0.427246,16.3574,-0.061,-0.054,-123.42,-0.0908508,-0.0502014,0,0,0,0,0,39.45,274.573,1506156
-0.0078125,-0.0654907,0.977112,-0.610352,-0.366211,14.4653,0.075,0.027,-123.65,-0.0908813,-0.050293,0,0,0,0,0,39.45,274.593,1506171
-0.0303345,0.0342407,0.985718,-1.83105,0.244141,15.3809,0.004,-0.047,-124.09,-0.0908661,-0.0503845,0,0,0,0,0,39.45,274.612,1506201
0.00787354,-0.0219116,1.03131,-0.610352,0.366211,15.7471,0.03,0.015,-124.33,-0.0908356,-0.0504608,0,0,0,0,0,39.45,274.633,1506216
0.0105591,0.0317383,1.01984,0.183105,0.976562,16.1133,-0.016,-0.012,-124.57,-0.0908051,-0.0504608,0,0,0,0,0,39.45,274.652,1506231
0.0380249,0.0426636,1.06366,0.854492,1.28174,18.9209,-0.04,0.003,-125.09,-0.0907288,-0.0504608,0,0,0,0,0,39.45,274.673,1506261
0.0142822,0.000793457,0.969238,0.915527,-0.610352,17.395,0.006,0.009,-125.36,-0.0907135,-0.0504608,0,0,0,0,0,39.45,274.693,1506276
0.00500488,0.0457764,1.00818,-0.0610352,-0.12207,19.4092,-0.024,-0.024,-125.64,-0.0907135,-0.0504761,0,0,0,0,0,39.45,274.713,1506291
0.0715942,-0.0275269,1.02386,0.12207,-1.34277,17.2119,-0.004,0.072,-126.21,-0.0909271,-0.0506592,0,0,0,0,0,39.45,274.733,1506321
-0.0360107,0.015564,1.00238,-2.13623,-0.793457,17.334,0.024,-0.04,-126.48,-0.0910492,-0.0507507,0,0,0,0,0,39.45,274.753,1506336
0.0825195,-0.0174561,0.96344,0.0610352,-0.488281,16.7847,-0.02,0.074,-127.01,-0.0912781,-0.0510406,0,0,0,0,0,39.45,274.773,1506366
-0.0288086,-0.0154419,1.01715,-1.0376,-0.305176,15.686,0.045,-0.015,-127.25,-0.0913849,-0.0511475,0,0,0,0,0,39.45,274.793,1506381
0.027832,0.0682983,1.05341,0.244141,1.58691,18.1274,-0.054,-0.021,-127.51,-0.0914917,-0.0512848,0,0,0,0,0,39.45,274.813,1506396
0.0563354,-0.0305786,1.02399,1.15967,0.915527,15.2588,0.006,0.061,-127.76,-0.0916443,-0.0513763,0,0,0,0,0,39.45,274.834,1506411
0.0325928,0.0653076,0.949097,-0.244141,0.0610352,16.6626,-0.057,-0.016,-128.22,-0.0919189,-0.0514221,0,0,0,0,0,39.45,274.853,1506441
-0.0313721,-0.0352783,1.0191,-0.610352,0.427246,16.7236,0.062,-0.003,-128.48,-0.0920715,-0.0514221,0,0,0,0,0,39.45,274.873,1506456
-0.00598145,0.038208,1.10266,0.0610352,1.0376,17.334,-0.01,-0.03,-128.74,-0.0921936,-0.0514526,0,0,0,0,0,39.45,274.892,1506471
0.0249023,0.0556641,0.995728,0,-0.244141,21.2402,-0.045,-0.017,-129.33,-0.092392,-0.0515289,0,0,0,0,0,39.45,274.913,1506501
-0.0483398,-0.106812,0.95636,-1.15967,-0.915527,18.0664,0.126,0.029,-129.61,-0.0924225,-0.0515594,0,0,0,0,0,39.45,274.933,1506516
0.052124,-0.0258179,1.02844,-1.40381,-0.732422,19.4702,0,0.055,-129.89,-0.092392,-0.0515289,0,0,0,0,0,39.45,274.953,1506531
0.0487061,-0.0413208,1.05267,-0.183105,0.244141,18.0664,0.014,0.062,-130.47,-0.0923767,-0.0514221,0,0,0,0,0,39.49,274.973,1506561
0.0463867,0.0592041,1.04749,0.305176,0.305176,17.8223,-0.06,-0.005,-130.74,-0.0924225,-0.0513153,0,0,0,0,0,39.49,274.994,1506576
-0.00897217,0.0758667,0.957153,1.28174,0.488281,19.7144,-0.038,-0.058,-131.03,-0.0925293,-0.051239,0,0,0,0,0,39.49,275.013,1506591
-0.0197144,-0.00646973,0.97406,-0.305176,0,18.1274,0.03,-0.011,-131.59,-0.0927734,-0.0510712,0,0,0,0,0,39.49,275.033,1506621
-0.0192871,0.0463867,0.976929,-1.2207,-0.183105,21.5454,-0.008,-0.046,-131.9,-0.0928802,-0.0509949,0,0,0,0,0,39.49,275.053,1506636
-0.0308228,0.0251465,1.03979,-1.83105,-0.0610352,18.7988,0.015,-0.04,-132.2,-0.0929565,-0.0509949,0,0,0,0,0,39.49,275.073,1506651
0.0394287,0.0151367,0.989502,-1.52588,-1.77002,20.5078,-0.025,0.017,-132.78,-0.0930328,-0.0510101,0,0,0,0,0,39.49,275.097,1506681
-0.0198364,0.0421753,1.03564,-0.427246,-1.34277,19.5312,-0.004,-0.044,-133.08,-0.0930786,-0.0510254,0,0,0,0,0,39.49,275.113,1506696
0.0380859,0.0415039,1.09253,-0.366211,-1.09863,18.4937,-0.042,-0.003,-133.36,-0.0931549,-0.0510864,0,0,0,0,0,39.49,275.134,1506711
0.0383911,0.157043,1.08124,-0.244141,-0.183105,20.0806,-0.125,-0.084,-133.96,-0.0934143,-0.051239,0,0,0,0,0,39.49,275.154,1506741
0.0652466,0.0379028,1.04633,-0.183105,-0.183105,16.5405,-0.059,0.017,-134.23,-0.093689,-0.0513916,0,0,0,0,0,39.49,275.173,1506756
0.0246582,-0.046814,1.04315,-3.2959,0.12207,19.4702,0.029,0.046,-134.52,-0.0939941,-0.0514984,0,0,0,0,0,39.49,275.193,1506771
0.0579224,0.0135498,1.06323,-2.62451,0.610352,17.4561,-0.038,0.026,-135.06,-0.094635,-0.0517273,0,0,0,0,0,39.49,275.213,1506801
-0.0199585,0.0165405,1.02588,-2.74658,-0.366211,18.9209,0.014,-0.03,-135.35,-0.094986,-0.0518494,0,0,0,0,0,39.49,275.235,1506816
-0.0455933,-0.00183105,0.992737,-1.40381,-0.549316,20.6299,0.044,-0.035,-135.65,-0.0953064,-0.0520172,0,0,0,0,0,39.49,275.253,1506831
-0.0722656,0.0316772,1.07129,-1.89209,-0.915527,20.9961,0.041,-0.078,-136.25,-0.0959015,-0.0524292,0,0,0,0,0,39.49,275.273,1506861
0.0366211,0.107239,0.992065,-1.28174,-0.854492,22.583,-0.09,-0.058,-136.59,-0.0962219,-0.0527496,0,0,0,0,0,39.49,275.294,1506876
-0.0043335,0.00610352,0.985718,-1.58691,-1.15967,21.6064,0.009,-0.013,-136.9,-0.0966034,-0.0531158,0,0,0,0,0,39.49,275.313,1506891
0.010437,0.00799561,1.01855,-2.2583,-1.89209,21.7895,-0.002,-0.006,-137.56,-0.0966034,-0.0539246,0,0,0,0,0,39.49,275.333,1506921
0.0386353,0.0748901,1.06219,-0.0610352,-0.549316,20.0195,-0.067,-0.037,-137.86,-0.0966492,-0.0543823,0,0,0,0,0,39.49,275.353,1506936
0.0122681,-0.0258179,1.05811,-1.52588,-0.793457,18.0664,0.02,0.019,-138.14,-0.0967407,-0.0548401,0,0,0,0,0,39.49,275.373,1506951
0.0232544,0.0415649,1.00702,-0.0610352,-0.0610352,18.1274,-0.032,-0.024,-138.71,-0.0969391,-0.0557861,0,0,0,0,0,39.49,275.4,1506981
0.0170898,-0.0584717,1.06281,-0.793457,-0.549316,16.1133,0.038,0.045,-138.96,-0.0970612,-0.0562439,0,0,0,0,0,39.49,275.415,1506996
0.0197144,-0.0228882,1.00061,-2.0752,-0.610352,18.4326,0.011,0.02,-139.21,-0.0971527,-0.0566559,0,0,0,0,0,39.49,275.433,1507011
0.0775757,-0.0328369,1.02637,-1.46484,-0.0610352,17.5171,-0.026,0.065,-139.75,-0.0973053,-0.0575104,0,0,0,0,0,39.49,275.454,1507041
-0.0328369,0.0165405,1.02106,-2.0752,-0.915527,18.5547,0.025,-0.043,-140.02,-0.0973816,-0.0579071,0,0,0,0,0,39.49,275.473,1507056
0.0626831,0.034729,0.987366,-1.28174,-0.854492,17.9443,-0.06,0.002,-140.59,-0.0974579,-0.0583344,0,0,0,0,0,39.49,275.493,1507087
-0.0294189,-0.0101929,1.07501,-1.77002,-1.83105,19.2261,0.039,-0.022,-140.86,-0.0975189,-0.0583344,0,0,0,0,0,39.49,275.513,1507101
-0.0299683,0.0493774,0.979858,-1.52588,-0.976562,20.2026,0.001,-0.068,-141.16,-0.0975647,-0.0584106,0,0,0,0,0,39.49,275.535,1507116
0.0286865,-0.078186,0.992371,-2.01416,-1.15967,19.104,0.035,0.067,-141.45,-0.0975647,-0.0584869,0,0,0,0,0,39.49,275.553,1507131
-0.0219116,-0.00726318,1.02472,-2.0752,-1.28174,19.6533,0.031,-0.02,-142.03,-0.0976105,-0.05867,0,0,0,0,0,39.49,275.573,1507161
0.0526733,0.020813,1.00739,-1.34277,-0.366211,18.7378,-0.045,0.002,-142.32,-0.0976562,-0.0588074,0,0,0,0,0,39.49,275.592,1507176
0.0411377,-0.034668,0.989075,-1.89209,0.488281,17.0898,-0.002,0.039,-142.58,-0.0977325,-0.0588989,0,0,0,0,0,39.49,275.612,1507191
0.0065918,0.0455933,1.05481,-1.2207,0.915527,17.0898,-0.023,-0.047,-143.11,-0.0977478,-0.0591125,0,0,0,0,0,39.49,275.632,1507221
0.0135498,-0.0720215,0.988464,-1.70898,0.549316,16.9067,0.04,0.051,-143.37,-0.0977631,-0.0592499,0,0,0,0,0,39.49,275.652,1507236
0.00402832,0.0465698,0.986511,-1.58691,0.549316,18.9209,-0.023,-0.049,-143.64,-0.0977631,-0.0593719,0,0,0,0,0,39.49,275.672,1507251
0.0161133,-0.0167847,1.02496,-2.56348,0.732422,19.2871,0.003,0.007,-144.21,-0.0977325,-0.0596924,0,0,0,0,0,39.49,275.692,1507281
-0.0228882,0.0114136,0.99823,-3.05176,-0.915527,19.2871,0.017,-0.037,-144.5,-0.0977325,-0.0598755,0,0,0,0,0,39.49,275.713,1507296
-0.00268555,-0.0205688,1.01654,-3.2959,-0.854492,20.5688,0.019,-0.001,-144.81,-0.0977325,-0.0600739,0,0,0,0,0,39.49,275.732,1507311
-0.0359497,-0.0179443,1.05536,-4.27246,-1.46484,19.9585,0.044,-0.024,-145.39,-0.0977173,-0.0605469,0,0,0,0,0,39.49,275.753,1507341
0.0477905,0.0482178,1.00586,-3.479,-0.976562,20.6909,-0.062,-0.031,-145.7,-0.097702,-0.0608215,0,0,0,0,0,39.49,275.772,1507356
0.0181885,-0.0273438,0.969971,-2.80762,-0.915527,18.6768,0.004,0.014,-145.99,-0.0977478,-0.0611267,0,0,0,0,0,39.49,275.793,1507371
0.0349731,-0.0287476,1.01471,-4.45557,0.427246,19.8364,-0.01,0.022,-146.57,-0.0978851,-0.0611115,0,0,0,0,0,39.49,275.814,1507401
0.0335083,-0.0195923,1.08478,-1.89209,1.40381,19.4092,-0.014,0.011,-146.86,-0.0979767,-0.0610962,0,0,0,0,0,39.49,275.834,1507416
-0.0512085,-0.0820923,1.0556,-1.58691,2.0752,18.0054,0.09,0.018,-147.14,-0.0980225,-0.0610504,0,0,0,0,0,39.49,275.852,1507431
0.0253906,-0.0426025,1.01093,0,-0.549316,19.4702,0.003,0.027,-147.73,-0.0979309,-0.0608215,0,0,0,0,0,39.49,275.873,1507461
-0.0614014,-0.0657959,1.01068,0.976562,-1.0376,18.0054,0.088,0,-148,-0.0978088,-0.0606842,0,0,0,0,0,39.49,275.892,1507476
0.0894775,0.0563354,0.961609,-0.732422,-2.44141,19.043,-0.104,-0.023,-148.56,-0.0974884,-0.0606995,0,0,0,0,0,39.49,275.917,1507507
-0.0142212,-0.0856934,1.03101,-0.549316,-1.83105,18.0054,0.058,0.042,-148.83,-0.0973816,-0.0606995,0,0,0,0,0,39.49,275.932,1507521
0.0326538,-0.0057373,1.04425,-1.70898,-2.19727,18.0664,-0.022,-0.002,-149.1,-0.0972443,-0.0606842,0,0,0,0,0,39.49,275.953,1507536
0.050354,-0.0140381,0.993469,-0.854492,-0.366211,18.4937,-0.034,0.014,-149.39,-0.0971527,-0.0606842,0,0,0,0,0,39.49,275.973,1507551
0.0067749,0.0601196,0.989014,-0.366211,-2.31934,17.1509,-0.033,-0.071,-149.9,-0.0973511,-0.0610046,0,0,0,0,0,39.51,275.993,1507582
-0.0159302,0.0257568,1.01562,0.854492,0.0610352,18.1885,0.004,-0.053,-150.46,-0.0977783,-0.0615692,0,0,0,0,0,39.51,276.022,1507612
-0.0159302,0.0257568,1.01562,0.854492,0.0610352,18.1885,0.004,-0.053,-150.46,-0.0977783,-0.0615692,0,0,0,0,0,39.51,276.033,1507612
0.00610352,0.00280762,0.965271,-0.915527,-0.183105,20.9961,-0.003,-0.021,-151.04,-0.0981598,-0.0623169,0,0,0,0,0,39.51,276.054,1507642
0.0172729,0.0582886,1.01923,-0.0610352,-0.488281,20.6299,-0.04,-0.066,-151.36,-0.0983734,-0.0627594,0,0,0,0,0,39.51,276.073,1507657
-0.00543213,0.0115967,1.03625,-1.89209,-1.70898,18.1885,0.002,-0.036,-151.64,-0.0986023,-0.0632782,0,0,0,0,0,39.51,276.093,1507672
0.0467529,-0.0222168,1.01831,0.427246,-1.09863,18.4326,-0.027,0.018,-152.22,-0.0991211,-0.0638275,0,0,0,0,0,39.51,276.114,1507702
-0.0224609,0.00592041,1.07843,1.95312,-1.28174,16.3574,0.021,-0.04,-152.47,-0.0993805,-0.0638428,0,0,0,0,0,39.51,276.133,1507717
0.0202026,-0.029541,0.967041,1.28174,-1.70898,18.7988,0,0.014,-152.75,-0.0996399,-0.0638885,0,0,0,0,0,39.51,276.154,1507732
-0.0176392,-0.0491943,1.08423,0.854492,-0.671387,17.8833,0.043,0.012,-153.3,-0.100189,-0.0639954,0,0,0,0,0,39.51,276.173,1507762
0.0110474,-0.00976562,0.984253,0.244141,-1.46484,19.5312,0,-0.007,-153.59,-0.100418,-0.0640564,0,0,0,0,0,39.51,276.193,1507777
0.0619507,0.0117798,0.979187,-0.183105,-0.0610352,20.9961,-0.055,-0.004,-153.89,-0.100708,-0.0640564,0,0,0,0,0,39.51,276.213,1507792
0.00262451,0.00177002,1.12469,-0.732422,-0.427246,19.9585,0.003,-0.025,-154.47,-0.101273,-0.0641479,0,0,0,0,0,39.51,276.233,1507822
0.0650635,0.0683594,0.962646,-0.366211,-0.610352,20.5078,-0.082,-0.055,-154.78,-0.101593,-0.06427,0,0,0,0,0,39.51,276.253,1507837
0.00183105,-0.0426025,0.983154,-0.0610352,-0.854492,18.8599,0.022,0.018,-155.07,-0.101959,-0.0644073,0,0,0,0,0,39.51,276.274,1507852
-0.0155029,-0.0671387,1.00348,-1.89209,-0.671387,20.0195,0.048,0.032,-155.66,-0.102646,-0.0647125,0,0,0,0,0,39.51,276.293,1507882
0.0435181,0.0213013,0.999634,-1.0376,-0.12207,19.3481,-0.042,-0.024,-155.95,-0.102951,-0.0648651,0,0,0,0,0,39.51,276.313,1507897
-0.0281982,-0.0462036,1.00647,-0.305176,-1.28174,17.7612,0.051,0.008,-156.22,-0.103271,-0.0650177,0,0,0,0,0,39.51,276.334,1507912
0.012146,-0.045105,0.954285,-0.244141,-0.427246,17.4561,0.012,0.024,-156.78,-0.103867,-0.0654449,0,0,0,0,0,39.51,276.354,1507942
-0.0375977,-0.0112305,0.968445,0.244141,-1.0376,17.8223,0.045,-0.026,-157.3,-0.104568,-0.0661011,0,0,0,0,0,39.51,276.385,1507972
-0.0375977,-0.0112305,0.968445,0.244141,-1.0376,17.8223,0.045,-0.026,-157.3,-0.104568,-0.0661011,0,0,0,0,0,39.51,276.394,1507972
0.0298462,0.00500488,1.04767,-0.549316,-0.854492,18.0664,-0.022,-0.017,-157.86,-0.105301,-0.0664825,0,0,0,0,0,39.51,276.414,1508002
-0.0224609,-0.0310669,0.991638,-2.13623,-2.01416,19.7754,0.039,-0.002,-158.14,-0.105667,-0.0664825,0,0,0,0,0,39.51,276.433,1508017
0.0764771,0.195007,0.875977,0.0610352,-1.58691,20.6909,-0.136,-0.174,-158.45,-0.106094,-0.0666046,0,0,0,0,0,39.51,276.453,1508032
0.0161743,-0.0475464,1.05792,-1.58691,0.12207,19.9585,0.009,0.024,-159.02,-0.106628,-0.0669708,0,0,0,0,0,39.51,276.473,1508062
0.0413208,-0.135986,1.08252,-0.427246,0,18.4326,0.016,0.115,-159.6,-0.106659,-0.0672455,0,0,0,0,0,39.46,276.503,1508092
0.0413208,-0.135986,1.08252,-0.427246,0,18.4326,0.016,0.115,-159.6,-0.106659,-0.0672455,0,0,0,0,0,39.46,276.514,1508092
-0.0498657,-0.0309448,0.908447,0.12207,-0.610352,18.0054,0.064,-0.01,-160.14,-0.106735,-0.0674286,0,0,0,0,0,39.46,276.533,1508122
0.0761719,0.114441,0.993591,0.366211,-0.488281,17.6392,-0.102,-0.107,-160.42,-0.106796,-0.0676117,0,0,0,0,0,39.46,276.553,1508137
-0.00592041,0.0490723,1.10114,-1.0376,-1.70898,16.7236,-0.002,-0.075,-160.68,-0.106918,-0.0679169,0,0,0,0,0,39.46,276.573,1508152
0.0299683,0.0221558,1.12091,0,-0.549316,17.0898,-0.026,-0.039,-161.48,-0.107239,-0.0692291,0,0,0,0,0,39.46,276.609,1508197
0.0299683,0.0221558,1.12091,0,-0.549316,17.0898,-0.026,-0.039,-161.48,-0.107239,-0.0692291,0,0,0,0,0,39.46,276.618,1508197
-0.0820923,-0.098999,0.998535,-1.89209,-0.488281,19.5923,0.116,0.042,-161.76,-0.107315,-0.0697174,0,0,0,0,0,39.46,276.634,1508212
0.0373535,-0.0263062,1.0816,-0.366211,-1.40381,17.7002,-0.018,0.008,-162.34,-0.107529,-0.0707245,0,0,0,0,0,39.46,276.653,1508242
0.0658569,-0.0255127,0.97821,-0.793457,-0.671387,19.9585,-0.047,0.017,-162.92,-0.107651,-0.07164,0,0,0,0,0,39.46,276.688,1508272
-0.0236206,0.00823975,1.03827,-0.183105,-1.28174,19.7754,0.028,-0.042,-163.48,-0.107803,-0.0724792,0,0,0,0,0,39.46,276.714,1508302
0.0360718,-0.110718,1.00397,0.732422,0.244141,19.5923,0.004,0.089,-163.78,-0.107849,-0.0728607,0,0,0,0,0,39.46,276.736,1508317
0.0126953,-0.0908813,1.07159,0.488281,0.183105,18.1885,0.022,0.062,-164.06,-0.10788,-0.0731506,0,0,0,0,0,39.46,276.753,1508332
0.0649414,0.0709839,0.95752,0.12207,-1.15967,19.2261,-0.073,-0.077,-164.6,-0.107773,-0.0736847,0,0,0,0,0,39.46,276.773,1508362
0.067627,0.0266113,0.973267,0.488281,-1.46484,17.334,-0.063,-0.033,-164.87,-0.107803,-0.0740509,0,0,0,0,0,39.46,276.793,1508377
-0.097229,0.0354614,0.984619,0.488281,-0.732422,17.9443,0.093,-0.085,-165.13,-0.107819,-0.0744934,0,0,0,0,0,39.46,276.813,1508392
0.0386963,0.0324707,0.975586,-0.12207,-0.671387,19.2871,-0.036,-0.047,-165.74,-0.107758,-0.0755005,0,0,0,0,0,39.46,276.839,1508422
-0.026001,-0.00549316,1.00787,-1.58691,-1.15967,19.9585,0.035,-0.028,-166.03,-0.107742,-0.0760651,0,0,0,0,0,39.46,276.852,1508437
0.0493164,-0.0365601,1.03168,-2.44141,-1.15967,20.5688,-0.029,0.019,-166.34,-0.107727,-0.0766449,0,0,0,0,0,39.46,276.874,1508452
-0.0167236,-0.0194702,1.02051,0.915527,-0.976562,18.6768,0.03,-0.012,-167.18,-0.107803,-0.0787811,0,0,0,0,0,39.46,276.906,1508497
-0.0167236,-0.0194702,1.02051,0.915527,-0.976562,18.6768,0.03,-0.012,-167.18,-0.107803,-0.0787811,0,0,0,0,0,39.46,276.915,1508497
-0.0248413,-0.118347,1.06165,1.15967,0.488281,20.0806,0.06,0.081,-167.49,-0.107758,-0.0795135,0,0,0,0,0,39.46,276.932,1508512
0.0496216,0.0145874,0.947571,-1.58691,-1.34277,18.7988,-0.041,-0.03,-168.02,-0.10759,-0.0808411,0,0,0,0,0,39.46,276.953,1508542
0.03125,0.0356445,1.00452,0.854492,-0.854492,18.7988,-0.027,-0.056,-168.29,-0.107574,-0.0815582,0,0,0,0,0,39.46,276.974,1508557
-0.00634766,-0.0250854,1.03369,0.12207,-0.183105,17.334,0.022,-0.004,-168.55,-0.107544,-0.0823212,0,0,0,0,0,39.46,276.992,1508572
0.0534668,-0.00683594,0.9953,-0.0610352,-0.366211,19.7144,-0.04,-0.01,-169.11,-0.107529,-0.0839081,0,0,0,0,0,39.48,277.013,1508602
-0.0349731,-0.120117,1.08643,-0.305176,0.427246,18.0054,0.068,0.081,-169.39,-0.107513,-0.0846558,0,0,0,0,0,39.48,277.033,1508617
-0.0470581,-0.00665283,1.03802,-0.12207,-0.244141,17.8833,0.058,-0.03,-169.65,-0.107422,-0.0853729,0,0,0,0,0,39.48,277.053,1508632
0.00854492,-0.0499878,1.03778,-0.366211,-0.0610352,16.6626,0.011,0.021,-170.22,-0.107224,-0.086853,0,0,0,0,0,39.48,277.073,1508662
-0.0278931,-0.00860596,1.01788,-0.854492,0.366211,17.2729,0.04,-0.024,-170.47,-0.107101,-0.0875702,0,0,0,0,0,39.48,277.093,1508677
0.0231323,-0.0405884,0.989746,-1.34277,0.183105,18.3716,-0.005,0.015,-170.74,-0.106964,-0.0883026,0,0,0,0,0,39.48,277.113,1508692
-0.083313,-0.0444946,1.06927,-1.52588,0.549316,15.8691,0.1,0,-171.25,-0.106689,-0.0883026,0,0,0,0,0,39.48,277.133,1508722
0.0340576,-0.0568237,1.00507,-0.671387,0.0610352,17.9443,-0.015,0.032,-171.51,-0.106476,-0.0882874,0,0,0,0,0,39.48,277.156,1508737
0.0215454,-0.0776978,1.04163,-0.976562,0.183105,17.334,0,0.049,-171.77,-0.106476,-0.0882111,0,0,0,0,0,39.48,277.173,1508752
0.0250854,-0.0587158,0.907471,-1.77002,-0.366211,18.6768,-0.008,0.034,-172.28,-0.106308,-0.0878601,0,0,0,0,0,39.48,277.195,1508782
0.0560913,0.0447998,0.958069,0.366211,-1.40381,18.1274,-0.052,-0.065,-172.57,-0.106247,-0.087677,0,0,0,0,0,39.48,277.213,1508797
0.03479,0.0249634,1.05164,-0.793457,-1.15967,16.8457,-0.027,-0.051,-172.82,-0.106232,-0.0875702,0,0,0,0,0,39.48,277.233,1508812
0.0780029,-0.152527,1.09979,-0.610352,1.95312,17.9443,-0.049,0.126,-173.35,-0.10614,-0.0872192,0,0,0,0,0,39.48,277.253,1508842
-0.0164795,-0.0267944,1.06458,-0.488281,1.2207,15.564,0.03,-0.007,-173.59,-0.106094,-0.0868988,0,0,0,0,0,39.48,277.274,1508857
0.00994873,-0.0413818,0.940613,-1.2207,-1.09863,18.1885,0.003,0.013,-173.84,-0.106033,-0.0868988,0,0,0,0,0,39.48,277.293,1508872
-0.0247803,-0.0759888,1.06702,-1.83105,-0.488281,17.7002,0.042,0.04,-174.4,-0.105957,-0.0869751,0,0,0,0,0,39.48,277.313,1508902
-0.0252686,0.00579834,0.96814,-3.41797,-0.0610352,20.6909,0.033,-0.038,-174.69,-0.105881,-0.0870056,0,0,0,0,0,39.48,277.333,1508917
0.0479126,0.062439,0.909912,-1.15967,-1.2207,19.8975,-0.045,-0.087,-175,-0.105789,-0.0871277,0,0,0,0,0,39.48,277.353,1508932
-0.0546265,0.0363159,0.978394,-1.95312,-2.01416,20.2637,0.06,-0.071,-175.6,-0.105667,-0.0874634,0,0,0,0,0,39.48,277.373,1508962
0.0794067,0.109314,0.889709,-2.01416,-2.19727,20.0806,-0.079,-0.131,-175.89,-0.105591,-0.0877686,0,0,0,0,0,39.48,277.393,1508977
0.0547485,0.180481,0.962402,0.610352,-1.64795,18.3105,-0.057,-0.207,-176.18,-0.105606,-0.0883179,0,0,0,0,0,39.48,277.413,1508992
-0.0266113,-0.137512,0.965088,-1.89209,0.671387,19.4092,0.043,0.104,-176.74,-0.105576,-0.0895844,0,0,0,0,0,39.48,277.433,1509022
0.0805664,0.0498657,1.06055,-0.671387,-0.488281,19.6533,-0.072,-0.08,-177.03,-0.105545,-0.0901489,0,0,0,0,0,39.48,277.453,1509038
0.019104,-0.071106,1.04877,-2.01416,-0.0610352,18.1885,-0.004,0.037,-177.31,-0.105576,-0.0907593,0,0,0,0,0,39.48,277.474,1509053
0.125061,0.00958252,1.0058,-1.28174,-0.976562,18.2495,-0.115,-0.039,-177.87,-0.10556,-0.0919952,0,0,0,0,0,39.48,277.493,1509083
-0.00012207,0.071106,1.04346,0.854492,-0.915527,15.5029,0.008,-0.106,-178.12,-0.105637,-0.0927429,0,0,0,0,0,39.48,277.513,1509098
-0.0949097,-0.105957,0.966797,0.732422,-1.0376,17.6392,0.107,0.071,-178.37,-0.105652,-0.0935211,0,0,0,0,0,39.49,277.533,1509113
-0.00408936,-0.0358887,1.14191,1.52588,-0.366211,17.2119,0.016,-0.001,-178.93,-0.105576,-0.0948486,0,0,0,0,0,39.49,277.554,1509143
-0.102478,0.00439453,0.974731,-0.854492,-1.28174,20.1416,0.112,-0.037,-179.22,-0.105453,-0.0955353,0,0,0,0,0,39.49,277.574,1509158
0.0359497,-0.0152588,0.948669,-1.52588,-1.77002,21.9727,-0.026,-0.016,-179.53,-0.10527,-0.0962524,0,0,0,0,0,39.49,277.593,1509173
-0.0101318,0.0132446,1.021,-0.305176,-2.2583,19.7754,0.021,-0.047,179.88,-0.104996,-0.0978394,0,0,0,0,0,39.49,277.613,1509203
0.00140381,-0.163025,1.00769,-0.12207,0.12207,20.5078,0.009,0.13,179.57,-0.104828,-0.0986023,0,0,0,0,0,39.49,277.634,1509218
0.0057373,0.0239258,1.0069,0.488281,-1.77002,17.6392,0.007,-0.056,179.02,-0.10463,-0.100098,0,0,0,0,0,39.49,277.657,1509248
0.00823975,-0.0305176,0.976196,0.244141,-0.488281,19.6533,0.003,-0.001,178.73,-0.104523,-0.100906,0,0,0,0,0,39.49,277.673,1509263
0.00769043,-0.133911,1.06836,0,0.854492,18.1885,0.002,0.099,178.44,-0.104523,-0.101654,0,0,0,0,0,39.49,277.693,1509278
-0.0669556,-0.0563354,1.07007,-0.915527,0,17.1509,0.079,0.024,178.19,-0.104477,-0.10231,0,0,0,0,0,39.49,277.713,1509293
0.144348,0.105408,0.983337,0.244141,-2.2583,18.0664,-0.127,-0.143,177.64,-0.104355,-0.103821,0,0,0,0,0,39.49,277.733,1509323
-0.0303955,-0.0626831,1.06592,0.366211,-1.40381,16.1743,0.041,0.03,177.38,-0.104416,-0.104721,0,0,0,0,0,39.49,277.753,1509338
-0.071167,-0.163818,0.987549,1.34277,-0.427246,18.2495,0.075,0.136,177.12,-0.10437,-0.105499,0,0,0,0,0,39.49,277.773,1509353
0.00115967,0.20575,1.0697,2.50244,-3.17383,16.2354,0.025,-0.237,176.59,-0.104263,-0.1073,0,0,0,0,0,39.49,277.796,1509383
-0.0154419,-0.120605,1.00201,-0.915527,-2.62451,18.8599,0.02,0.091,176.32,-0.104187,-0.108429,0,0,0,0,0,39.49,277.813,1509398
0.0526123,0.0271606,0.929077,-0.671387,-2.0752,18.1885,-0.037,-0.058,176.04,-0.104111,-0.109543,0,0,0,0,0,39.49,277.832,1509413
0.012146,0.140076,0.936157,0.976562,-2.50244,18.1274,0.012,-0.168,175.49,-0.103973,-0.111893,0,0,0,0,0,39.49,277.854,1509443
0.106995,-0.0579834,0.979248,-0.305176,-1.64795,19.104,-0.097,0.02,175.2,-0.103958,-0.11322,0,0,0,0,0,39.49,277.872,1509458
0.00811768,-0.161072,1.1076,0.793457,1.34277,16.7236,-0.005,0.128,174.94,-0.104019,-0.114456,0,0,0,0,0,39.49,277.893,1509473
0.0106201,-0.032959,0.968933,0.976562,0.12207,18.1885,0,0.004,174.42,-0.104065,-0.116669,0,0,0,0,0,39.49,277.912,1509503
0.0758667,-0.0550537,1.03864,1.2207,-0.12207,17.6392,-0.065,0.017,174.15,-0.104095,-0.116669,0,0,0,0,0,39.49,277.932,1509518
-0.0807495,0.00183105,0.999451,0.427246,0.549316,17.5781,0.095,-0.02,173.89,-0.104126,-0.116684,0,0,0,0,0,39.49,277.953,1509533
0.0588989,0.0175781,1.02496,0.0610352,-0.671387,17.7612,-0.041,-0.052,173.32,-0.10408,-0.116959,0,0,0,0,0,39.49,277.972,1509563
-0.00823975,-0.0372925,1.05444,-2.2583,-1.52588,17.5781,0.018,0.009,173.07,-0.104095,-0.117188,0,0,0,0,0,39.49,277.992,1509578
0.0234985,0.0319214,0.933228,-0.488281,-0.854492,18.5547,-0.006,-0.059,172.78,-0.104095,-0.117447,0,0,0,0,0,39.49,278.012,1509593
-0.0195923,0.0101929,1.07379,-0.0610352,0.0610352,16.8457,0.036,-0.036,172.26,-0.104156,-0.118347,0,0,0,0,0,39.47,278.033,1509623
-0.00604248,-0.067749,1.01605,0,-0.0610352,18.2495,0.011,0.041,171.99,-0.104156,-0.118835,0,0,0,0,0,39.47,278.06,1509638
0.0758667,-0.123718,1.08032,-0.976562,1.52588,17.7612,-0.076,0.082,171.73,-0.104202,-0.119263,0,0,0,0,0,39.47,278.072,1509653
0.00518799,-0.0199585,0.967041,-1.0376,-0.0610352,17.334,0.005,-0.007,171.23,-0.104385,-0.120087,0,0,0,0,0,39.47,278.092,1509683
0.0449829,0.0238647,0.960327,-0.12207,1.0376,17.0898,-0.026,-0.056,170.96,-0.104492,-0.120575,0,0,0,0,0,39.47,278.113,1509698
-0.00366211,0.0354614,1.02295,0.793457,-0.305176,15.3809,0.023,-0.062,170.72,-0.104599,-0.12114,0,0,0,0,0,39.47,278.133,1509713
-0.0255737,-0.048645,1.02319,0,1.34277,18.4937,0.03,0.023,170.46,-0.10466,-0.121735,0,0,0,0,0,39.47,278.153,1509728
-0.0709229,-0.161621,1.07031,0.12207,1.15967,17.5171,0.055,0.142,169.93,-0.104691,-0.122452,0,0,0,0,0,39.47,278.173,1509758
-0.00695801,0.129456,0.940491,0.610352,-1.2207,19.9585,0.041,-0.152,169.64,-0.104599,-0.122711,0,0,0,0,0,39.47,278.192,1509773
-0.0353394,-0.0384521,1.05054,-0.0610352,-1.15967,17.7002,0.04,0.015,169.08,-0.104431,-0.123672,0,0,0,0,0,39.47,278.213,1509803
-0.0216064,-0.107727,1.05157,-1.2207,-0.915527,19.4702,0.013,0.081,168.8,-0.104309,-0.1241,0,0,0,0,0,39.47,278.236,1509818
-0.00500488,0.0579834,1.01953,0.305176,-1.15967,17.8833,0.03,-0.083,168.22,-0.104111,-0.125,0,0,0,0,0,39.47,278.26,1509848
-0.00500488,0.0579834,1.01953,0.305176,-1.15967,17.8833,0.03,-0.083,168.22,-0.104111,-0.125,0,0,0,0,0,39.47,278.272,1509848
0.0535278,0.086853,0.901611,-1.28174,0,19.7754,-0.021,-0.121,167.63,-0.103943,-0.126129,0,0,0,0,0,39.47,278.293,1509878
0.09729,0.0493164,1.06915,-1.70898,-1.46484,18.8599,-0.07,-0.099,167.35,-0.103943,-0.126877,0,0,0,0,0,39.47,278.313,1509893
-0.0953369,0.0487671,0.947083,0.427246,0.305176,18.1885,0.116,-0.052,167.06,-0.103912,-0.127731,0,0,0,0,0,39.47,278.332,1509908
0.0178833,-0.120728,1.14703,0,0.488281,19.043,-0.03,0.081,166.47,-0.10379,-0.129456,0,0,0,0,0,39.47,278.353,1509938
-0.0366821,0.00445557,0.968994,-0.305176,-1.09863,18.3716,0.049,-0.022,166.18,-0.103745,-0.130249,0,0,0,0,0,39.47,278.374,1509953
0.00292969,0.00683594,1.07068,0.549316,-0.488281,18.7378,0.013,-0.036,165.61,-0.103714,-0.131866,0,0,0,0,0,39.47,278.393,1509983
-0.046936,-0.0234985,1.00519,0,-0.610352,18.0664,0.052,0.007,165.34,-0.103653,-0.132721,0,0,0,0,0,39.47,278.414,1509998
0.0241089,-0.00299072,0.952576,2.13623,-0.488281,20.5688,-0.011,-0.029,165.05,-0.103577,-0.133575,0,0,0,0,0,39.47,278.434,1510013
-0.06073,-0.0032959,0.995117,-1.09863,-0.12207,20.1416,0.071,-0.006,164.43,-0.10347,-0.135193,0,0,0,0,0,39.47,278.453,1510043
0.0141602,-0.0250244,0.941467,-0.12207,-1.15967,22.4609,-0.007,-0.005,164.1,-0.103348,-0.135193,0,0,0,0,0,39.47,278.476,1510058
0.0140991,-0.0496826,1.02124,-1.40381,0.305176,21.1792,-0.013,0.016,163.77,-0.103348,-0.135193,0,0,0,0,0,39.47,278.493,1510073
0.00366211,0.0343628,0.934326,-1.15967,-1.77002,21.1182,0.019,-0.058,163.14,-0.10321,-0.135437,0,0,0,0,0,39.47,278.514,1510103
0.00311279,-0.0842896,1.0473,-0.0610352,-0.854492,20.6909,-0.012,0.051,162.83,-0.103104,-0.13562,0,0,0,0,0,39.47,278.534,1510118
-0.0297852,0.0265503,1.10303,-0.0610352,-2.01416,19.5923,0.052,-0.045,162.52,-0.102966,-0.135803,0,0,0,0,0,39.46,278.553,1510133
0.0564575,-0.00653076,0.996826,0.915527,-0.976562,20.3857,-0.04,-0.037,161.93,-0.102554,-0.1362,0,0,0,0,0,39.46,278.573,1510163
0.00848389,0.00585938,1.12292,0.549316,-1.95312,18.3105,0.011,-0.037,161.65,-0.102371,-0.136444,0,0,0,0,0,39.46,278.594,1510178
-0.100647,-0.117249,1.0332,-0.488281,0.915527,17.6392,0.074,0.116,161.38,-0.102127,-0.136658,0,0,0,0,0,39.46,278.616,1510193
0.0507202,-0.0010376,1.06775,-0.610352,-0.671387,16.0522,-0.03,-0.042,160.86,-0.101776,-0.137024,0,0,0,0,0,39.46,278.633,1510223
-0.0368042,0.0340576,0.922607,-1.09863,-1.77002,17.6392,0.061,-0.043,160.61,-0.101624,-0.137299,0,0,0,0,0,39.46,278.653,1510238
0.0369263,0.00744629,0.918518,1.46484,-1.2207,17.8833,-0.017,-0.043,160.34,-0.10144,-0.137634,0,0,0,0,0,39.46,278.673,1510253
-0.0859985,-0.00787354,0.974609,-0.12207,-1.46484,18.2495,0.094,0.012,159.79,-0.101089,-0.138,0,0,0,0,0,39.46,278.694,1510283
0.0634155,-0.039856,1.01617,-0.0610352,-0.671387,20.9351,-0.056,-0.01,159.49,-0.100861,-0.138,0,0,0,0,0,39.46,278.713,1510298
-0.0181885,-0.157227,1.08936,0.183105,-0.427246,19.104,-0.02,0.126,159.19,-0.100677,-0.137924,0,0,0,0,0,39.46,278.733,1510313
0.0308838,-0.0765381,0.938232,-0.549316,-1.40381,19.3481,-0.04,0.036,158.62,-0.10025,-0.137619,0,0,0,0,0,39.46,278.753,1510343
0.0619507,-0.0275269,1.10468,1.34277,-0.671387,17.7612,-0.047,-0.025,158.34,-0.100082,-0.137451,0,0,0,0,0,39.46,278.773,1510358
-0.0904541,-0.193115,1.17169,0.915527,-0.854492,18.0664,0.033,0.184,158.07,-0.0999146,-0.137161,0,0,0,0,0,39.46,278.793,1510373
0.0901489,0.0478516,0.975403,1.77002,-0.488281,18.6157,-0.046,-0.102,157.5,-0.0995636,-0.135757,0,0,0,0,0,39.46,278.813,1510403
-0.00830078,0.0795288,1.04572,-0.0610352,-1.95312,17.8223,0.058,-0.095,157.23,-0.0993958,-0.135101,0,0,0,0,0,39.46,278.834,1510418
-0.0327148,-0.0916138,0.97229,-1.15967,-0.427246,19.3481,0.012,0.073,156.95,-0.0991821,-0.13446,0,0,0,0,0,39.46,278.853,1510433
0.0305786,0.0427856,1.07025,-0.610352,-0.610352,18.0054,0.01,-0.077,156.41,-0.0988159,-0.133163,0,0,0,0,0,39.46,278.873,1510464
-0.0321045,-0.147278,0.992493,-0.915527,-0.244141,17.2729,-0.011,0.123,156.14,-0.0986481,-0.132507,0,0,0,0,0,39.46,278.893,1510478
0.00927734,-0.167908,1.0506,0.488281,1.58691,17.8833,-0.057,0.124,155.88,-0.098526,-0.131683,0,0,0,0,0,39.46,278.913,1510493
-0.10376,-0.103394,0.999817,0.0610352,-0.976562,17.2119,0.07,0.113,155.37,-0.0982056,-0.13002,0,0,0,0,0,39.46,278.934,1510524
0.076416,0.0849609,0.983276,-0.183105,-0.976562,19.2261,-0.014,-0.133,155.08,-0.0979767,-0.129211,0,0,0,0,0,39.46,278.953,1510539
0.000183105,0.00305176,1.00446,-0.0610352,-1.58691,16.6626,0.021,-0.026,154.81,-0.0977478,-0.128494,0,0,0,0,0,39.46,278.974,1510554
0.0494385,0.0105591,0.987427,0.488281,-1.77002,18.8599,-0.02,-0.054,154.25,-0.0971222,-0.127151,0,0,0,0,0,39.46,278.995,1510584
0.0501099,0.0133057,1.02802,1.0376,-0.305176,17.7612,-0.018,-0.057,153.98,-0.096817,-0.126587,0,0,0,0,0,39.46,279.013,1510599
-0.0215454,0.0194702,1.0238,0.915527,-0.671387,17.2729,0.048,-0.031,153.72,-0.0964966,-0.126083,0,0,0,0,0,39.46,279.032,1510614
0.0471802,-0.0474854,1.06604,1.0376,0.244141,18.2495,-0.041,-0.002,153.15,-0.0959167,-0.125031,0,0,0,0,0,39.52,279.052,1510644
-0.00592041,-0.0437012,1.02142,-1.15967,-0.976562,19.5312,0.006,0.019,152.87,-0.0956879,-0.125031,0,0,0,0,0,39.52,279.073,1510659
0.0506592,0.107727,0.934509,0.244141,-1.58691,21.4233,0.023,-0.139,152.55,-0.0954285,-0.125107,0,0,0,0,0,39.52,279.093,1510674
-0.0649414,0.0618896,1.00696,0.0610352,-1.09863,20.1416,0.107,-0.046,151.93,-0.0948639,-0.125366,0,0,0,0,0,39.52,279.112,1510704
-0.00964355,0.00604248,0.99231,1.46484,-1.89209,20.2637,0.031,-0.022,151.64,-0.0944519,-0.125549,0,0,0,0,0,39.52,279.133,1510719
0.00274658,-0.117065,1.08984,1.40381,-0.366211,19.8975,-0.036,0.078,151.33,-0.0940552,-0.125671,0,0,0,0,0,39.52,279.153,1510734
0.0476685,-0.107727,1.06439,0.976562,-0.854492,20.5688,-0.072,0.049,150.74,-0.093277,-0.125641,0,0,0,0,0,39.52,279.172,1510764
0.0185547,-0.192017,1.08929,0.732422,0.549316,19.6533,-0.088,0.136,150.44,-0.0930023,-0.125458,0,0,0,0,0,39.52,279.194,1510779
-0.0142822,-0.00402832,1.05316,-0.732422,0,18.9819,0.033,-0.01,150.16,-0.0927734,-0.125183,0,0,0,0,0,39.52,279.212,1510794
0.0504761,-0.0415649,0.958435,-0.671387,-0.793457,18.9209,-0.043,-0.008,149.87,-0.0925598,-0.125183,0,0,0,0,0,39.52,279.232,1510809
0.0012207,-0.0924683,1.12305,0.671387,-0.854492,18.0054,-0.023,0.056,149.31,-0.0920868,-0.12529,0,0,0,0,0,39.52,279.253,1510839
-0.139404,-0.332336,1.02637,-0.244141,1.40381,19.8364,-0.029,0.337,149.02,-0.0918732,-0.125076,0,0,0,0,0,39.52,279.273,1510854
-0.0465698,-0.0669556,1.06543,0.610352,-1.0376,18.0054,0.027,0.06,148.44,-0.0914307,-0.12442,0,0,0,0,0,39.52,279.295,1510884
-0.0234985,-0.0649414,0.960022,0.0610352,-0.976562,19.8364,0.005,0.049,148.15,-0.0911713,-0.124039,0,0,0,0,0,39.52,279.312,1510899
0.0587769,-0.0109863,0.999939,1.0376,-0.915527,19.5923,-0.034,-0.041,147.85,-0.0909271,-0.123657,0,0,0,0,0,39.52,279.333,1510914
-0.0951538,-0.152039,1.00861,1.83105,-0.488281,17.5781,0.019,0.161,147.3,-0.0905609,-0.122742,0,0,0,0,0,39.52,279.353,1510944
-0.00744629,-0.062561,1.10284,4.39453,0.976562,18.9209,-0.004,0.037,147.02,-0.0905609,-0.12207,0,0,0,0,0,39.52,279.373,1510959
-0.0400391,-0.0055542,1.02795,1.52588,-0.854492,17.5171,0.052,0.009,146.51,-0.0905457,-0.120544,0,0,0,0,0,39.52,279.399,1510989
0.0895996,0.0183716,0.970032,1.15967,-0.854492,18.0664,-0.043,-0.08,146.25,-0.0904999,-0.119812,0,0,0,0,0,39.52,279.413,1511004
-0.0301514,-0.0545044,1.00714,0,-1.28174,17.334,0.016,0.046,145.98,-0.0904999,-0.119095,0,0,0,0,0,39.52,279.435,1511019
-0.0217285,0.0776367,1.00122,-0.488281,-0.854492,19.3481,0.083,-0.067,145.69,-0.0904083,-0.118393,0,0,0,0,0,39.52,279.453,1511034
0.0343018,-0.045166,1.04071,-0.0610352,-0.305176,19.104,-0.031,0.001,145.13,-0.09021,-0.117096,0,0,0,0,0,39.52,279.473,1511064
-0.02948,-0.00427246,0.980042,-0.366211,-0.610352,17.395,0.042,0.005,144.86,-0.0901184,-0.117096,0,0,0,0,0,39.52,279.493,1511079
0.059021,-0.0194702,0.967834,1.09863,0.12207,18.1885,-0.038,-0.033,144.59,-0.0900269,-0.117111,0,0,0,0,0,39.52,279.513,1511094
-0.0582886,-0.0697021,1.02289,1.2207,0.671387,18.0054,0.027,0.075,144.08,-0.0898438,-0.117157,0,0,0,0,0,39.52,279.533,1511124
0.0429077,0.0183716,0.960449,1.09863,-0.671387,19.4092,-0.003,-0.054,143.79,-0.0897217,-0.117157,0,0,0,0,0,39.52,279.553,1511139
0.0424805,-0.109253,1.1106,-0.305176,-0.854492,17.9443,-0.076,0.046,143.52,-0.0896454,-0.117142,0,0,0,0,0,39.48,279.573,1511154
0.0337524,0.0935669,0.890442,-0.366211,-2.38037,21.3623,0.047,-0.107,142.9,-0.089386,-0.117249,0,0,0,0,0,39.48,279.593,1511184
0.0010376,0.0628052,0.99939,0.732422,-0.854492,20.0806,0.057,-0.064,142.59,-0.0891266,-0.117462,0,0,0,0,0,39.48,279.613,1511199
-0.00421143,0.0551758,1.05023,-0.12207,-1.15967,20.9961,0.058,-0.055,142.28,-0.0887909,-0.117767,0,0,0,0,0,39.48,279.633,1511214
0.0341797,0.0673828,0.994934,1.2207,-0.671387,19.043,0.035,-0.086,141.67,-0.0880127,-0.118515,0,0,0,0,0,39.48,279.653,1511244
0.0717163,0.015564,1.05914,-1.46484,-0.671387,20.4468,-0.023,-0.07,141.36,-0.0876007,-0.119019,0,0,0,0,0,39.48,279.673,1511259
-0.0222168,-0.00604248,0.976746,-1.83105,0.488281,18.6768,0.033,0.006,141.08,-0.0871887,-0.119583,0,0,0,0,0,39.48,279.693,1511274
-0.0265503,0.132385,1.00128,-0.183105,0.244141,17.2729,0.126,-0.098,140.51,-0.086319,-0.120911,0,0,0,0,0,39.48,279.713,1511304
-0.0407715,-0.0309448,0.99823,-1.2207,-0.610352,17.5781,0.032,0.036,140.25,-0.0857391,-0.121674,0,0,0,0,0,39.48,279.733,1511319
0.0464478,-0.0681763,1.0246,-1.09863,0.793457,16.9067,-0.057,0.008,139.98,-0.0851898,-0.122406,0,0,0,0,0,39.48,279.755,1511334
0.000793457,0.0012207,1.01807,0.183105,-0.915527,16.3574,0.021,-0.014,139.74,-0.0846558,-0.123138,0,0,0,0,0,39.48,279.773,1511349
0.0209351,-0.0632935,1.09058,1.0376,-0.549316,18.9209,-0.034,0.019,139.18,-0.0835266,-0.124527,0,0,0,0,0,39.48,279.793,1511379
-0.0349731,-0.0447388,1.0777,-0.305176,0.0610352,19.104,0.019,0.042,138.89,-0.082962,-0.125153,0,0,0,0,0,39.48,279.813,1511394
0.0405884,-0.0797729,1.01855,-1.46484,-0.854492,21.4233,-0.062,0.018,138.26,-0.0817261,-0.126572,0,0,0,0,0,39.48,279.833,1511424
0.0461426,0.0167847,1.13501,-1.15967,-0.793457,19.2871,0.001,-0.058,137.96,-0.0811462,-0.127335,0,0,0,0,0,39.48,279.853,1511439
-0.038269,-0.0209961,1.04675,-1.77002,-0.488281,21.0571,0.036,0.027,137.65,-0.0805359,-0.128113,0,0,0,0,0,39.48,279.873,1511454
0.0487671,0.0200806,0.970215,-0.0610352,-0.366211,20.0195,-0.001,-0.06,137.33,-0.0799103,-0.128922,0,0,0,0,0,39.48,279.893,1511470
-0.0272217,0.0296631,0.987427,-0.305176,-0.427246,19.104,0.062,-0.015,136.76,-0.0785828,-0.130661,0,0,0,0,0,39.48,279.913,1511499
-0.00622559,-0.0943604,0.999329,0.0610352,0.0610352,19.2261,-0.038,0.06,136.48,-0.0778809,-0.1315,0,0,0,0,0,39.48,279.932,1511514
0.052063,-0.116882,1.13116,-0.12207,0.488281,18.0664,-0.093,0.034,136.2,-0.0772705,-0.132278,0,0,0,0,0,39.48,279.953,1511530
0.0114746,-0.0307617,0.963745,0.427246,-0.915527,19.4092,-0.008,0.001,135.64,-0.0760803,-0.133682,0,0,0,0,0,39.48,279.972,1511559
0.0407715,-0.0221558,1.05048,0.549316,-0.976562,17.8223,-0.021,-0.025,135.37,-0.0754852,-0.134384,0,0,0,0,0,39.48,279.994,1511574
-0.0214844,-0.0150146,0.958313,1.89209,0.183105,17.8223,0.025,0.014,134.8,-0.0742493,-0.135727,0,0,0,0,0,39.48,280.013,1511604
0.0200195,-0.0609741,1.12384,1.52588,-0.366211,18.6157,-0.032,0.015,134.53,-0.0736084,-0.135727,0,0,0,0,0,39.48,280.032,1511619
-0.0217285,-0.0822144,1.05511,-0.732422,-1.64795,18.7988,-0.02,0.06,134.24,-0.0730133,-0.135681,0,0,0,0,0,39.48,280.052,1511634
0.110291,0.0427856,1.01208,0.183105,-1.46484,19.5312,-0.022,-0.121,133.66,-0.0719147,-0.135529,0,0,0,0,0,39.49,280.072,1511664
-0.067749,-0.0388184,1.03986,-1.09863,-1.58691,18.8599,0.042,0.064,133.38,-0.0713654,-0.135529,0,0,0,0,0,39.49,280.092,1511679
0.0372314,-0.0680542,0.958557,-1.52588,-0.976562,19.2871,-0.053,0.008,133.09,-0.0708313,-0.135483,0,0,0,0,0,39.49,280.115,1511694
0.00604248,0.156677,0.967102,0.549316,-1.34277,17.7002,0.134,-0.121,132.55,-0.069809,-0.135574,0,0,0,0,0,39.49,280.132,1511724
-0.050293,-0.131531,1.05939,1.46484,0,17.6392,-0.039,0.114,132.28,-0.0692139,-0.135696,0,0,0,0,0,39.49,280.153,1511739
-0.00738525,-0.165039,1.0473,1.95312,0.793457,18.7378,-0.094,0.105,132.01,-0.0687103,-0.135666,0,0,0,0,0,39.49,280.172,1511754
0.00274658,0.146179,0.976135,0.244141,-2.19727,18.0664,0.129,-0.108,131.75,-0.0681763,-0.135635,0,0,0,0,0,39.49,280.193,1511770
0.0350342,-0.00109863,0.972534,-0.793457,-1.46484,18.9819,-0.002,-0.034,131.16,-0.066803,-0.135773,0,0,0,0,0,39.49,280.213,1511799
-0.0360718,0.0588989,0.963684,-0.671387,-2.31934,19.043,0.089,-0.02,130.88,-0.0660553,-0.13591,0,0,0,0,0,39.49,280.233,1511814
0.0696411,0.0656738,0.979065,-0.915527,-2.31934,17.9443,0.027,-0.104,130.31,-0.0643463,-0.13623,0,0,0,0,0,39.49,280.255,1511844
-0.024292,-0.122925,1.00299,-1.58691,-1.09863,18.5547,-0.055,0.088,130.04,-0.0635071,-0.136444,0,0,0,0,0,39.49,280.273,1511859
0.046814,0.0141602,1.03668,1.34277,0.915527,17.8833,0.004,-0.053,129.48,-0.0626984,-0.136581,0,0,0,0,0,39.49,280.298,1511890
-0.0755615,-0.034668,1.02948,0.427246,0.488281,17.1509,0.044,0.071,129.23,-0.0626678,-0.136612,0,0,0,0,0,39.49,280.32,1511904
0.0762939,0.0690308,1.03485,-0.793457,1.09863,18.4937,0.029,-0.112,128.96,-0.0625763,-0.136673,0,0,0,0,0,39.49,280.333,1511919
-0.00970459,-0.0482178,0.999573,-0.488281,0.671387,16.0522,-0.008,0.029,128.71,-0.0624847,-0.136795,0,0,0,0,0,39.49,280.352,1511935
0.00305176,-0.020874,1.06976,-0.671387,-0.366211,17.5781,0.006,0,128.45,-0.0624847,-0.136902,0,0,0,0,0,39.49,280.373,1511950
-0.022522,-0.00769043,1.04364,1.09863,-1.15967,18.7988,0.031,0.012,127.89,-0.0623169,-0.137009,0,0,0,0,0,39.49,280.392,1511980
-0.0339355,-0.0561523,1.06763,-0.305176,-0.854492,18.0054,0,0.051,127.61,-0.0621796,-0.136963,0,0,0,0,0,39.49,280.413,1511995
0.0629883,-0.0531616,1.05304,0.549316,-0.915527,18.6157,-0.056,-0.028,127.03,-0.0622101,-0.13681,0,0,0,0,0,39.49,280.436,1512025
-0.020874,-0.0557251,1.07257,-0.671387,-0.854492,17.2729,-0.007,0.041,126.77,-0.0623016,-0.136734,0,0,0,0,0,39.49,280.453,1512040
0.0495605,-0.0125732,0.965271,-0.488281,-0.915527,19.104,-0.017,-0.04,126.49,-0.0623932,-0.136658,0,0,0,0,0,39.49,280.473,1512055
0.0772095,0.16394,1.01984,0,0,16.8457,0.11,-0.167,125.97,-0.0626373,-0.136627,0,0,0,0,0,39.49,280.493,1512085
-0.0292969,-0.0169067,0.95752,-0.610352,0.183105,17.5781,0.025,0.025,125.71,-0.0626526,-0.136765,0,0,0,0,0,39.49,280.513,1512100
0.0142822,-0.09729,1.05292,-0.610352,0.610352,17.5171,-0.063,0.035,125.45,-0.0626831,-0.136856,0,0,0,0,0,39.49,280.533,1512115
-0.0205688,0.0414429,1.05402,-0.915527,0.244141,16.7236,0.07,-0.016,125.19,-0.0627136,-0.136932,0,0,0,0,0,39.49,280.553,1512130
0.00543213,0.00140381,0.987488,0.976562,-0.0610352,19.3481,0.02,-0.014,124.62,-0.0625458,-0.13707,0,0,0,0,0,39.49,280.575,1512160
-0.0134277,-0.0032959,1.09674,-0.488281,-0.549316,18.0054,0.029,0.002,124.35,-0.0623932,-0.137146,0,0,0,0,0,39.48,280.593,1512175
0.0065918,-0.00299072,0.903809,-0.549316,-0.183105,18.2495,0.014,-0.011,123.79,-0.0619965,-0.137146,0,0,0,0,0,39.48,280.613,1512205
0.0830078,0.273682,0.971008,2.86865,-2.01416,17.1509,0.204,-0.229,123.52,-0.0616455,-0.137299,0,0,0,0,0,39.48,280.633,1512220
0.0496826,-0.078186,1.04065,-0.915527,-1.2207,19.165,-0.069,-0.008,123.25,-0.0611877,-0.137634,0,0,0,0,0,39.48,280.653,1512235
0.0185547,-0.102722,0.985657,-1.28174,0.732422,20.3247,-0.074,0.031,122.94,-0.0608368,-0.137939,0,0,0,0,0,39.48,280.673,1512250
-0.0645752,-0.173523,1.04987,-1.64795,-0.549316,20.9351,-0.087,0.137,122.33,-0.0601349,-0.138657,0,0,0,0,0,39.48,280.693,1512280
0.0228882,-0.0773926,1.00195,0.610352,-0.244141,21.8506,-0.054,0.012,122,-0.0598907,-0.138916,0,0,0,0,0,39.48,280.713,1512295
0.0175781,0.144409,0.898193,-0.366211,-2.31934,20.3857,0.134,-0.098,121.4,-0.0592041,-0.139496,0,0,0,0,0,39.48,280.733,1512325
0.0599976,0.0625,0.930054,0.427246,-2.2583,20.813,0.043,-0.092,121.08,-0.0586548,-0.139954,0,0,0,0,0,39.48,280.753,1512340
0.0778809,0.0688477,1.06842,-1.46484,-2.0752,19.165,0.043,-0.11,120.79,-0.0580597,-0.140549,0,0,0,0,0,39.48,280.773,1512355
0.083374,0.134094,0.964722,0.183105,-0.793457,20.5078,0.096,-0.147,120.18,-0.0566559,-0.141922,0,0,0,0,0,39.48,280.793,1512385
0.0161743,-0.171753,1.10083,-0.793457,-0.0610352,18.6157,-0.131,0.063,119.9,-0.0559387,-0.142715,0,0,0,0,0,39.48,280.815,1512400
-0.100342,-0.0152588,1.04315,-0.427246,0.610352,19.2261,0.06,0.087,119.61,-0.0552673,-0.143387,0,0,0,0,0,39.48,280.833,1512415
0.0766602,0.0142212,1.03979,0.610352,-0.549316,16.3574,-0.001,-0.081,119.06,-0.0537109,-0.144913,0,0,0,0,0,39.48,280.854,1512445
-0.0975952,-0.00408936,0.998657,0.793457,-0.0610352,17.334,0.066,0.08,118.8,-0.0528717,-0.145737,0,0,0,0,0,39.48,280.873,1512460
0.00256348,-0.0393677,1.00928,-0.12207,-0.366211,19.5312,-0.012,0.008,118.52,-0.0519867,-0.146515,0,0,0,0,0,39.48,280.893,1512475
0.0825806,0.0603027,1.00311,-0.12207,-1.2207,17.334,0.036,-0.108,118.24,-0.0511017,-0.147339,0,0,0,0,0,39.48,280.914,1512490
0.0302734,0.0514526,0.967163,0.610352,-2.62451,20.9351,0.054,-0.057,117.66,-0.0491486,-0.149033,0,0,0,0,0,39.48,280.935,1512520
-0.0332642,-0.172119,1.08368,1.58691,-1.09863,18.5547,-0.112,0.101,117.36,-0.0481873,-0.149841,0,0,0,0,0,39.48,280.953,1512535
-0.0396118,-0.14093,1.1214,-0.0610352,-0.976562,19.5923,-0.081,0.092,117.08,-0.0473633,-0.150528,0,0,0,0,0,39.48,280.973,1512550
0.086792,-0.0171509,1.01337,-0.0610352,-1.40381,19.043,-0.031,-0.075,116.5,-0.0457458,-0.151886,0,0,0,0,0,39.48,280.993,1512580
0.0571289,-0.00744629,1.02588,-0.183105,-1.95312,18.7378,-0.008,-0.052,116.22,-0.0449677,-0.15271,0,0,0,0,0,39.48,281.015,1512595
0.0102539,-0.0396729,1.00787,-0.610352,0.305176,17.8223,-0.017,0.004,115.65,-0.0433655,-0.153549,0,0,0,0,0,39.48,281.038,1512625
0.0786133,0.0671387,1.11609,-0.12207,-1.09863,17.334,0.053,-0.103,115.39,-0.0425415,-0.153625,0,0,0,0,0,39.48,281.055,1512640
-0.0633545,-0.0986328,1.00488,-1.28174,1.46484,18.6768,-0.039,0.095,115.11,-0.0417023,-0.153687,0,0,0,0,0,39.48,281.073,1512655
-0.0993042,-0.264282,1.14691,-1.40381,1.89209,18.3105,-0.173,0.197,114.59,-0.040329,-0.15361,0,0,0,0,0,39.51,281.094,1512685
-0.045105,0.104309,0.946106,0.549316,-0.183105,18.2495,0.135,-0.005,114.32,-0.0397491,-0.153381,0,0,0,0,0,39.51,281.113,1512700
0.0927124,0.132751,0.971375,0.488281,-1.2207,17.4561,0.106,-0.142,114.06,-0.0390015,-0.153244,0,0,0,0,0,39.51,281.139,1512715
-0.0770264,-0.0427246,1.01166,-0.671387,-0.183105,19.2871,0.014,0.083,113.52,-0.0381927,-0.152985,0,0,0,0,0,39.51,281.154,1512745
0.0551147,0.0306396,1.02258,-0.244141,-1.70898,17.5171,0.03,-0.066,113.25,-0.0381622,-0.152802,0,0,0,0,0,39.51,281.174,1512760
-0.0438232,-0.0344238,1.11407,1.0376,-0.549316,17.2119,0.011,0.05,113,-0.0381012,-0.152618,0,0,0,0,0,39.51,281.192,1512775
-0.127075,-0.115356,1.02954,1.2207,0.793457,18.8599,-0.033,0.158,112.72,-0.0380707,-0.152298,0,0,0,0,0,39.51,281.212,1512790
0.0463867,-0.0467529,1.0589,0.12207,-0.366211,16.2354,-0.036,-0.027,112.2,-0.0380554,-0.15152,0,0,0,0,0,39.51,281.232,1512820
-0.00866699,-0.166809,1.04846,-1.0376,-0.305176,16.7236,-0.127,0.067,111.95,-0.0381775,-0.151123,0,0,0,0,0,39.51,281.252,1512835
0.0655518,0.0148926,0.974792,-0.244141,0.488281,17.7002,0.011,-0.068,111.69,-0.0383759,-0.150711,0,0,0,0,0,39.51,281.272,1512850
-0.0299072,-0.0463257,1.00342,-1.70898,1.15967,18.7988,-0.009,0.041,111.18,-0.0387115,-0.149979,0,0,0,0,0,39.51,281.293,1512880
0.0302124,0.0438232,0.977783,-0.732422,-0.488281,18.3105,0.052,-0.047,110.89,-0.0388336,-0.149597,0,0,0,0,0,39.51,281.312,1512895
-0.0160522,-0.0247803,1.05255,-0.976562,0.366211,18.0054,0.007,0.02,110.62,-0.0389252,-0.149231,0,0,0,0,0,39.51,281.332,1512911
0.0212402,-0.0679321,1.05609,1.2207,-0.732422,18.6157,-0.046,0,110.06,-0.0390472,-0.148361,0,0,0,0,0,39.51,281.353,1512940
-0.0620117,-0.053772,1.05585,1.09863,-0.610352,17.4561,-0.005,0.073,109.79,-0.0391541,-0.147873,0,0,0,0,0,39.51,281.372,1512955
0.0330811,-0.0490112,0.998657,0.610352,-0.732422,19.7754,-0.034,-0.017,109.23,-0.0395508,-0.146622,0,0,0,0,0,39.51,281.393,1512985
0.0218506,0.00360107,1.00726,-0.12207,-0.854492,16.5405,0.019,-0.024,108.97,-0.0398102,-0.145996,0,0,0,0,0,39.51,281.412,1513000
0.0425415,0.0255127,0.979248,-1.70898,-0.366211,18.9819,0.033,-0.05,108.7,-0.0400238,-0.145432,0,0,0,0,0,39.51,281.433,1513015
0.0465088,-0.000854492,1.02057,-0.671387,0.183105,16.8457,0.009,-0.046,108.14,-0.0404358,-0.14447,0,0,0,0,0,39.51,281.453,1513045
-0.00128174,0.026062,0.967285,-0.0610352,0.610352,18.6157,0.048,-0.009,107.86,-0.0406036,-0.144058,0,0,0,0,0,39.51,281.48,1513060
0.100525,0.0294189,0.995911,-0.671387,-1.28174,19.5312,0.021,-0.108,107.57,-0.0407257,-0.143723,0,0,0,0,0,39.51,281.493,1513075
-0.0201416,-0.0900269,1.03577,-0.732422,-0.549316,17.2729,-0.055,0.042,107.3,-0.040863,-0.143417,0,0,0,0,0,39.51,281.513,1513091
0.0216064,0.0687256,0.899475,-0.244141,-0.915527,20.0195,0.08,-0.043,106.7,-0.0411835,-0.142792,0,0,0,0,0,39.51,281.533,1513120
0.0792236,0.244446,0.929321,-1.70898,-3.2959,18.1885,0.234,-0.148,106.43,-0.0410919,-0.142609,0,0,0,0,0,39.51,281.552,1513135
-0.0263062,0.0580444,0.885986,-0.0610352,-2.38037,19.4702,0.084,0.006,106.13,-0.040802,-0.142532,0,0,0,0,0,39.51,281.573,1513151
0.00354004,-0.0404053,1.07654,-0.732422,-0.427246,17.5781,-0.014,0.004,105.54,-0.040451,-0.142532,0,0,0,0,0,39.51,281.593,1513180
0.0010376,0.010437,0.981323,-0.671387,-1.09863,19.5312,0.033,-0.006,105.26,-0.0404358,-0.142532,0,0,0,0,0,39.5,281.612,1513195
0.0265503,0.00476074,1.05206,-0.976562,-0.549316,17.7002,0.023,-0.029,104.7,-0.040329,-0.142563,0,0,0,0,0,39.5,281.635,1513225
-0.0516968,-0.126038,0.993896,-1.40381,0.976562,18.8599,-0.085,0.079,104.43,-0.0403137,-0.142563,0,0,0,0,0,39.5,281.653,1513240
0.0351562,-0.0057373,1.00311,-0.12207,0.610352,18.3105,0.009,-0.034,104.16,-0.0403442,-0.142517,0,0,0,0,0,39.5,281.674,1513255
-0.0291138,0.0618896,0.99884,-0.488281,0.671387,16.7847,0.091,0.01,103.65,-0.04039,-0.142426,0,0,0,0,0,39.5,281.693,1513285
-0.00128174,-0.0532837,0.964111,0.366211,0.488281,17.8223,-0.027,0.01,103.39,-0.0403595,-0.142426,0,0,0,0,0,39.5,281.713,1513300
-0.0152588,0.0619507,1.08026,0.671387,-0.671387,16.2354,0.09,-0.002,103.13,-0.0402679,-0.142426,0,0,0,0,0,39.5,281.733,1513315
0.0316162,0.0078125,0.968872,1.64795,-1.15967,20.0806,0.023,-0.035,102.58,-0.0400543,-0.142242,0,0,0,0,0,39.5,281.758,1513346
0.00549316,0.0375977,1.07404,0.427246,-1.64795,18.3105,0.06,-0.016,102.3,-0.0398865,-0.142166,0,0,0,0,0,39.5,281.774,1513360
-0.0588989,-0.135437,0.995728,-1.58691,-1.09863,20.6299,-0.096,0.082,102,-0.0397491,-0.142029,0,0,0,0,0,39.5,281.795,1513375
0.0418701,0.0488281,0.91748,-1.15967,-1.2207,20.6909,0.061,-0.053,101.69,-0.0396271,-0.141891,0,0,0,0,0,39.5,281.813,1513391
-0.0380249,-0.100098,1.07959,-1.77002,-0.671387,19.7754,-0.065,0.054,101.09,-0.0394745,-0.141708,0,0,0,0,0,39.5,281.833,1513420
0.0384521,0.00128174,0.934692,-0.793457,0.549316,19.4702,0.016,-0.039,100.8,-0.0394745,-0.141602,0,0,0,0,0,39.5,281.855,1513436
0.0648804,0.187073,1.00873,1.28174,-0.793457,17.7612,0.196,-0.099,100.52,-0.0393372,-0.141586,0,0,0,0,0,39.5,281.873,1513451
-0.0278931,-0.142639,1.026,-1.28174,2.19727,18.9209,-0.111,0.05,99.96,-0.0391083,-0.141495,0,0,0,0,0,39.5,281.894,1513481
0.0632324,-0.0812988,1.07739,-1.2207,0.183105,18.3716,-0.064,-0.051,99.69,-0.0391998,-0.141388,0,0,0,0,0,39.5,281.913,1513496
-0.0267944,-0.0727539,1.05713,-2.19727,0.0610352,17.9443,-0.041,0.036,99.42,-0.0393524,-0.141312,0,0,0,0,0,39.5,281.933,1513511
0.0088501,-0.131531,1.06799,-0.549316,0.427246,16.9678,-0.104,0.008,98.9,-0.0400696,-0.140915,0,0,0,0,0,39.5,281.957,1513541
-0.0759277,-0.0407715,1.03638,0.427246,-0.305176,16.6626,-0.002,0.078,98.65,-0.0405884,-0.140625,0,0,0,0,0,39.5,281.973,1513556
-0.010498,-0.0167847,0.975403,1.15967,-0.244141,18.0664,0.009,0.009,98.4,-0.0410919,-0.140274,0,0,0,0,0,39.5,281.993,1513571
-0.0708618,-0.231995,1.13043,-1.58691,0.427246,17.8833,-0.191,0.099,97.87,-0.0425415,-0.139618,0,0,0,0,0,39.5,282.013,1513601
-0.0483398,-0.0233765,0.985962,-0.366211,-0.183105,19.6533,0.008,0.048,97.59,-0.0435028,-0.139175,0,0,0,0,0,39.5,282.033,1513616
0.00305176,-0.0872192,1.02631,-0.427246,0.0610352,17.7612,-0.059,0.005,97.32,-0.0445099,-0.138702,0,0,0,0,0,39.5,282.053,1513631
0.0163574,-0.00177002,0.978943,-1.64795,-0.854492,18.1274,0.022,-0.018,96.78,-0.0466003,-0.137802,0,0,0,0,0,39.5,282.073,1513661
0.00445557,0.00628662,0.962952,-0.12207,-0.854492,15.9302,0.031,-0.006,96.3,-0.0485382,-0.137054,0,0,0,0,0,39.5,282.102,1513691
0.0144043,0.0493164,0.974365,-0.671387,-0.0610352,18.8599,0.074,-0.021,96.01,-0.0494232,-0.136703,0,0,0,0,0,39.51,282.113,1513706
0.0111084,0.00604248,0.983826,-1.46484,0.488281,16.1743,0.031,-0.014,95.75,-0.0502319,-0.136383,0,0,0,0,0,39.51,282.133,1513721
-0.0224609,0.0956421,0.977722,-1.52588,-0.549316,18.7378,0.125,0.01,95.22,-0.0517578,-0.135803,0,0,0,0,0,39.51,282.159,1513751
-0.0224609,0.0956421,0.977722,-1.52588,-0.549316,18.7378,0.125,0.01,95.22,-0.0517578,-0.135803,0,0,0,0,0,39.51,282.174,1513751
-0.055542,0.000427246,1.02911,-0.793457,-0.12207,17.0898,0.034,0.052,94.7,-0.0530853,-0.135132,0,0,0,0,0,39.51,282.2,1513781
-0.0339966,-0.0822144,0.989136,-1.2207,-0.488281,17.6392,-0.05,0.037,94.45,-0.0537567,-0.134705,0,0,0,0,0,39.51,282.215,1513796
-0.00909424,-0.00488281,1.02417,-2.0752,-1.58691,16.1133,0.026,0.006,93.93,-0.0550385,-0.133804,0,0,0,0,0,39.51,282.236,1513826
0.0151978,-0.0620117,0.957092,-3.11279,-0.732422,18.0664,-0.034,-0.013,93.66,-0.0556488,-0.133804,0,0,0,0,0,39.51,282.254,1513841
0.00775146,-0.0275269,0.966553,-0.793457,-0.671387,16.8457,0.001,-0.008,93.4,-0.0562897,-0.133804,0,0,0,0,0,39.51,282.274,1513856
-0.0580444,-0.0604248,0.986328,1.46484,0.244141,16.5405,-0.027,0.058,92.89,-0.0574493,-0.133759,0,0,0,0,0,39.51,282.294,1513886
0.00787354,-0.163208,1.18494,0.732422,1.95312,18.3716,-0.127,-0.003,92.62,-0.0581055,-0.133682,0,0,0,0,0,39.51,282.313,1513901
0.00970459,-0.11676,1.10815,-1.28174,1.09863,16.9678,-0.083,-0.007,92.36,-0.0589142,-0.133621,0,0,0,0,0,39.51,282.335,1513916
-0.0192261,-0.0856323,0.974182,0.0610352,-0.427246,18.6768,-0.055,0.019,92.1,-0.0598145,-0.133621,0,0,0,0,0,39.51,282.354,1513931
0.0112305,0.0396729,1.01556,-2.13623,-0.610352,19.104,0.07,-0.014,91.54,-0.0616913,-0.133682,0,0,0,0,0,39.51,282.373,1513961
-0.0217285,0.0526123,0.992493,-2.38037,-0.976562,20.4468,0.083,0.018,91.24,-0.0625,-0.133713,0,0,0,0,0,39.51,282.393,1513976
0.0108032,-0.0131226,1.01495,-2.44141,-0.915527,20.4468,0.018,-0.013,90.93,-0.0632324,-0.133713,0,0,0,0,0,39.51,282.412,1513991
