raw_accel_x,raw_accel_y,raw_accel_z,raw_gyro_x,raw_gyro_y,raw_gyro_z,world_accel_x,world_accel_y,yaw,fused_heading,x,y,z,left_encoder_rate,right_encoder_rate,left_motor,right_motor,temp,fpga time,navx time
-0.0117188,0.0067749,1.009030,-0.0610352,-0.0610352,-0.001,0,-5.96,-0.0277405,-0.134109,0,0,0,0,0,41.54,79.0452,3069617
-0.0117188,0.0067749,1.009030,-0.0610352,-0.0610352,-0.001,0,-5.96,-0.0277405,-0.134109,0,0,0,0,0,41.54,79.0601,3069617
-0.0135498,0.00598145,1.013730.0610352,0.0610352,-0.12207,-0.003,-0.001,0,0,0,0,0,0,0,0,41.54,79.0783,3069647
-0.0090332,0.00604248,1.013120,0,0.12207,0.001,-0.001,0,0,0,0,0,0,0,0,41.54,79.0979,3069662
-0.00872803,0.0101318,1.015140,0.0610352,0,0.001,0.003,0,0,0,0,0,0,0,0,41.54,79.1179,3069677
-0.0120239,0.00561523,1.008420,0.12207,-0.0610352,-0.001,-0.001,0,0,0,0,0,0,0,0,41.58,79.1382,3069708
-0.00866699,0.00799561,1.00928-0.0610352,-0.0610352,-0.0610352,0.001,0,0,0,0,0,0,0,0,0,41.58,79.1601,3069723
-0.0117188,0.00518799,1.017030,0,0,-0.001,-0.002,0,0,0,0,0,0,0,0,41.58,79.1797,3069738
-0.00769043,0.00860596,1.01562-0.0610352,-0.183105,-0.0610352,0.002,0.001,0,0,0,0,0,0,0,0,41.58,79.1983,3069768
-0.00897217,0.00585938,1.01434-0.12207,-0.183105,-0.12207,0.001,-0.001,0,0,0,0,0,0,0,0,41.58,79.2179,3069783
-0.0134888,0.00952148,1.00989-0.0610352,-0.12207,-0.0610352,-0.003,0.002,0,0,0,0,0,0,0,0,41.58,79.2389,3069798
-0.0111084,0.00653076,1.01190,0.0610352,0.0610352,0,0,0,0,0,0,0,0,0,0,41.58,79.2588,3069828
-0.012207,0.00390625,1.01562-0.0610352,-0.0610352,-0.0610352,-0.001,-0.003,0,0,0,0,0,0,0,0,41.58,79.2782,3069843
-0.0110474,0.00775146,1.01367-0.12207,-0.0610352,0.0610352,0,0,0,0,0,0,0,0,0,0,41.58,79.3021,3069873
-0.0131226,0.00579834,1.01428-0.0610352,-0.0610352,0,-0.002,-0.001,0,0,0,0,0,0,0,0,41.58,79.3181,3069888
-0.0114746,0.00463867,1.01917-0.12207,-0.0610352,0,0,-0.002,0,0,0,0,0,0,0,0,41.58,79.3391,3069903
-0.0111694,0.00915527,1.00891-0.0610352,-0.0610352,-0.12207,0,0.002,0,0,0,0,0,0,0,0,41.58,79.3593,3069918
-0.0106812,0.00537109,1.01648-0.0610352,-0.0610352,0.0610352,0,-0.001,0,0,0,0,0,0,0,0,41.58,79.3788,3069948
-0.0116577,0.00738525,1.010250,0.0610352,-0.0610352,-0.001,0,0,0,0,0,0,0,0,0,41.58,79.3993,3069963
-0.00915527,0.00653076,1.01385-0.0610352,-0.0610352,0,0.001,0,0,0,0,0,0,0,0,0,41.58,79.4184,3069978
-0.00921631,0.00488281,1.0152-0.12207,-0.12207,0,0.001,-0.002,0,0,0,0,0,0,0,0,41.58,79.4383,3070008
-0.00842285,0.00683594,1.00885-0.12207,0,-0.12207,0.002,0,0,0,0,0,0,0,0,0,41.58,79.4581,3070023
-0.00927734,0.0101929,1.014590,0.0610352,-0.0610352,0.001,0.003,0,0,0,0,0,0,0,0,41.58,79.4783,3070038
-0.0108032,0.0105591,1.01465-0.0610352,0.0610352,0,0,0.003,0,0,0,0,0,0,0,0,41.58,79.5059,3070068
-0.0105591,0.00750732,1.01221-0.0610352,0.0610352,0,0,0,0,0,0,0,0,0,0,0,41.58,79.518,3070083
-0.0112915,0.00598145,1.01575-0.0610352,0,-0.183105,0,-0.001,0,0,0,0,0,0,0,0,41.58,79.539,3070098
-0.012085,0.00811768,1.01392-0.0610352,-0.12207,0,-0.001,0.001,0,0,0,0,0,0,0,0,41.58,79.559,3070128
-0.010437,0.00482178,1.01294-0.0610352,-0.0610352,-0.0610352,0,-0.002,0,0,0,0,0,0,0,0,41.58,79.5793,3070143
-0.00842285,0.00842285,1.01361-0.244141,-0.0610352,-0.0610352,0.002,0.001,0,0,0,0,0,0,0,0,41.58,79.6078,3070173
-0.0111084,0.00341797,1.0141-0.0610352,-0.0610352,-0.0610352,0,-0.003,0,0,0,0,0,0,0,0,41.58,79.6182,3070188
-0.0101929,0.00628662,1.01801-0.0610352,0,0.0610352,0,0,0,0,0,0,0,0,0,0,41.58,79.6397,3070203
-0.00878906,0.0055542,1.01703-0.0610352,-0.0610352,-0.12207,0.002,-0.001,0,0,0,0,0,0,0,0,41.59,79.6593,3070218
-0.0119629,0.00598145,1.021-0.0610352,-0.0610352,0.0610352,-0.001,0,0,0,0,0,0,0,0,0,41.59,79.6791,3070248
-0.0101318,0.00567627,1.01147-0.0610352,-0.0610352,0.0610352,0,-0.001,0,0,0,0,0,0,0,0,41.59,79.7063,3070263
-0.0110474,0.0078125,1.00836-0.0610352,-0.0610352,-0.0610352,0,0,0,0,0,0,0,0,0,0,41.59,79.72,3070278
-0.010376,0.00708008,1.01221-0.183105,-0.0610352,0,0,0,0,0,0,0,0,0,0,0,41.59,79.7408,3070308
-0.0117188,0.00598145,1.01105-0.0610352,-0.244141,0.0610352,0,0,0,0,0,0,0,0,0,0,41.59,79.7591,3070323
-0.0123901,0.00787354,1.01471-0.12207,-0.12207,-0.0610352,-0.001,0.001,0,0,0,0,0,0,0,0,41.59,79.7788,3070338
-0.0098877,0.00762939,1.012630,-0.0610352,0.12207,0,0,0,0,0,0,0,0,0,0,41.59,79.7994,3070368
-0.0119629,0.00726318,1.0083-0.0610352,-0.12207,0,-0.001,0,0,0,0,0,0,0,0,0,41.59,79.8239,3070383
-0.00964355,0.00708008,1.009770,-0.0610352,-0.0610352,0,0,0,0,0,0,0,0,0,0,41.59,79.839,3070398
-0.0123291,0.00878906,1.01239-0.0610352,-0.12207,-0.0610352,-0.001,0.001,0,0,0,0,0,0,0,0,41.59,79.8589,3070428
-0.0101929,0.00762939,1.007450,0,-0.0610352,0,0,0,0,0,0,0,0,0,0,41.59,79.8791,3070443
-0.0118408,0.00488281,1.01099-0.12207,-0.183105,-0.12207,-0.001,-0.001,0,0,0,0,0,0,0,0,41.59,79.8983,3070458
-0.00854492,0.0090332,1.01294-0.0610352,0,0,0.002,0.002,0,0,0,0,0,0,0,0,41.59,79.9187,3070488
-0.012207,0.00549316,1.01428-0.0610352,-0.12207,0,-0.001,-0.001,0,0,0,0,0,0,0,0,41.59,79.9391,3070503
-0.00836182,0.00744629,1.01147-0.0610352,-0.12207,0.0610352,0.002,0,0,0,0,0,0,0,0,0,41.59,79.9587,3070518
-0.00915527,0.00689697,1.01056-0.183105,-0.12207,-0.12207,0.001,0,0,0,0,0,0,0,0,0,41.59,79.9792,3070548
-0.00793457,0.00915527,1.00769-0.183105,-0.0610352,0,0.002,0.002,0,0,0,0,0,0,0,0,41.59,79.9986,3070563
-0.0123901,0.00823975,1.01257-0.12207,-0.12207,0.0610352,-0.001,0.001,0,0,0,0,0,0,0,0,41.59,80.0179,3070578
-0.0109253,0.00653076,1.00879-0.244141,-0.0610352,0,0,0,0,0,0,0,0,0,0,0,41.59,80.0385,3070608
-0.0126343,0.00738525,1.01801-0.0610352,-0.183105,-0.12207,-0.001,0,0,0,0,0,0,0,0,0,41.59,80.0593,3070623
-0.0107422,0.00305176,1.01239-0.183105,-0.0610352,0.0610352,0,-0.003,0,0,0,0,0,0,0,0,41.59,80.0779,3070638
-0.0106812,0.00494385,1.01575-0.12207,-0.0610352,-0.0610352,0,-0.001,0,0,0,0,0,0,0,0,41.59,80.0979,3070668
-0.010498,0.00567627,1.01965-0.0610352,-0.0610352,0,0,-0.001,0,0,0,0,0,0,0,0,41.59,80.1223,3070683
-0.012085,0.00549316,1.006590.12207,0,-0.0610352,-0.001,-0.001,0,0,0,0,0,0,0,0,41.59,80.138,3070698
-0.0117188,0.00634766,1.019650.0610352,0,-0.0610352,-0.001,0,0,0,0,0,0,0,0,0,41.6,80.1581,3070728
-0.0116577,0.00750732,1.01056-0.0610352,-0.183105,0,-0.001,0,0,0,0,0,0,0,0,0,41.6,80.1777,3070743
-0.0114746,0.00543213,1.009030.12207,0.0610352,-0.12207,0,-0.001,0,0,0,0,0,0,0,0,41.6,80.1977,3070758
-0.0130005,0.00701904,1.01465-0.0610352,-0.12207,0.0610352,-0.002,0,0,0,0,0,0,0,0,0,41.6,80.218,3070788
-0.00683594,0.0114136,1.01459-0.0610352,-0.12207,0,0.003,0.004,0,0,0,0,0,0,0,0,41.6,80.2384,3070803
-0.00842285,0.0100098,1.01501-0.183105,-0.305176,0.0610352,0.002,0.003,0,0,0,0,0,0,0,0,41.6,80.2652,3070834
-0.0135498,0.00769043,1.01221-0.12207,-0.12207,-0.0610352,-0.003,0.001,0,0,0,0,0,0,0,0,41.6,80.2786,3070848
-0.0131836,0.00500488,1.01208-0.12207,-0.0610352,-0.0610352,-0.002,-0.001,0,0,0,0,0,0,0,0,41.6,80.2986,3070863
-0.0130615,0.00500488,1.01495-0.12207,-0.12207,-0.0610352,-0.002,-0.001,0,0,0,0,0,0,0,0,41.6,80.3208,3070878
-0.00878906,0.00537109,1.013060,0,-0.0610352,0.001,-0.001,0,0,0,0,0,0,0,0,41.6,80.3383,3070908
-0.0113525,0.00469971,1.01294-0.0610352,-0.0610352,0.0610352,0,-0.001,0,0,0,0,0,0,0,0,41.6,80.3591,3070923
-0.00872803,0.00592041,1.0152-0.0610352,-0.183105,0,0.001,0,0,0,0,0,0,0,0,0,41.6,80.3802,3070938
-0.00921631,0.00592041,1.011660.0610352,-0.0610352,-0.0610352,0.001,0,0,0,0,0,0,0,0,0,41.6,80.3984,3070968
-0.0125732,0.00567627,1.01599-0.0610352,-0.12207,0.0610352,-0.002,-0.001,0,0,0,0,0,0,0,0,41.6,80.4188,3070983
-0.0117188,0.0057373,1.00970,-0.0610352,-0.12207,-0.001,0,0,0,0,0,0,0,0,0,41.6,80.4395,3070998
-0.0101929,0.00708008,1.01611-0.0610352,-0.12207,-0.0610352,0,0,0,0,0,0,0,0,0,0,41.6,80.4593,3071028
-0.00921631,0.0109863,1.01062-0.183105,-0.12207,0,0.001,0.004,0,0,0,0,0,0,0,0,41.6,80.4788,3071044
-0.0115967,0.00994873,1.014220.12207,0,0,-0.001,0.003,0,0,0,0,0,0,0,0,41.6,80.499,3071059
-0.0108643,0.00878906,1.01721-0.12207,-0.12207,-0.0610352,0,0.001,0,0,0,0,0,0,0,0,41.6,80.5184,3071089
-0.0115356,0.00750732,1.0155-0.183105,-0.0610352,-0.0610352,0,0,0,0,0,0,0,0,0,0,41.6,80.5394,3071104
-0.0115967,0.00714111,1.01373-0.0610352,0,-0.0610352,-0.001,0,0,0,0,0,0,0,0,0,41.6,80.5581,3071119
-0.00964355,0.00567627,1.01105-0.244141,-0.12207,-0.0610352,0,-0.001,0,0,0,0,0,0,0,0,41.6,80.5781,3071149
-0.0113525,0.00744629,1.0163-0.12207,-0.12207,-0.0610352,0,0,0,0,0,0,0,0,0,0,41.6,80.5983,3071164
-0.00921631,0.00604248,1.0119-0.244141,-0.0610352,-0.12207,0.001,0,0,0,0,0,0,0,0,0,41.6,80.6183,3071179
-0.00854492,0.00488281,1.011840,0,0,0.001,-0.001,0,0,0,0,0,0,0,0,41.6,80.6412,3071209
-0.00927734,0.00201416,1.01788-0.0610352,-0.0610352,-0.12207,0.001,-0.004,0,0,0,0,0,0,0,0,41.6,80.6596,3071224
-0.0134277,0.00457764,1.01276-0.183105,-0.244141,-0.0610352,-0.002,-0.002,0,0,0,0,0,0,0,0,41.58,80.6791,3071239
-0.0116577,0.00646973,1.01068-0.0610352,-0.0610352,0.0610352,-0.001,0,0,0,0,0,0,0,0,0,41.58,80.6982,3071269
-0.010376,0.00775146,1.01190,-0.12207,-0.0610352,0,0.001,0,0,0,0,0,0,0,0,41.58,80.718,3071284
-0.012085,0.00726318,1.017030,-0.183105,-0.0610352,-0.001,0,0,0,0,0,0,0,0,0,41.58,80.7386,3071299
-0.0119629,0.00836182,1.01434-0.0610352,-0.12207,0.0610352,-0.001,0.001,0,0,0,0,0,0,0,0,41.58,80.7585,3071329
-0.0106812,0.00726318,1.016540,0,0,0,0,0,0,0,0,0,0,0,0,41.58,80.7789,3071344
-0.0112915,0.00793457,1.007750,-0.183105,0,0,0.001,0,0,0,0,0,0,0,0,41.58,80.7985,3071359
-0.0106201,0.00598145,1.01501-0.183105,-0.12207,0.0610352,0,0,0,0,0,0,0,0,0,0,41.58,80.8189,3071389
-0.0103149,0.0057373,1.012450,0.183105,-0.0610352,0,-0.001,0,0,0,0,0,0,0,0,41.58,80.8415,3071404
-0.00891113,0.00390625,1.01025-0.0610352,0.0610352,-0.12207,0.001,-0.002,0,0,0,0,0,0,0,0,41.58,80.8584,3071419
-0.0123901,0.00512695,1.017090,0,-0.0610352,-0.001,-0.001,0,0,0,0,0,0,0,0,41.58,80.8788,3071449
-0.0101929,0.00775146,1.014530.0610352,0,-0.0610352,0,0,0,0,0,0,0,0,0,0,41.58,80.9,3071464
-0.0127563,0.00372314,1.009280.183105,0,-0.12207,-0.002,-0.003,0,0,0,0,0,0,0,0,41.58,80.9184,3071479
-0.00946045,0.00604248,1.01685-0.0610352,-0.12207,-0.0610352,0.001,0,0,0,0,0,0,0,0,0,41.58,80.9394,3071509
-0.0110474,0.00897217,1.013-0.183105,-0.244141,0,0,0.002,0,0,0,0,0,0,0,0,41.58,80.9588,3071524
-0.00946045,0.00964355,1.01611-0.0610352,-0.0610352,0,0.001,0.002,0,0,0,0,0,0,0,0,41.58,80.9791,3071539
-0.00836182,0.00872803,1.01544-0.0610352,-0.12207,-0.0610352,0.002,0.001,0,0,0,0,0,0,0,0,41.58,80.9988,3071569
-0.00927734,0.0108032,1.01129-0.0610352,-0.12207,0,0.001,0.004,0,0,0,0,0,0,0,0,41.58,81.0185,3071584
-0.0101929,0.0065918,1.01093-0.244141,-0.0610352,0,0,0,0,0,0,0,0,0,0,0,41.58,81.0388,3071599
-0.0109863,0.00427246,1.01276-0.244141,-0.12207,-0.0610352,0,-0.002,0,0,0,0,0,0,0,0,41.58,81.0598,3071629
-0.00769043,0.00665283,1.020570,0,-0.0610352,0.002,0,0,0,0,0,0,0,0,0,41.58,81.0797,3071644
-0.0107422,0.00476074,1.01318-0.0610352,-0.183105,-0.0610352,0,-0.001,0,0,0,0,0,0,0,0,41.58,81.0985,3071659
-0.00994873,0.00817871,1.01282-0.12207,0,0,0,0.001,0,0,0,0,0,0,0,0,41.58,81.1186,3071689
-0.00775146,0.00830078,1.01428-0.0610352,-0.12207,0.0610352,0.002,0.001,0,0,0,0,0,0,0,0,41.58,81.1398,3071704
-0.00964355,0.00427246,1.01666-0.244141,-0.0610352,0.0610352,0,-0.002,0,0,0,0,0,0,0,0,41.58,81.1585,3071719
-0.00921631,0.00610352,1.01941-0.0610352,-0.183105,0.0610352,0.001,0,0,0,0,0,0,0,0,0,41.61,81.1787,3071749
-0.0101929,0.00701904,1.01752-0.183105,-0.183105,0,0,0,0,0,0,0,0,0,0,0,41.61,81.1988,3071764
-0.0118408,0.00665283,1.00720,0,-0.0610352,-0.001,0,0,0,0,0,0,0,0,0,41.61,81.2179,3071779
-0.0125122,0.00494385,1.018920,0.0610352,0.0610352,-0.002,-0.001,0,0,0,0,0,0,0,0,41.61,81.238,3071809
-0.0115967,0.00946045,1.015320.0610352,-0.0610352,0,-0.001,0.002,0,0,0,0,0,0,0,0,41.61,81.2576,3071824
-0.0109253,0.00634766,1.010860.183105,0,0,0,0,0,0,0,0,0,0,0,0,41.61,81.278,3071839
-0.0114136,0.00567627,1.01630,0.0610352,-0.12207,0,-0.001,0,0,0,0,0,0,0,0,41.61,81.2984,3071869
-0.012207,0.00811768,1.00793-0.0610352,-0.0610352,-0.12207,-0.001,0.001,0,0,0,0,0,0,0,0,41.61,81.3179,3071884
-0.0101318,0.00836182,1.012940,0,0,0,0.001,0,0,0,0,0,0,0,0,41.61,81.338,3071900
-0.0103149,0.00634766,1.0119-0.12207,-0.12207,-0.0610352,0,0,0,0,0,0,0,0,0,0,41.61,81.36,3071929
-0.00976562,0.0078125,1.016970,0,0.12207,0,0,0,0,0,0,0,0,0,0,41.61,81.3778,3071944
-0.0128174,0.0090332,1.01752-0.0610352,-0.183105,0,-0.002,0.002,0,0,0,0,0,0,0,0,41.61,81.3984,3071959
-0.0116577,0.0067749,1.0072-0.183105,-0.0610352,-0.183105,-0.001,0,0,0,0,0,0,0,0,0,41.61,81.4181,3071989
-0.00933838,0.00518799,1.01196-0.12207,-0.12207,0.0610352,0.001,-0.001,0,0,0,0,0,0,0,0,41.61,81.4387,3072004
-0.0130615,0.00604248,1.00989-0.183105,-0.0610352,-0.0610352,-0.002,0,0,0,0,0,0,0,0,0,41.61,81.4643,3072035
-0.010498,0.00628662,1.012880.0610352,0,0,0,0,0,0,0,0,0,0,0,0,41.61,81.4792,3072049
-0.00970459,0.00708008,1.014950,-0.0610352,0,0,0,0,0,0,0,0,0,0,0,41.61,81.4982,3072064
-0.00939941,0.00439453,1.013730,-0.0610352,-0.12207,0.001,-0.002,0,0,0,0,0,0,0,0,41.61,81.5182,3072079
-0.0117188,0.0110474,1.016660.0610352,-0.12207,-0.0610352,-0.001,0.004,0,0,0,0,0,0,0,0,41.61,81.5399,3072109
-0.0109253,0.00543213,1.011840.0610352,-0.0610352,0,0,-0.001,0,0,0,0,0,0,0,0,41.61,81.5582,3072124
-0.0107422,0.00671387,1.017090,0,-0.12207,0,0,0,0,0,0,0,0,0,0,41.61,81.5778,3072139
-0.0100708,0.00775146,1.015690,-0.0610352,-0.0610352,0,0,0,0,0,0,0,0,0,0,41.61,81.598,3072169
-0.012207,0.00982666,1.01398-0.0610352,-0.12207,-0.0610352,-0.001,0.002,0,0,0,0,0,0,0,0,41.61,81.6203,3072184
-0.0105591,0.00811768,1.01251-0.183105,-0.12207,0,0,0.001,0,0,0,0,0,0,0,0,41.61,81.6386,3072199
-0.0106812,0.00738525,1.012820,-0.0610352,0.0610352,0,0,0,0,0,0,0,0,0,0,41.61,81.658,3072215
-0.0120239,0.00537109,1.008-0.0610352,-0.183105,0,-0.001,-0.001,-0.01,0,0,0,0,0,0,0,41.61,81.6781,3072244
-0.00976562,0.00726318,1.017520.0610352,0,0.0610352,0,0,-0.01,0,0,0,0,0,0,0,41.6,81.6986,3072259
-0.00817871,0.00671387,1.0127-0.0610352,-0.0610352,-0.0610352,0.002,0,-0.01,0,0,0,0,0,0,0,41.6,81.7185,3072289
-0.00848389,0.0067749,1.01282-0.12207,-0.0610352,-0.0610352,0.002,0,-0.01,0,0,0,0,0,0,0,41.6,81.7396,3072304
-0.0111694,0.00408936,1.01508-0.0610352,-0.0610352,-0.183105,0,-0.002,-0.01,0,0,0,0,0,0,0,41.6,81.7581,3072319
-0.0117798,0.00628662,1.00970.0610352,-0.12207,-0.0610352,-0.001,0,-0.01,0,0,0,0,0,0,0,41.6,81.7782,3072349
-0.0114136,0.00848389,1.01367-0.0610352,-0.0610352,-0.0610352,0,0.001,-0.01,0,0,0,0,0,0,0,41.6,81.7983,3072364
-0.00964355,0.00610352,1.012020,0,0.0610352,0,0,-0.01,0,0,0,0,0,0,0,41.6,81.8192,3072379
-0.00946045,0.00762939,1.015560,0,-0.183105,0.001,0,-0.01,0,0,0,0,0,0,0,41.6,81.8387,3072410
-0.0115356,0.00628662,1.009830.12207,0,0.0610352,-0.001,0,-0.01,0,0,0,0,0,0,0,41.6,81.8612,3072425
-0.0147095,0.00671387,1.015750.12207,0.0610352,-0.12207,-0.004,0,-0.01,0,0,0,0,0,0,0,41.6,81.8785,3072440
-0.0103149,0.00738525,1.01416-0.0610352,-0.0610352,-0.0610352,0,0,-0.01,0,0,0,0,0,0,0,41.6,81.8993,3072470
-0.0108032,0.00628662,1.0144-0.0610352,-0.0610352,-0.0610352,0,0,-0.01,0,0,0,0,0,0,0,41.6,81.9183,3072485
-0.00653076,0.00909424,1.01672-0.0610352,-0.0610352,0,0.004,0.002,-0.01,0,0,0,0,0,0,0,41.6,81.9393,3072500
-0.0128174,0.00793457,1.011960,-0.12207,0,-0.002,0.001,-0.01,0,0,0,0,0,0,0,41.6,81.959,3072530
-0.0101318,0.00665283,1.01416-0.0610352,-0.12207,-0.0610352,0,0,-0.01,0,0,0,0,0,0,0,41.6,81.9783,3072545
-0.00994873,0.00805664,1.009520,-0.12207,0.0610352,0,0.001,-0.01,0,0,0,0,0,0,0,41.6,81.9984,3072560
-0.0113525,0.00610352,1.02063-0.0610352,-0.12207,-0.0610352,0,0,-0.01,0,0,0,0,0,0,0,41.6,82.0182,3072590
-0.0135498,0.00628662,1.00977-0.0610352,-0.12207,-0.12207,-0.003,0,-0.01,0,0,0,0,0,0,0,41.6,82.0391,3072605
-0.00695801,0.0065918,1.017940,-0.0610352,-0.12207,0.003,0,-0.01,0,0,0,0,0,0,0,41.6,82.0618,3072620
-0.0122681,0.00592041,1.0155-0.0610352,-0.0610352,-0.0610352,-0.001,0,-0.01,0,0,0,0,0,0,0,41.6,82.0786,3072650
-0.0111694,0.00927734,1.012390,0,0,0,0.002,0,0,0,0,0,0,0,0,41.6,82.0984,3072665
-0.010437,0.00848389,1.01752-0.0610352,-0.0610352,-0.0610352,0,0.001,0,0,0,0,0,0,0,0,41.6,82.1186,3072680
-0.0113525,0.00561523,1.01355-0.0610352,-0.244141,0,0,-0.001,0,0,0,0,0,0,0,0,41.6,82.1397,3072710
-0.0101318,0.00708008,1.01282-0.0610352,-0.183105,-0.0610352,0,0,0,0,0,0,0,0,0,0,41.6,82.1583,3072725
-0.00946045,0.00671387,1.01593-0.0610352,-0.12207,0.0610352,0.001,0,-0.01,0,0,0,0,0,0,0,41.6,82.1785,3072740
-0.0101318,0.00671387,1.01367-0.0610352,-0.12207,0,0,0,-0.01,0,0,0,0,0,0,0,41.6,82.1986,3072755
-0.00738525,0.00213623,1.017820,0,0.0610352,0.003,-0.004,-0.01,0,0,0,0,0,0,0,41.62,82.2185,3072785
-0.00842285,0.00793457,1.016850.12207,0,-0.0610352,0.002,0.001,-0.01,0,0,0,0,0,0,0,41.62,82.2393,3072800
-0.010498,0.00756836,1.01147-0.0610352,-0.0610352,0,0,0,0,0,0,0,0,0,0,0,41.62,82.2657,3072830
-0.0123291,0.00634766,1.01465-0.0610352,-0.12207,-0.0610352,-0.001,0,0,0,0,0,0,0,0,0,41.62,82.2804,3072845
-0.010498,0.00708008,1.011290,-0.0610352,-0.0610352,0,0,0,0,0,0,0,0,0,0,41.62,82.299,3072860
-0.0123901,0.00860596,1.013670.0610352,0.0610352,0,-0.001,0.001,0,0,0,0,0,0,0,0,41.62,82.3189,3072890
-0.0116577,0.00622559,1.0152-0.0610352,-0.0610352,0.0610352,-0.001,0,0,0,0,0,0,0,0,0,41.62,82.3394,3072905
-0.00915527,0.0114136,1.01294-0.0610352,-0.0610352,0,0.001,0.004,0,0,0,0,0,0,0,0,41.62,82.3589,3072920
-0.00866699,0.00567627,1.016170,0,0,0.001,-0.001,0,0,0,0,0,0,0,0,41.62,82.3855,3072950
-0.00976562,0.0108032,1.01086-0.0610352,-0.12207,0.0610352,0,0.003,-0.01,0,0,0,0,0,0,0,41.62,82.3984,3072965
-0.0107422,0.00598145,1.01208-0.0610352,-0.0610352,0.183105,0,0,-0.01,0,0,0,0,0,0,0,41.62,82.4174,3072980
-0.00604248,0.00476074,1.01752-0.0610352,-0.183105,-0.0610352,0.004,-0.002,-0.01,0,0,0,0,0,0,0,41.62,82.4397,3073010
-0.0112305,0.00769043,1.013730.0610352,0.183105,0,0,0,-0.01,0,0,0,0,0,0,0,41.62,82.4594,3073025
-0.0100708,0.00732422,1.014040,0,-0.0610352,0,0,-0.01,0,0,0,0,0,0,0,41.62,82.4778,3073040
-0.0102539,0.00616455,1.01245-0.0610352,-0.12207,0,0,0,-0.01,0,0,0,0,0,0,0,41.62,82.4979,3073070
-0.0115356,0.00488281,1.013730.0610352,-0.0610352,-0.12207,0,-0.002,-0.01,0,0,0,0,0,0,0,41.62,82.5177,3073085
-0.0137939,0.00463867,1.01440.0610352,0,-0.0610352,-0.003,-0.002,-0.01,0,0,0,0,0,0,0,41.62,82.5385,3073100
-0.0158691,0.00512695,1.017330.0610352,0,0,-0.005,-0.001,-0.01,0,0,0,0,0,0,0,41.62,82.5579,3073130
-0.0117798,0.00860596,1.01569-0.0610352,-0.12207,0,-0.001,0.001,-0.01,0,0,0,0,0,0,0,41.62,82.5777,3073145
-0.0100708,0.00518799,1.01886-0.0610352,-0.0610352,-0.0610352,0,-0.001,-0.01,0,0,0,0,0,0,0,41.62,82.5979,3073160
-0.0112915,0.00933838,1.00842-0.0610352,-0.0610352,0.0610352,0,0.002,-0.01,0,0,0,0,0,0,0,41.62,82.6181,3073190
-0.0101929,0.00488281,1.013980.0610352,0.0610352,-0.12207,0,-0.002,-0.01,0,0,0,0,0,0,0,41.62,82.6409,3073205
-0.0125732,0.00415039,1.011960,0,-0.12207,-0.002,-0.002,-0.01,0,0,0,0,0,0,0,41.62,82.658,3073220
-0.0106201,0.00817871,1.0080,0,-0.0610352,0,0.001,-0.01,0,0,0,0,0,0,0,41.62,82.6777,3073236
-0.0140381,0.00531006,1.01605-0.0610352,-0.0610352,0.0610352,-0.003,-0.001,-0.01,0,0,0,0,0,0,0,41.62,82.6982,3073265
-0.00915527,0.0078125,1.013490,-0.0610352,0.12207,0.001,0,-0.01,0,0,0,0,0,0,0,41.61,82.7183,3073280
-0.0108032,0.00732422,1.00867-0.0610352,-0.0610352,0,0,0,-0.01,0,0,0,0,0,0,0,41.61,82.7395,3073310
-0.0131836,0.00982666,1.013670.0610352,0,-0.0610352,-0.002,0.002,-0.01,0,0,0,0,0,0,0,41.61,82.7583,3073325
-0.0115356,0.00860596,1.01208-0.183105,-0.12207,0.0610352,-0.001,0.001,-0.01,0,0,0,0,0,0,0,41.61,82.7782,3073340
-0.00927734,0.0090332,1.00958-0.0610352,-0.0610352,-0.183105,0.001,0.002,-0.01,0,0,0,0,0,0,0,41.61,82.7984,3073356
-0.00762939,0.00476074,1.01178-0.12207,-0.0610352,-0.12207,0.002,-0.002,-0.01,0,0,0,0,0,0,0,41.61,82.8182,3073385
-0.00860596,0.00640869,1.013670,0,0,0.002,0,-0.01,0,0,0,0,0,0,0,41.61,82.8394,3073400
-0.0186157,-0.0803833,1.03131-3.66211,0.0610352,1.83105,-0.007,-0.085,-0.03,0,-0.000106812,0,0,0,0,0,41.61,82.8581,3073430
-0.00683594,0.0462646,1.01428-3.23486,-0.12207,0.610352,0.003,0.044,-0.08,0,-0.000366211,0,0,0,0,0,41.61,82.9044,3073476
-0.00683594,0.0462646,1.01428-3.23486,-0.12207,0.610352,0.003,0.044,-0.08,0,-0.000366211,0,0,0,0,0,41.61,82.9179,3073476
-0.00238037,0.0187378,1.01996-2.44141,-0.12207,0.732422,0.008,0.018,-0.08,0,-0.000442505,0,0,0,0,0,41.61,82.9392,3073505
-0.0105591,0.00378418,1.01703-2.13623,0.0610352,-0.183105,0,0.003,-0.09,0,-0.000442505,0,0,0,0,0,41.61,82.9585,3073520
-0.0110474,-0.00299072,1.01178-2.19727,0.0610352,-0.915527,0,-0.002,-0.08,0,-0.000442505,0,0,0,0,0,41.61,82.9783,3073536
-0.00231934,-0.161072,1.0246-7.14111,0.244141,-0.976562,0.008,-0.157,-0.06,0,-0.000549316,0,0,0,0,0,41.61,82.9982,3073565
-0.0237427,0.00799561,0.999695-10.5591,-0.12207,0.427246,-0.013,0.015,-0.06,0,-0.000747681,0,0,0,0,0,41.61,83.0178,3073580
-0.00671387,-0.151611,1.18048-9.21631,1.15967,0.793457,0.006,-0.136,-0.09,0,-0.0012207,0,0,0,0,0,41.61,83.0388,3073610
-0.0126953,0.0810547,0.952332-5.18799,-0.244141,1.15967,-0.002,0.093,-0.11,0,-0.00152588,0,0,0,0,0,41.61,83.0586,3073625
-0.0247192,-0.103333,0.919006-1.83105,-1.0376,0.610352,-0.014,-0.09,-0.12,0,-0.00183105,0,0,0,0,0,41.61,83.0785,3073640
-0.0142212,-0.0776367,1.02026-0.427246,-0.488281,-0.0610352,-0.002,-0.06,-0.13,0,-0.00279236,0,0,0,0,0,41.61,83.0995,3073670
-0.0308838,-0.118591,0.9715580.610352,-0.549316,-1.34277,-0.019,-0.101,-0.12,0,-0.00343323,0,0,0,0,0,41.61,83.1188,3073685
-0.0388184,-0.119873,0.9679571.34277,-0.183105,-2.01416,-0.027,-0.101,-0.09,-3.05176e-05,-0.00422668,0,0,0,0,0,41.61,83.1388,3073700
-0.0522461,-0.173218,1.0155-1.0376,-0.366211,-0.793457,-0.04,-0.151,-0.06,-7.62939e-05,-0.00624084,0,0,0,0,0,41.61,83.1595,3073730
0.0196533,-0.0429688,0.985352-0.854492,-0.305176,0.183105,0.03,-0.02,-0.06,-0.00012207,-0.00744629,0,0,0,0,0,41.61,83.1786,3073746
-0.00683594,-0.0198975,0.997624.82178,0.12207,-0.427246,0.003,0.001,-0.06,-0.000137329,-0.00868225,0,0,0,0,0,41.61,83.2042,3073776
-0.0552979,-0.0897827,1.103037.56836,0.732422,-0.488281,-0.043,-0.067,-0.05,-0.000167847,-0.00871277,0,0,0,0,0,41.62,83.2185,3073791
-0.0238037,-0.170837,1.046883.05176,0.549316,-0.488281,-0.012,-0.15,-0.04,-0.000228882,-0.00891113,0,0,0,0,0,41.62,83.2385,3073806
0.0109863,-0.0528564,0.9965211.52588,0.549316,-0.366211,0.022,-0.032,-0.04,-0.000289917,-0.00923157,0,0,0,0,0,41.62,83.2584,3073821
-0.0067749,-0.0227051,1.00543-2.19727,0.671387,0.12207,0.004,-0.002,-0.05,-0.000320435,-0.00958252,0,0,0,0,0,41.62,83.2785,3073836
-0.026062,0.0406494,1.00146-1.70898,0.488281,0.854492,-0.014,0.061,-0.03,-0.000366211,-0.0101624,0,0,0,0,0,41.62,83.2989,3073866
0.0152588,-0.02948,0.9534910.732422,0.12207,-0.305176,0.026,-0.009,-0.03,-0.000366211,-0.0104065,0,0,0,0,0,41.62,83.3183,3073881
-0.00335693,0.0323486,1.099851.0376,-0.549316,0.610352,0.009,0.053,-0.02,-0.000305176,-0.0105438,0,0,0,0,0,41.62,83.339,3073911
0.015686,0.0626831,0.9641111.95312,-0.671387,0.366211,0.026,0.08,-0.04,-0.000244141,-0.0104675,0,0,0,0,0,41.62,83.3589,3073926
-0.0222778,-0.00689697,0.9573972.86865,0.305176,-0.183105,-0.011,0.009,-0.03,-0.000167847,-0.0103149,0,0,0,0,0,41.62,83.3786,3073941
0.000854492,-0.0842896,1.035520.854492,0.305176,1.15967,0.012,-0.067,-0.04,-9.15527e-05,-0.0102081,0,0,0,0,0,41.62,83.3986,3073956
-0.0320435,-0.0525513,0.975769-7.44629,0.366211,-0.305176,-0.02,-0.032,-0.05,0,-0.0102692,0,0,0,0,0,41.62,83.4186,3073986
-0.0447998,-0.108276,1.05139-4.08936,0.305176,1.77002,-0.032,-0.085,-0.07,0,-0.0104065,0,0,0,0,0,41.62,83.439,3074001
0.0170288,-0.00457764,0.946350.488281,-0.549316,0.366211,0.027,0.016,-0.09,-0.000106812,-0.0107422,0,0,0,0,0,41.62,83.4597,3074031
0.0328369,-0.00518799,0.9489752.2583,-0.915527,-0.671387,0.043,0.015,-0.09,-0.00012207,-0.0108643,0,0,0,0,0,41.62,83.4789,3074046
-0.0285034,0.00213623,1.024963.78418,-0.915527,-0.793457,-0.017,0.024,-0.07,-0.00012207,-0.0109558,0,0,0,0,0,41.62,83.5001,3074061
0.0438843,-0.0387573,0.9521481.2207,0.183105,-1.95312,0.054,-0.018,-0.03,-9.15527e-05,-0.0113525,0,0,0,0,0,41.62,83.5184,3074091
-0.0159302,-0.0657959,1.00531-0.976562,-0.366211,-1.77002,-0.005,-0.044,-0.01,-3.05176e-05,-0.0116272,0,0,0,0,0,41.62,83.5391,3074106
-0.0580444,0.101501,1.02875-1.09863,-0.732422,-1.15967,-0.046,0.124,0,0,-0.0118408,0,0,0,0,0,41.62,83.5585,3074121
0.00933838,0.00195312,0.949646-1.64795,0,-0.610352,0.019,0.022,0.01,0,-0.0119629,0,0,0,0,0,41.62,83.579,3074136
-0.0145874,-0.00506592,1.101011.77002,0.12207,0.488281,-0.002,0.017,0.02,3.05176e-05,-0.0122681,0,0,0,0,0,41.62,83.5988,3074166
0.0195923,-0.0585327,0.9728391.15967,-0.12207,-1.0376,0.03,-0.038,0.03,4.57764e-05,-0.0124359,0,0,0,0,0,41.62,83.6181,3074181
-0.0259399,0.0383301,0.9396362.31934,0.183105,-1.2207,-0.015,0.056,0.05,7.62939e-05,-0.0126038,0,0,0,0,0,41.62,83.6393,3074196
-0.00823975,0.012146,0.9979861.52588,0.610352,-0.183105,0.002,0.03,0.05,4.57764e-05,-0.0128784,0,0,0,0,0,41.62,83.6582,3074226
0.00549316,-0.0524902,0.9567260.854492,-0.427246,-0.488281,0.015,-0.035,0.06,3.05176e-05,-0.0130157,0,0,0,0,0,41.62,83.6779,3074241
-0.0479736,-0.0303955,1.06073-0.305176,0.427246,1.64795,-0.036,-0.011,0.04,-4.57764e-05,-0.0132141,0,0,0,0,0,41.62,83.6993,3074271
0.0313721,0.0571899,0.9647830.793457,-1.2207,0.305176,0.041,0.074,0.03,-0.000106812,-0.0132599,0,0,0,0,0,41.62,83.7181,3074286
-0.0485229,-0.0518188,1.019170.427246,-0.976562,1.70898,-0.037,-0.034,0.01,-0.000152588,-0.0132904,0,0,0,0,0,41.61,83.7386,3074301
-0.0338745,-0.00598145,1.03815-0.305176,0.183105,1.95312,-0.022,0.011,-0.02,-0.000259399,-0.0133209,0,0,0,0,0,41.61,83.7578,3074316
-0.0238647,-0.0155029,1.037960.244141,-1.28174,0.732422,-0.013,0.001,-0.05,-0.000396729,-0.0132294,0,0,0,0,0,41.61,83.7794,3074346
-0.0549316,-0.0322876,1.0575-0.12207,-0.488281,1.83105,-0.044,-0.014,-0.07,-0.000488281,-0.0131683,0,0,0,0,0,41.61,83.7986,3074361
0.0648193,0.0303345,0.969849-0.12207,-1.28174,0.12207,0.074,0.046,-0.09,-0.000564575,-0.013092,0,0,0,0,0,41.61,83.8178,3074376
-0.0422363,-0.0153809,1.1001-0.976562,0.366211,0,-0.031,0.002,-0.08,-0.000595093,-0.0128937,0,0,0,0,0,41.61,83.8387,3074406
0.0497437,0.0234375,0.998352-0.732422,1.09863,-2.2583,0.059,0.039,-0.06,-0.000595093,-0.0127869,0,0,0,0,0,41.61,83.8577,3074421
0.0368652,-0.0238037,0.999146-0.427246,-0.427246,-2.92969,0.045,-0.007,-0.01,-0.000518799,-0.0126343,0,0,0,0,0,41.61,83.8774,3074436
-0.00134277,-0.00939941,0.984741-0.976562,0.488281,-1.77002,0.007,0.006,0.03,-0.000427246,-0.0125122,0,0,0,0,0,41.61,83.8978,3074466
0.0459595,0.015686,0.95166-0.366211,-1.58691,-3.05176,0.054,0.031,0.07,-0.000350952,-0.0124817,0,0,0,0,0,41.61,83.919,3074481
-0.0115356,0.0598755,1.04541-1.40381,-0.488281,-0.915527,-0.001,0.078,0.11,-0.000228882,-0.0124207,0,0,0,0,0,41.61,83.9384,3074511
0.0103149,-0.0419312,0.941833-2.38037,-1.28174,-1.46484,0.018,-0.025,0.13,-0.000228882,-0.0123291,0,0,0,0,0,41.61,83.9579,3074526
-0.0314331,0.0212402,1.0152-1.95312,-1.15967,-0.305176,-0.023,0.039,0.15,-0.000244141,-0.0122375,0,0,0,0,0,41.61,83.9785,3074541
0.0167236,0.0961304,1.0567-1.2207,-0.12207,-0.0610352,0.025,0.115,0.15,-0.000244141,-0.0120392,0,0,0,0,0,41.61,83.9987,3074556
-0.03479,-0.0454712,1.05414-0.305176,0.183105,-0.671387,-0.026,-0.025,0.18,-0.000183105,-0.0115509,0,0,0,0,0,41.61,84.0206,3074586
0.0153809,0.0418091,1.062070,1.15967,-0.12207,0.023,0.061,0.18,-0.000152588,-0.0112915,0,0,0,0,0,41.61,84.0388,3074601
0.0332642,0.00701904,0.968689-0.854492,-0.427246,-0.793457,0.04,0.024,0.19,-9.15527e-05,-0.0109863,0,0,0,0,0,41.61,84.0582,3074617
-0.0172729,0.00170898,1.029660.244141,1.15967,0.305176,-0.009,0.021,0.21,-1.52588e-05,-0.0105743,0,0,0,0,0,41.61,84.0787,3074646
0.0102539,-0.00708008,0.986328-0.549316,-0.427246,-0.671387,0.017,0.011,0.22,0,-0.010376,0,0,0,0,0,41.61,84.0997,3074661
-0.0411377,-0.0336304,1.038150.366211,-0.915527,-0.183105,-0.033,-0.013,0.23,0,-0.010376,0,0,0,0,0,41.61,84.1181,3074677
-0.0316162,0.0103149,0.962646-0.549316,-0.976562,-0.12207,-0.024,0.028,0.2,-4.57764e-05,-0.0105591,0,0,0,0,0,41.61,84.1395,3074706
0.0409546,0.0560913,1.004270.793457,-2.0752,-0.976562,0.048,0.075,0.22,-7.62939e-05,-0.0105896,0,0,0,0,0,41.61,84.1578,3074721
-0.0466309,-0.112305,1.03455-0.976562,-0.732422,0.610352,-0.039,-0.092,0.21,-0.000106812,-0.0106354,0,0,0,0,0,41.61,84.1785,3074737
0.0216675,-0.0304565,0.9599610.366211,-0.854492,-2.2583,0.028,-0.012,0.25,-0.000183105,-0.0108032,0,0,0,0,0,41.61,84.1979,3074766
-0.0204468,-0.0866089,1.10962-0.732422,0.549316,-1.46484,-0.013,-0.065,0.28,-0.000213623,-0.0109253,0,0,0,0,0,41.61,84.218,3074781
0.0201416,-0.0119019,0.912231-0.549316,0.610352,-4.15039,0.026,0.005,0.36,-0.000167847,-0.0112,0,0,0,0,0,41.62,84.2386,3074811
-0.062439,-0.0328369,1.08398-0.0610352,2.01416,-3.41797,-0.055,-0.011,0.42,-0.000137329,-0.0112,0,0,0,0,0,41.62,84.2584,3074826
-0.0012207,0.0545044,1.00592-0.427246,1.34277,-2.31934,0.006,0.073,0.45,-0.000152588,-0.0111542,0,0,0,0,0,41.62,84.2786,3074841
0.0736694,-0.117126,1.125850.915527,0.0610352,-3.17383,0.081,-0.096,0.49,-9.15527e-05,-0.0111237,0,0,0,0,0,41.62,84.2985,3074857
-0.0601196,-0.0502319,1.062072.31934,0.610352,0.854492,-0.051,-0.029,0.51,-1.52588e-05,-0.0111389,0,0,0,0,0,41.62,84.3185,3074886
0.0119629,-0.026062,0.985291-1.40381,-0.12207,-0.366211,0.02,-0.008,0.51,-4.57764e-05,-0.0111542,0,0,0,0,0,41.62,84.3388,3074901
-0.0623779,-0.0181885,0.9733890.183105,-1.40381,-0.610352,-0.054,0,0.52,-9.15527e-05,-0.0111542,0,0,0,0,0,41.62,84.3586,3074917
0.0234985,0.0286865,0.992188-1.77002,-1.83105,-0.793457,0.032,0.047,0.5,-0.000183105,-0.0111694,0,0,0,0,0,41.62,84.3783,3074946
-0.0726929,-0.00115967,0.997803-0.12207,-0.0610352,-0.732422,-0.064,0.019,0.52,-0.000228882,-0.0111237,0,0,0,0,0,41.62,84.3984,3074961
0.00567627,-0.11438,1.01874-0.793457,0.610352,-0.488281,0.012,-0.094,0.49,-0.000305176,-0.0111389,0,0,0,0,0,41.62,84.4203,3074991
-0.0288086,0.03479,0.9785771.15967,0.366211,-0.732422,-0.021,0.054,0.51,-0.000320435,-0.0112152,0,0,0,0,0,41.62,84.4384,3075006
0.0670166,-0.00146484,1.01025-0.488281,0.671387,0.183105,0.074,0.017,0.51,-0.000305176,-0.0112457,0,0,0,0,0,41.62,84.459,3075021
0.000671387,-0.0796509,1.0329-1.28174,0.854492,-1.40381,0.007,-0.059,0.52,-0.000244141,-0.0113068,0,0,0,0,0,41.62,84.4787,3075037
-0.0237427,0.0270386,0.9591670.244141,0.732422,0.793457,-0.015,0.046,0.53,-0.000244141,-0.0115356,0,0,0,0,0,41.62,84.4988,3075066
-0.0449219,-0.0604248,1.008911.15967,0.488281,-0.183105,-0.036,-0.039,0.52,-0.000274658,-0.0116425,0,0,0,0,0,41.62,84.5187,3075081
0.00170898,-0.0670166,1.08185-0.488281,-0.671387,0.793457,0.01,-0.045,0.51,-0.000335693,-0.0118103,0,0,0,0,0,41.62,84.5385,3075097
-0.0264893,-0.0189209,0.97644-0.0610352,-1.70898,1.34277,-0.017,0,0.49,-0.00038147,-0.012085,0,0,0,0,0,41.62,84.5585,3075127
-0.0222168,0.108093,1.040771.52588,-1.95312,0.305176,-0.012,0.129,0.47,-0.00038147,-0.0121002,0,0,0,0,0,41.62,84.5785,3075142
0.0403442,0.0698242,0.9768070.12207,-1.46484,0.12207,0.048,0.088,0.44,-0.000366211,-0.0121765,0,0,0,0,0,41.62,84.5986,3075172
0.0167847,0.00268555,1.032470.12207,-1.28174,-1.34277,0.024,0.022,0.46,-0.000274658,-0.0121613,0,0,0,0,0,41.62,84.6215,3075187
-0.0241089,-0.0123901,1.012270,0.549316,-0.0610352,-0.016,0.007,0.46,-0.000198364,-0.0121155,0,0,0,0,0,41.62,84.6391,3075202
-0.0397339,-0.0527344,1.05872-0.427246,0.366211,-2.92969,-0.032,-0.032,0.52,0,-0.0119934,0,0,0,0,0,41.62,84.6586,3075232
-0.0511475,-0.0568237,0.985962-0.427246,0.732422,0.488281,-0.044,-0.037,0.53,3.05176e-05,-0.0119934,0,0,0,0,0,41.62,84.6784,3075247
0.0181274,0.038208,1.030640,0.427246,-1.77002,0.026,0.057,0.54,7.62939e-05,-0.0119629,0,0,0,0,0,41.62,84.6987,3075262
-0.0202637,-0.0344849,1.059450.793457,1.09863,-1.70898,-0.011,-0.014,0.6,0.000106812,-0.0119019,0,0,0,0,0,41.62,84.7385,3075307
-0.0640259,-0.0664062,1.071591.34277,0,-1.28174,-0.055,-0.045,0.62,6.10352e-05,-0.0119476,0,0,0,0,0,41.58,84.7604,3075322
0.0126343,-0.0656738,1.059081.09863,0.244141,0.366211,0.021,-0.046,0.6,-7.62939e-05,-0.0121918,0,0,0,0,0,41.58,84.781,3075352
-0.0353394,0.0206909,1.031621.2207,-1.2207,0.366211,-0.026,0.039,0.6,-0.000167847,-0.0123596,0,0,0,0,0,41.58,84.7977,3075367
0.0365601,0.020752,0.982056-1.15967,-0.427246,1.64795,0.044,0.038,0.55,-0.000366211,-0.0127106,0,0,0,0,0,41.58,84.8262,3075397
0.0177002,0.0569458,1.04797-1.0376,-2.13623,0.610352,0.026,0.075,0.54,-0.000427246,-0.0128174,0,0,0,0,0,41.58,84.8414,3075412
-0.0449829,-0.0623169,0.951843-1.46484,-0.366211,1.95312,-0.038,-0.044,0.52,-0.000473022,-0.0129089,0,0,0,0,0,41.58,84.8577,3075427
0.0144653,0.050415,0.999573-0.671387,-0.488281,1.52588,0.022,0.068,0.49,-0.000549316,-0.0129852,0,0,0,0,0,41.58,84.88,3075442
-0.0438843,-0.171875,0.979309-0.305176,-0.0610352,1.83105,-0.038,-0.154,0.46,-0.000701904,-0.01297,0,0,0,0,0,41.58,84.9017,3075472
-0.00854492,-0.0263062,1.033330.671387,-0.366211,1.28174,-0.001,-0.007,0.44,-0.000839233,-0.0131073,0,0,0,0,0,41.58,84.9197,3075487
-0.0426636,-0.0197754,1.064940.610352,-0.915527,-0.549316,-0.035,0,0.45,-0.000991821,-0.0132446,0,0,0,0,0,41.58,84.9382,3075502
-0.0109253,-0.0466309,0.9763180,-0.610352,0.305176,-0.004,-0.028,0.44,-0.00115967,-0.0134125,0,0,0,0,0,41.58,84.9583,3075517
-0.000793457,0.0408936,1.013850.0610352,-2.38037,-2.0752,0.006,0.058,0.49,-0.00143433,-0.0136566,0,0,0,0,0,41.58,84.978,3075547
-0.0256348,-0.0249023,0.9751590.305176,-0.427246,-1.0376,-0.019,-0.007,0.51,-0.00157166,-0.0137177,0,0,0,0,0,41.58,84.998,3075562
0.00488281,0.0252075,0.9997560.305176,-0.12207,-1.70898,0.011,0.042,0.53,-0.00157166,-0.0137634,0,0,0,0,0,41.58,85.0179,3075577
-0.0385742,-0.0188599,0.978149-1.15967,-0.12207,-1.70898,-0.032,-0.001,0.59,-0.00160217,-0.0137482,0,0,0,0,0,41.58,85.0383,3075607
-0.00939941,-0.0548096,1.08331-0.915527,0.12207,-2.31934,-0.003,-0.035,0.62,-0.00166321,-0.0137634,0,0,0,0,0,41.58,85.0579,3075622
-0.00775146,0.0473022,1.00183-0.976562,-1.2207,-1.95312,-0.001,0.064,0.65,-0.00170898,-0.0137482,0,0,0,0,0,41.58,85.0778,3075637
-0.03479,0.00457764,0.981934-0.305176,0.12207,-1.70898,-0.028,0.022,0.7,-0.00172424,-0.0136414,0,0,0,0,0,41.58,85.0984,3075667
0.0237427,0.0181885,1.03003-0.183105,-1.95312,-1.2207,0.03,0.035,0.73,-0.00172424,-0.0135193,0,0,0,0,0,41.58,85.1185,3075682
-0.026123,-0.0650635,0.986877-0.12207,0.305176,-1.28174,-0.021,-0.047,0.74,-0.00172424,-0.0134277,0,0,0,0,0,41.58,85.1383,3075697
-0.0189209,-0.00708008,1.02435-0.732422,-0.244141,-1.40381,-0.013,0.011,0.76,-0.00178528,-0.0132141,0,0,0,0,0,41.58,85.1583,3075727
-0.0185547,-0.0283813,0.94220.183105,0.671387,-1.58691,-0.013,-0.011,0.78,-0.00178528,-0.0132141,0,0,0,0,0,41.58,85.1779,3075742
0.0509033,-0.0136719,1.16718-0.183105,0.854492,0.183105,0.057,0.006,0.78,-0.00175476,-0.0132141,0,0,0,0,0,41.58,85.1984,3075757
-0.0283813,-0.0244141,0.9007570.732422,-0.183105,0.0610352,-0.023,-0.007,0.8,-0.00167847,-0.0133057,0,0,0,0,0,41.58,85.2184,3075787
0.0100708,-0.0247803,1.128230.854492,0.915527,0.854492,0.016,-0.004,0.78,-0.00167847,-0.0133667,0,0,0,0,0,41.58,85.2386,3075802
-0.0565186,-0.0826416,1.066280.12207,0.12207,-1.15967,-0.051,-0.063,0.79,-0.00167847,-0.0134888,0,0,0,0,0,41.58,85.2579,3075817
0.0187988,-0.0386963,1.111631.58691,0.915527,-0.610352,0.024,-0.018,0.81,-0.00183105,-0.0140076,0,0,0,0,0,41.58,85.2783,3075847
-0.0610962,-0.0818481,1.032960.366211,0.0610352,-1.89209,-0.056,-0.062,0.84,-0.00192261,-0.0143585,0,0,0,0,0,41.58,85.2985,3075862
0.0576782,-0.0444946,1.097470.732422,1.77002,-1.64795,0.063,-0.025,0.87,-0.00210571,-0.0153351,0,0,0,0,0,41.58,85.3218,3075892
-0.0159912,-0.0369873,0.999329-0.12207,0.793457,-3.17383,-0.011,-0.019,0.92,-0.00215149,-0.0158997,0,0,0,0,0,41.58,85.3387,3075907
0.0245972,-0.0546265,0.968750.915527,1.70898,-1.89209,0.029,-0.038,0.95,-0.00216675,-0.0164948,0,0,0,0,0,41.58,85.3581,3075922
-0.0720825,-0.00854492,0.9833371.2207,0.549316,-1.58691,-0.066,0.009,1.01,-0.00204468,-0.0177765,0,0,0,0,0,41.58,85.3812,3075952
-0.0410767,-0.026001,0.945741.64795,0.610352,0.366211,-0.035,-0.009,1.01,-0.00204468,-0.0177765,0,0,0,0,0,41.58,85.3988,3075967
-0.0159912,-0.0639038,1.04773-0.915527,1.64795,0.183105,-0.009,-0.046,1,-0.0020752,-0.0178223,0,0,0,0,0,41.58,85.4188,3075982
0.0159302,0.00598145,1.02197-1.58691,-0.12207,-0.0610352,0.023,0.023,1.01,-0.0020752,-0.0178375,0,0,0,0,0,41.58,85.4637,3076027
-0.0143433,-0.0540161,1.05188-1.46484,-0.976562,-1.0376,-0.007,-0.035,1.03,-0.00205994,-0.0178528,0,0,0,0,0,41.58,85.4783,3076042
0.00726318,-0.0330811,0.976929-1.15967,-0.366211,0.12207,0.013,-0.016,1.03,-0.00202942,-0.0179138,0,0,0,0,0,41.58,85.4988,3076058
0.0010376,-0.00543213,1.005310.854492,0.305176,-1.64795,0.008,0.012,1.06,-0.00192261,-0.0179291,0,0,0,0,0,41.58,85.5189,3076087
0.000305176,-0.102173,1.037841.0376,1.58691,-0.915527,0.005,-0.084,1.08,-0.00184631,-0.0179749,0,0,0,0,0,41.58,85.5383,3076102
0.034668,-0.03479,1.08624-0.12207,0.793457,-1.15967,0.041,-0.017,1.1,-0.00175476,-0.0180969,0,0,0,0,0,41.58,85.5579,3076118
0.0106812,-0.0576172,1.049070.244141,1.0376,1.2207,0.017,-0.039,1.1,-0.00154114,-0.0183868,0,0,0,0,0,41.58,85.5784,3076147
-0.0553589,0.0804443,1.054990.549316,0.671387,0.915527,-0.045,0.099,1.08,-0.00144958,-0.0185089,0,0,0,0,0,41.58,85.5988,3076162
0.0301514,0.022644,0.921753-0.854492,-0.671387,0,0.038,0.037,1.08,-0.00137329,-0.0185394,0,0,0,0,0,41.58,85.6178,3076178
-0.069397,-0.0218506,1.146551.09863,0.610352,0.305176,-0.06,-0.001,1.07,-0.00128174,-0.0185089,0,0,0,0,0,41.58,85.6387,3076207
-0.00616455,-0.113037,0.9913331.34277,-0.488281,0.549316,0,-0.096,1.06,-0.001297,-0.0185394,0,0,0,0,0,41.58,85.6593,3076222
-0.0308228,-0.090332,0.9946291.58691,0.244141,1.09863,-0.024,-0.073,1.05,-0.00134277,-0.0187073,0,0,0,0,0,41.58,85.6785,3076238
0.00683594,-0.130676,0.9907230.549316,-0.366211,-0.915527,0.012,-0.115,1.03,-0.00140381,-0.0189819,0,0,0,0,0,41.58,85.6985,3076267
0.00231934,0.0379028,0.9322510.610352,-0.305176,0.610352,0.01,0.052,1.03,-0.00140381,-0.0191803,0,0,0,0,0,41.58,85.7192,3076282
-0.0132446,-0.024231,1.09711-0.305176,0.183105,-1.15967,-0.005,-0.006,1.04,-0.00140381,-0.0193329,0,0,0,0,0,41.58,85.7389,3076298
-0.0461426,-0.113403,0.9769290.488281,0.305176,-0.244141,-0.04,-0.097,1.06,-0.00138855,-0.019577,0,0,0,0,0,41.58,85.7616,3076327
-0.0313721,0.0315552,1.060670.183105,1.15967,-1.28174,-0.022,0.048,1.07,-0.00143433,-0.0197449,0,0,0,0,0,41.58,85.7787,3076342
0.0296021,-0.0175781,0.9210820.488281,0.366211,-2.2583,0.036,-0.004,1.1,-0.0014801,-0.0198822,0,0,0,0,0,41.58,85.7977,3076358
-0.0444946,0.0211182,1.067691.64795,0.671387,-2.38037,-0.034,0.037,1.16,-0.00149536,-0.0201263,0,0,0,0,0,41.58,85.8177,3076387
-0.0196533,-0.117676,1.019781.09863,0.976562,-0.976562,-0.013,-0.102,1.18,-0.0015564,-0.0202789,0,0,0,0,0,41.58,85.8379,3076402
0.00701904,0.0297241,1.019231.0376,-0.12207,-0.671387,0.016,0.044,1.18,-0.00161743,-0.0204773,0,0,0,0,0,41.58,85.8578,3076418
0.00366211,-0.024353,0.9638060.183105,-0.854492,-0.183105,0.012,-0.01,1.18,-0.0017395,-0.0207672,0,0,0,0,0,41.58,85.8782,3076448
-0.0164185,-0.0369263,1.02979-1.2207,-0.976562,1.28174,-0.007,-0.021,1.17,-0.0018158,-0.0209351,0,0,0,0,0,41.58,85.8976,3076463
-0.0332642,0.0266724,1.03510.244141,-0.732422,1.34277,-0.023,0.042,1.15,-0.00189209,-0.0210876,0,0,0,0,0,41.58,85.9181,3076478
-0.00488281,-0.0474854,1.069340.244141,-0.488281,1.40381,0.003,-0.032,1.11,-0.00204468,-0.0214081,0,0,0,0,0,41.58,85.9381,3076508
-0.0216064,0.0860596,0.9685060,-0.732422,0.732422,-0.012,0.099,1.08,-0.00204468,-0.0215454,0,0,0,0,0,41.58,85.9578,3076523
0.0279541,-0.0332031,0.9887080.549316,-0.488281,0.244141,0.035,-0.02,1.08,-0.00202942,-0.0216217,0,0,0,0,0,41.58,85.9779,3076538
0.0103149,0.0883789,0.9666750.488281,-0.976562,-0.854492,0.019,0.101,1.08,-0.00195312,-0.0218811,0,0,0,0,0,41.58,85.998,3076568
-0.000244141,-0.0758057,0.9871221.89209,-0.12207,-0.976562,0.005,-0.062,1.09,-0.00195312,-0.0219879,0,0,0,0,0,41.58,86.019,3076583
-0.072998,0.0366821,1.108153.41797,1.28174,-1.46484,-0.064,0.052,1.11,-0.0019989,-0.0220795,0,0,0,0,0,41.58,86.0383,3076598
0.0195923,-0.00671387,0.9694211.34277,-0.549316,-0.732422,0.026,0.004,1.13,-0.00215149,-0.0223999,0,0,0,0,0,41.58,86.0601,3076628
-0.0224609,-0.046875,1.095580.488281,-0.12207,-0.854492,-0.015,-0.033,1.15,-0.00221252,-0.0225983,0,0,0,0,0,41.58,86.0789,3076643
-0.0020752,-0.0340576,0.9511110.12207,-1.34277,-1.0376,0.003,-0.022,1.18,-0.00227356,-0.022995,0,0,0,0,0,41.58,86.1014,3076673
-0.0169678,-0.00939941,1.09344-0.793457,-0.0610352,-1.15967,-0.01,0.003,1.19,-0.00227356,-0.0231934,0,0,0,0,0,41.58,86.1245,3076688
-0.0090332,0.0206909,0.9686280.12207,-1.34277,-0.793457,-0.002,0.032,1.21,-0.00227356,-0.0233765,0,0,0,0,0,41.58,86.1385,3076703
0.00408936,-0.0274658,0.962524-0.427246,-0.732422,-1.89209,0.009,-0.016,1.24,-0.00227356,-0.0235443,0,0,0,0,0,41.58,86.158,3076718
-0.00946045,0.000976562,1.011410,-0.488281,-2.0752,-0.003,0.012,1.29,-0.00227356,-0.0237122,0,0,0,0,0,41.58,86.1779,3076748
0.00762939,-0.0239258,1.0069-0.183105,0.12207,-2.19727,0.013,-0.012,1.32,-0.00227356,-0.0237122,0,0,0,0,0,41.58,86.2002,3076763
-0.00268555,-0.0127563,1.03381-1.52588,-0.183105,-1.77002,0.003,0,1.35,-0.00227356,-0.0237122,0,0,0,0,0,41.58,86.2185,3076778
-0.00854492,-0.050293,1.03772-0.915527,-0.427246,-1.64795,-0.003,-0.037,1.41,-0.00227356,-0.0236206,0,0,0,0,0,41.58,86.2385,3076808
-0.010437,0.0706177,1.00397-2.0752,-1.09863,-0.244141,-0.002,0.083,1.42,-0.00227356,-0.0235291,0,0,0,0,0,41.58,86.2598,3076823
0.00213623,0.0164185,0.973389-2.01416,-1.28174,-1.09863,0.008,0.028,1.44,-0.00227356,-0.0233612,0,0,0,0,0,41.58,86.2782,3076838
-0.00921631,0.121094,0.994934-0.610352,-1.28174,-0.183105,0,0.134,1.43,-0.00234985,-0.0229492,0,0,0,0,0,41.55,86.2987,3076868
-0.0255127,-0.0687256,0.9396360.305176,-1.09863,-1.58691,-0.021,-0.055,1.45,-0.00241089,-0.022644,0,0,0,0,0,41.55,86.3186,3076883
0.00982666,-0.0222168,1.105710.671387,0,0.0610352,0.015,-0.007,1.45,-0.00247192,-0.0223846,0,0,0,0,0,41.55,86.3392,3076898
0.0178223,-0.0283813,0.9684450.854492,0.183105,-1.58691,0.022,-0.015,1.5,-0.00270081,-0.0220184,0,0,0,0,0,41.55,86.3581,3076928
0.0317993,-0.017334,1.074710.976562,1.95312,-1.70898,0.037,-0.003,1.52,-0.0027771,-0.0218811,0,0,0,0,0,41.55,86.3779,3076943
-0.00622559,-0.0266113,0.969604-0.549316,1.34277,-2.86865,-0.001,-0.013,1.56,-0.00283813,-0.0218811,0,0,0,0,0,41.55,86.3981,3076958
-0.0587769,-0.0721436,1.114930.366211,2.44141,-0.488281,-0.053,-0.055,1.62,-0.00286865,-0.0219269,0,0,0,0,0,41.55,86.4187,3076988
-0.0359497,-0.0306396,1.02039-0.0610352,0.732422,-0.305176,-0.029,-0.016,1.62,-0.00294495,-0.0220337,0,0,0,0,0,41.55,86.4387,3077003
-0.0391846,-0.06073,1.12305-1.52588,1.58691,1.70898,-0.032,-0.044,1.61,-0.00318909,-0.0222473,0,0,0,0,0,41.55,86.4645,3077033
-0.00012207,0.0285034,0.983459-1.0376,-0.915527,0.732422,0.008,0.042,1.59,-0.00332642,-0.0223541,0,0,0,0,0,41.55,86.4783,3077048
0.0353394,-0.0448608,1.01959-1.0376,-1.2207,0.0610352,0.041,-0.032,1.6,-0.00344849,-0.0224609,0,0,0,0,0,41.55,86.4992,3077063
-0.0377197,-0.026062,1.063420.366211,0.366211,0.976562,-0.03,-0.01,1.58,-0.0035553,-0.0226135,0,0,0,0,0,41.55,86.5193,3077078
0.00994873,0.0256958,0.9755250.610352,-0.305176,-0.976562,0.017,0.038,1.6,-0.00370789,-0.0227966,0,0,0,0,0,41.55,86.5386,3077108
0.00689697,0.0574951,1.018550.183105,0.427246,-0.793457,0.015,0.071,1.61,-0.0037384,-0.0227966,0,0,0,0,0,41.55,86.5587,3077123
-0.0408325,-0.00921631,1.007260.671387,1.58691,-2.74658,-0.034,0.005,1.68,-0.00372314,-0.022522,0,0,0,0,0,41.55,86.5854,3077153
-0.00262451,0.0379028,0.9865720.610352,1.28174,-0.915527,0.005,0.051,1.7,-0.00372314,-0.0223083,0,0,0,0,0,41.55,86.599,3077168
0.0402222,-0.00592041,0.9776610.12207,0.610352,-1.58691,0.047,0.005,1.72,-0.00370789,-0.0220642,0,0,0,0,0,41.55,86.6188,3077183
-0.0445557,-0.00408936,1.11261-0.12207,1.40381,-0.305176,-0.036,0.012,1.73,-0.00366211,-0.0218048,0,0,0,0,0,41.55,86.6381,3077199
0.00683594,-0.0443115,0.9403080.671387,-0.12207,-0.427246,0.013,-0.032,1.72,-0.00366211,-0.0218201,0,0,0,0,0,41.55,86.6635,3077228
-0.0849609,-0.0523071,1.105160.915527,0.183105,0.793457,-0.077,-0.035,1.72,-0.00369263,-0.0218658,0,0,0,0,0,41.55,86.6787,3077243
0.010498,0.0217285,0.963989-0.0610352,-0.671387,1.46484,0.019,0.033,1.7,-0.00378418,-0.0219269,0,0,0,0,0,41.55,86.6984,3077258
-0.0842896,-0.0229492,1.083190.732422,0,0.915527,-0.075,-0.006,1.68,-0.00386047,-0.0220337,0,0,0,0,0,41.55,86.7225,3077288
-0.0353394,0.0150757,1.06470.183105,0.976562,0.732422,-0.026,0.028,1.67,-0.00401306,-0.0220642,0,0,0,0,0,41.55,86.7722,3077333
0.0393066,0.0447998,0.9665530.915527,0.183105,-0.427246,0.048,0.054,1.66,-0.00402832,-0.0219879,0,0,0,0,0,41.55,86.7821,3077348
-0.0177002,-0.0539551,0.9851070.549316,0.671387,-0.854492,-0.011,-0.042,1.68,-0.00402832,-0.0219116,0,0,0,0,0,41.57,86.7984,3077363
-0.0101929,0.0189209,1.04004-0.488281,1.28174,0.244141,0,0.031,1.67,-0.00402832,-0.0218506,0,0,0,0,0,41.57,86.8186,3077379
0.0283813,0.172607,0.9916380.12207,-0.366211,-2.13623,0.042,0.183,1.73,-0.00393677,-0.0215149,0,0,0,0,0,41.57,86.8386,3077408
-0.0378418,-0.0322266,1.01538-0.976562,0.915527,-0.488281,-0.029,-0.02,1.74,-0.00386047,-0.0211792,0,0,0,0,0,41.57,86.8591,3077423
0.000793457,-0.0654907,0.9639280.427246,0.671387,-1.15967,0.008,-0.055,1.75,-0.00379944,-0.0208893,0,0,0,0,0,41.57,86.8789,3077439
-0.0178833,0.00134277,0.994324-0.427246,0,0.488281,-0.007,0.012,1.75,-0.00372314,-0.0201874,0,0,0,0,0,41.57,86.8989,3077468
-0.0206299,-0.0112305,0.9569090.305176,-1.15967,-0.610352,-0.011,0,1.76,-0.00372314,-0.0201874,0,0,0,0,0,41.57,86.9184,3077483
-0.0894775,-0.00140381,1.031680.488281,-0.183105,0.976562,-0.079,0.012,1.76,-0.00378418,-0.0201874,0,0,0,0,0,41.57,86.9414,3077499
-0.0351562,-0.0770264,0.9608762.19727,-0.183105,-1.0376,-0.028,-0.066,1.74,-0.00387573,-0.0201111,0,0,0,0,0,41.57,86.9586,3077528
-0.00317383,-0.0401001,1.111880.976562,0.305176,1.34277,0.006,-0.029,1.74,-0.00390625,-0.0201569,0,0,0,0,0,41.57,86.9778,3077543
0.0544434,-0.0245361,0.969971-0.366211,-0.610352,0.427246,0.062,-0.017,1.73,-0.00389099,-0.0202179,0,0,0,0,0,41.57,86.9977,3077559
0.0415649,0.0281372,1.06201-0.305176,0.305176,0.12207,0.052,0.036,1.75,-0.00379944,-0.0201263,0,0,0,0,0,41.57,87.0192,3077588
0.0375366,0.0165405,0.922913-0.427246,-0.488281,-1.34277,0.046,0.023,1.75,-0.00367737,-0.019989,0,0,0,0,0,41.57,87.038,3077603
-0.02771,0.0767822,1.026860.244141,-0.732422,-1.95312,-0.016,0.086,1.78,-0.00352478,-0.0197754,0,0,0,0,0,41.57,87.0578,3077619
0.0155029,0.0302124,0.913331.2207,-1.46484,-1.83105,0.024,0.037,1.8,-0.00352478,-0.019043,0,0,0,0,0,41.57,87.0788,3077648
-0.0357666,-0.0150757,1.037230.366211,-0.488281,-0.976562,-0.027,-0.005,1.82,-0.00350952,-0.018631,0,0,0,0,0,41.57,87.0976,3077663
-0.0357056,0.0217896,1.008670.488281,-0.610352,-0.732422,-0.025,0.03,1.83,-0.00354004,-0.0181885,0,0,0,0,0,41.57,87.1183,3077679
-0.0379639,-0.00701904,1.058840.305176,-0.12207,-0.488281,-0.029,0.002,1.86,-0.00357056,-0.0172882,0,0,0,0,0,41.57,87.1383,3077708
-0.0258179,-0.0158691,1.053960.12207,0.244141,-1.28174,-0.016,-0.007,1.88,-0.00361633,-0.0172882,0,0,0,0,0,41.57,87.1577,3077723
0.0181274,-0.0213013,1.04785-0.244141,0.732422,-0.671387,0.026,-0.014,1.92,-0.00360107,-0.0172882,0,0,0,0,0,41.57,87.1815,3077753
-0.0131836,0.0282593,1.021971.15967,0.244141,-1.89209,-0.003,0.035,1.94,-0.0035553,-0.0172729,0,0,0,0,0,41.57,87.1981,3077768
0.00012207,-0.0478516,1.039730.366211,0.366211,-2.2583,0.007,-0.04,1.97,-0.0035553,-0.0172729,0,0,0,0,0,41.57,87.2178,3077784
0.00891113,0.0289307,1.0470.915527,1.58691,-0.610352,0.018,0.035,1.99,-0.0035553,-0.0172577,0,0,0,0,0,41.57,87.2385,3077799
-0.0395508,-0.0118408,1.025883.479,-0.244141,-2.0752,-0.031,-0.005,2.05,-0.00357056,-0.0171356,0,0,0,0,0,41.57,87.2584,3077829
-0.0456543,0.0198364,1.02573.72314,0.732422,-0.366211,-0.035,0.025,2.07,-0.00363159,-0.0170593,0,0,0,0,0,41.57,87.278,3077844
-0.0114136,0.0385132,0.9898075.5542,-0.854492,-2.13623,0,0.04,2.09,-0.00372314,-0.0169373,0,0,0,0,0,41.57,87.2981,3077859
-0.0408936,-0.0224609,1.044015.31006,-0.854492,0.488281,-0.032,-0.021,2.13,-0.0037384,-0.0166779,0,0,0,0,0,41.54,87.3181,3077889
0.0180664,0.0760498,0.9970095.79834,-0.976562,-1.34277,0.029,0.072,2.13,-0.00376892,-0.0165405,0,0,0,0,0,41.54,87.3381,3077904
0.0597534,-0.00335693,0.9661876.95801,-1.40381,-4.08936,0.067,-0.01,2.18,-0.00372314,-0.0163422,0,0,0,0,0,41.54,87.3582,3077919
0.015625,0.0730591,1.033516.34766,0,-0.305176,0.026,0.064,2.21,-0.00364685,-0.0160675,0,0,0,0,0,41.54,87.378,3077949
0.0423584,-0.000915527,0.97295.06592,-0.427246,-2.62451,0.049,-0.011,2.24,-0.0035553,-0.0158844,0,0,0,0,0,41.54,87.4018,3077964
-0.0200195,0.0484009,1.008-2.80762,1.52588,0.732422,-0.01,0.039,2.24,-0.00331116,-0.0154419,0,0,0,0,0,41.54,87.4394,3078009
-0.0200195,0.0484009,1.008-2.80762,1.52588,0.732422,-0.01,0.039,2.24,-0.00331116,-0.0154419,0,0,0,0,0,41.54,87.449,3078009
-0.0444946,0.103638,1.078251.64795,1.0376,1.89209,-0.031,0.091,2.22,-0.00312805,-0.0145264,0,0,0,0,0,41.54,87.4684,3078039
-0.0444946,0.103638,1.078251.64795,1.0376,1.89209,-0.031,0.091,2.22,-0.00312805,-0.0145264,0,0,0,0,0,41.54,87.4796,3078039
-0.0682373,0.0549927,0.9271240.12207,-0.183105,-1.28174,-0.058,0.044,2.22,-0.00296021,-0.0132294,0,0,0,0,0,41.54,87.5028,3078069
-0.043457,0.067627,1.03363-1.95312,-0.427246,-0.183105,-0.032,0.054,2.23,-0.00294495,-0.0124817,0,0,0,0,0,41.54,87.5192,3078084
-0.000671387,0.043396,1.08539-2.01416,-0.366211,0.610352,0.01,0.027,2.22,-0.00294495,-0.0116882,0,0,0,0,0,41.54,87.5385,3078099
0.00488281,0.0310669,0.959839-2.44141,-0.366211,1.15967,0.013,0.017,2.18,-0.00292969,-0.00994873,0,0,0,0,0,41.54,87.5581,3078129
-0.00756836,0.0197144,1.04602-2.44141,0,1.09863,0.001,0.005,2.16,-0.00292969,-0.00994873,0,0,0,0,0,41.54,87.5785,3078144
0.0137939,0.0300903,1.02655-2.0752,-0.366211,-0.0610352,0.023,0.015,2.16,-0.00291443,-0.00994873,0,0,0,0,0,41.54,87.5987,3078159
-0.0136719,0.0575562,1.037412.38037,0.915527,0.854492,-0.003,0.042,2.13,-0.00282288,-0.00975037,0,0,0,0,0,41.54,87.6185,3078189
-0.0134277,0.0783081,1.063293.2959,0.732422,0.854492,-0.002,0.062,2.12,-0.00282288,-0.009552,0,0,0,0,0,41.54,87.6391,3078204
-0.0238647,-0.02948,0.9263920.488281,-0.12207,0.427246,-0.017,-0.043,2.12,-0.00282288,-0.00932312,0,0,0,0,0,41.54,87.6587,3078219
-0.0209961,-0.0158081,1.08447-3.84521,0.366211,-1.70898,-0.012,-0.031,2.14,-0.00282288,-0.00883484,0,0,0,0,0,41.54,87.6783,3078249
-0.0536499,0.038269,0.989929-4.02832,-0.244141,-0.915527,-0.044,0.026,2.16,-0.00285339,-0.00857544,0,0,0,0,0,41.54,87.6986,3078264
0.00909424,0.0407715,1.02856-3.66211,0.305176,0.488281,0.019,0.026,2.15,-0.00289917,-0.00828552,0,0,0,0,0,41.54,87.7196,3078279
-0.0375366,-0.0425415,1.02258-1.95312,-0.488281,0.244141,-0.03,-0.053,2.14,-0.00297546,-0.00767517,0,0,0,0,0,41.54,87.7391,3078309
0.0296021,0.0481567,0.978455-1.64795,-0.610352,0.183105,0.039,0.035,2.14,-0.00302124,-0.00738525,0,0,0,0,0,41.54,87.7608,3078324
-0.00958252,0.00408936,0.998169-0.366211,0.366211,-1.70898,-0.001,-0.007,2.16,-0.0030365,-0.00708008,0,0,0,0,0,41.54,87.7787,3078339
0.00714111,-0.0203247,1.023014.94385,0.12207,-1.64795,0.014,-0.035,2.2,-0.0030365,-0.00631714,0,0,0,0,0,41.54,87.7994,3078369
-0.00494385,0.0111084,1.011234.3335,0.244141,-2.19727,0.003,-0.005,2.24,-0.0030365,-0.00593567,0,0,0,0,0,41.53,87.8186,3078384
-0.0614624,-0.0397339,1.01911.89209,0.793457,0.793457,-0.054,-0.053,2.24,-0.00306702,-0.00559998,0,0,0,0,0,41.53,87.8384,3078399
-0.0380859,0.0296631,1.0224-1.83105,0.244141,1.46484,-0.028,0.015,2.21,-0.00314331,-0.00495911,0,0,0,0,0,41.53,87.8586,3078429
0.0164185,0.0292969,1.02661-2.80762,-0.0610352,1.52588,0.026,0.013,2.18,-0.00317383,-0.00495911,0,0,0,0,0,41.53,87.8785,3078444
-0.00311279,0.0552368,1.00232-1.40381,-0.366211,0.793457,0.006,0.04,2.17,-0.00318909,-0.00492859,0,0,0,0,0,41.53,87.8986,3078459
0.0113525,-0.00762939,1.023190.183105,0.12207,-0.732422,0.019,-0.023,2.17,-0.00318909,-0.00476074,0,0,0,0,0,41.53,87.9186,3078489
-0.0149536,0.0162354,1.01410.366211,-0.183105,-1.28174,-0.006,0.001,2.19,-0.00318909,-0.00469971,0,0,0,0,0,41.53,87.9406,3078504
-0.012207,0.0100098,0.988220.305176,-0.12207,-1.52588,-0.004,-0.004,2.21,-0.00318909,-0.00463867,0,0,0,0,0,41.53,87.9588,3078519
0.00628662,-0.00463867,1.021552.99072,-0.183105,0.427246,0.014,-0.022,2.21,-0.00318909,-0.00431824,0,0,0,0,0,41.53,87.9787,3078549
0.029541,0.119263,1.014040.427246,-0.732422,0.610352,0.041,0.098,2.17,-0.00317383,-0.00350952,0,0,0,0,0,41.53,88.025,3078594
-0.0316772,0.0422363,0.9927370.671387,-0.549316,0.12207,-0.022,0.023,2.17,-0.00314331,-0.00306702,0,0,0,0,0,41.53,88.04,3078609
0.00311279,0.0108643,1.0155-1.58691,-0.427246,0.427246,0.011,-0.009,2.17,-0.00312805,-0.00260925,0,0,0,0,0,41.53,88.0588,3078624
0.0110474,0.0477295,1.01263-3.05176,-0.0610352,-0.244141,0.02,0.027,2.17,-0.00308228,-0.00215149,0,0,0,0,0,41.53,88.0786,3078640
0.00152588,0.00488281,1.01904-2.80762,0.305176,-0.0610352,0.008,-0.014,2.17,-0.00297546,-0.00115967,0,0,0,0,0,41.53,88.0991,3078669
-0.00372314,0.00842285,1.01703-2.68555,0.366211,-0.183105,0.003,-0.009,2.17,-0.00297546,-0.00115967,0,0,0,0,0,41.53,88.119,3078684
-0.0116577,-0.0101318,1.02271-2.68555,0.549316,0.12207,-0.004,-0.026,2.17,-0.00297546,-0.00117493,0,0,0,0,0,41.53,88.1388,3078700
-0.020813,-0.00616455,1.00958-3.11279,0.549316,-0.244141,-0.013,-0.02,2.16,-0.00297546,-0.00131226,0,0,0,0,0,41.53,88.1588,3078729
-0.0193481,-0.00842285,1.0188-3.66211,0.183105,-0.244141,-0.011,-0.021,2.17,-0.00297546,-0.00141907,0,0,0,0,0,41.53,88.1786,3078744
-0.0126953,-0.00445557,1.00519-3.78418,-0.0610352,-0.244141,-0.004,-0.016,2.17,-0.00297546,-0.0015564,0,0,0,0,0,41.53,88.199,3078760
-0.00842285,0.00683594,1.01331-3.78418,-0.244141,-0.366211,0,-0.003,2.19,-0.00297546,-0.0015564,0,0,0,0,0,41.53,88.2189,3078789
-0.00476074,0.00164795,1.00781-3.78418,-0.12207,-0.488281,0.003,-0.007,2.19,-0.00297546,-0.0015564,0,0,0,0,0,41.53,88.238,3078804
0.000427246,-0.00244141,1.01056-3.66211,-0.12207,-0.427246,0.008,-0.01,2.2,-0.00297546,-0.0015564,0,0,0,0,0,41.53,88.2581,3078820
0.00811768,0.0200806,1.00696-2.62451,-0.671387,0.244141,0.017,0.013,2.21,-0.00297546,-0.0015564,0,0,0,0,0,41.53,88.2779,3078849
-0.0238037,-0.0177002,0.986084-0.854492,0.0610352,0.12207,-0.016,-0.021,2.2,-0.00297546,-0.00157166,0,0,0,0,0,41.53,88.299,3078864
-0.0132446,-0.0514526,1.024841.09863,0.305176,0,-0.006,-0.055,2.2,-0.00297546,-0.00172424,0,0,0,0,0,41.56,88.3236,3078894
-0.0267334,-0.0454712,1.000610.549316,0.12207,-0.12207,-0.019,-0.048,2.2,-0.00297546,-0.00192261,0,0,0,0,0,41.56,88.3384,3078909
0.00164795,-0.0100708,1.00140.305176,-0.0610352,-0.12207,0.009,-0.014,2.2,-0.00297546,-0.00215149,0,0,0,0,0,41.56,88.3582,3078924
-0.0101318,0.00372314,1.013490.854492,0,-0.12207,-0.001,0,2.2,-0.00297546,-0.00215149,0,0,0,0,0,41.56,88.3777,3078940
-0.00640869,-0.000427246,1.012331.70898,-0.183105,-0.427246,0.002,-0.005,2.21,-0.00297546,-0.00215149,0,0,0,0,0,41.56,88.3979,3078969
-0.00958252,-0.00604248,1.005981.46484,-0.183105,-0.488281,-0.001,-0.01,2.21,-0.00297546,-0.00215149,0,0,0,0,0,41.56,88.4181,3078984
-0.00946045,-0.00170898,1.014531.15967,-0.0610352,-0.488281,0,-0.006,2.22,-0.00297546,-0.00215149,0,0,0,0,0,41.56,88.4381,3079000
-0.00946045,0.00109863,1.017211.40381,-0.244141,-0.366211,0,-0.004,2.23,-0.00297546,-0.00215149,0,0,0,0,0,41.56,88.4578,3079014
-0.00811768,0.00689697,1.013851.58691,-0.183105,-0.366211,0,0,2.24,-0.00297546,-0.00215149,0,0,0,0,0,41.56,88.4783,3079044
-0.0115967,-0.0147095,1.022281.2207,-0.0610352,0.0610352,-0.003,-0.02,2.24,-0.00297546,-0.00216675,0,0,0,0,0,41.56,88.4986,3079060
-0.0065918,-0.00579834,1.010381.46484,-0.183105,0.12207,0.001,-0.012,2.23,-0.00297546,-0.00221252,0,0,0,0,0,41.56,88.519,3079089
-0.0108643,0.00256348,1.025881.52588,0,0.183105,-0.002,-0.004,2.23,-0.00297546,-0.00221252,0,0,0,0,0,41.56,88.5384,3079104
-0.00878906,-0.00280762,1.01191.52588,-0.0610352,0.12207,0,-0.01,2.23,-0.00297546,-0.00221252,0,0,0,0,0,41.56,88.5583,3079120
-0.00946045,0.00970459,1.02351.70898,0,0.183105,0,0.001,2.22,-0.00297546,-0.00227356,0,0,0,0,0,41.56,88.5795,3079150
-0.00946045,-0.00549316,1.013371.58691,-0.0610352,0.12207,-0.001,-0.013,2.22,-0.00297546,-0.00230408,0,0,0,0,0,41.56,88.5997,3079165
-0.0124512,0.00195312,1.012021.70898,0.0610352,-0.0610352,-0.004,-0.006,2.22,-0.00297546,-0.00230408,0,0,0,0,0,41.56,88.6182,3079180
-0.00653076,0.000183105,1.012942.0752,0.0610352,-0.0610352,0.001,-0.009,2.22,-0.00297546,-0.00230408,0,0,0,0,0,41.56,88.6384,3079210
-0.00836182,0.000915527,1.011471.83105,-0.0610352,0,0,-0.008,2.22,-0.00297546,-0.00230408,0,0,0,0,0,41.56,88.6637,3079225
-0.00915527,0.00476074,1.014041.77002,-0.12207,0,0,-0.005,2.22,-0.00297546,-0.00230408,0,0,0,0,0,41.56,88.6783,3079240
-0.0088501,0.00341797,1.013311.83105,-0.244141,0.0610352,0,-0.007,2.22,-0.00297546,-0.00230408,0,0,0,0,0,41.56,88.6987,3079270
-0.00860596,0.00488281,1.010312.0752,-0.12207,0.0610352,0,-0.006,2.22,-0.00297546,-0.00230408,0,0,0,0,0,41.56,88.7186,3079285
-0.00952148,-0.000732422,1.011661.34277,-0.12207,0.12207,-0.001,-0.012,2.22,-0.00297546,-0.00230408,0,0,0,0,0,41.56,88.7386,3079300
-0.00964355,0.0253296,1.010440.671387,0.0610352,-0.183105,0,0.012,2.22,-0.00297546,-0.00230408,0,0,0,0,0,41.56,88.7593,3079330
-0.00817871,0.0142212,1.00873-0.0610352,-0.0610352,-0.366211,0,0.001,2.22,-0.00297546,-0.00230408,0,0,0,0,0,41.56,88.7786,3079345
0.00195312,0.0276489,1.01471-0.305176,-0.0610352,-0.183105,0.011,0.014,2.23,-0.00297546,-0.00230408,0,0,0,0,0,41.56,88.7989,3079360
-0.00543213,0.0168457,1.01166-0.488281,-0.0610352,0.244141,0.003,0.004,2.22,-0.00297546,-0.00230408,0,0,0,0,0,41.56,88.82,3079390
-0.00891113,0.00640869,1.01697-0.366211,0.0610352,0,0,-0.006,2.22,-0.00297546,-0.00230408,0,0,0,0,0,41.53,88.8385,3079405
-0.00970459,0.00561523,1.01471-0.488281,0,-0.12207,-0.001,-0.006,2.22,-0.00297546,-0.00230408,0,0,0,0,0,41.53,88.8586,3079420
-0.0154419,0.0130615,1.00671-0.549316,-0.0610352,0,-0.006,0.001,2.22,-0.00297546,-0.00230408,0,0,0,0,0,41.53,88.8783,3079450
-0.00567627,0.00299072,1.01263-0.671387,-0.305176,0,0.002,-0.008,2.22,-0.00297546,-0.00230408,0,0,0,0,0,41.53,88.8986,3079465
-0.00982666,0.00280762,1.01324-0.610352,-0.244141,0,-0.001,-0.008,2.22,-0.00297546,-0.00230408,0,0,0,0,0,41.53,88.9182,3079480
-0.00531006,0.003479,1.01788-0.793457,0.0610352,0.244141,0.002,-0.007,2.22,-0.00297546,-0.00230408,0,0,0,0,0,41.53,88.9389,3079510
-0.00323486,0.00964355,1.01129-0.915527,-0.0610352,0.305176,0.005,0,2.21,-0.00297546,-0.00230408,0,0,0,0,0,41.53,88.9585,3079525
-0.00701904,0.00292969,1.01404-0.793457,0.0610352,0.0610352,0.001,-0.007,2.2,-0.00297546,-0.00230408,0,0,0,0,0,41.53,88.9789,3079540
-0.0120239,0.000183105,1.01678-0.793457,-0.0610352,-0.12207,-0.003,-0.009,2.21,-0.00297546,-0.00230408,0,0,0,0,0,41.53,88.9986,3079570
-0.0117188,0.00463867,1.01257-0.732422,0,-0.12207,-0.003,-0.004,2.21,-0.00297546,-0.00230408,0,0,0,0,0,41.53,89.0184,3079585
-0.00933838,0.000366211,1.01025-0.793457,-0.0610352,-0.0610352,-0.001,-0.008,2.21,-0.00297546,-0.00230408,0,0,0,0,0,41.53,89.0389,3079600
-0.0114746,0.00524902,1.01367-0.854492,-0.12207,0,-0.002,-0.003,2.2,-0.00297546,-0.00230408,0,0,0,0,0,41.53,89.0605,3079630
-0.00616455,0.0010376,1.01367-0.671387,-0.183105,0.0610352,0.002,-0.007,2.2,-0.00297546,-0.00230408,0,0,0,0,0,41.53,89.0789,3079645
-0.00720215,-0.00164795,1.01379-0.610352,-0.183105,-0.12207,0,-0.009,2.2,-0.00297546,-0.00230408,0,0,0,0,0,41.53,89.0981,3079660
-0.0057373,-0.00231934,1.01263-0.427246,-0.183105,-0.366211,0.002,-0.01,2.21,-0.00297546,-0.00230408,0,0,0,0,0,41.53,89.1194,3079675
-0.00787354,6.10352e-05,1.01398-0.366211,-0.0610352,-0.12207,0,-0.007,2.21,-0.00297546,-0.00230408,0,0,0,0,0,41.53,89.1407,3079705
-0.0133667,-0.000854492,1.01837-0.305176,-0.12207,0.0610352,-0.005,-0.007,2.21,-0.00297546,-0.00230408,0,0,0,0,0,41.53,89.1589,3079720
-0.0119019,-0.00274658,1.01172-0.244141,-0.0610352,0.244141,-0.003,-0.009,2.21,-0.00297546,-0.00230408,0,0,0,0,0,41.53,89.1786,3079750
-0.00610352,0.00427246,1.0174-0.305176,0,0.0610352,0.002,-0.002,2.2,-0.00297546,-0.00230408,0,0,0,0,0,41.53,89.2001,3079765
-0.00756836,0.00286865,1.01587-0.305176,-0.183105,-0.244141,0,-0.003,2.21,-0.00297546,-0.00230408,0,0,0,0,0,41.53,89.2385,3079810
-0.00415039,0.000610352,1.0144-0.183105,-0.183105,0,0.004,-0.005,2.21,-0.00297546,-0.00230408,0,0,0,0,0,41.53,89.2575,3079825
-0.00775146,-0.00262451,1.01782-0.305176,-0.0610352,-0.0610352,0,-0.008,2.21,-0.00297546,-0.00230408,0,0,0,0,0,41.53,89.2778,3079840
-0.00793457,6.10352e-05,1.01483-0.183105,-0.0610352,0,0,-0.005,2.21,-0.00297546,-0.00230408,0,0,0,0,0,41.53,89.2988,3079855
-0.00592041,0.00170898,1.012270,0,0.0610352,0.002,-0.004,2.21,-0.00297546,-0.00230408,0,0,0,0,0,41.53,89.3182,3079885
-0.0078125,-0.00128174,1.01160,0,0.0610352,0,-0.006,2.21,-0.00297546,-0.00230408,0,0,0,0,0,41.53,89.338,3079900
-0.0111084,-0.0022583,1.01392-0.0610352,0,0.12207,-0.002,-0.007,2.2,-0.00297546,-0.00230408,0,0,0,0,0,41.57,89.3582,3079915
-0.0111694,-0.00183105,1.014470,0.0610352,-0.183105,-0.002,-0.007,2.21,-0.00297546,-0.00230408,0,0,0,0,0,41.57,89.3781,3079945
-0.00567627,0.000427246,1.010010.305176,-0.12207,0,0.002,-0.005,2.21,-0.00297546,-0.00230408,0,0,0,0,0,41.57,89.4003,3079960
-0.0111694,-0.00128174,1.010310.244141,-0.305176,-0.0610352,-0.002,-0.006,2.21,-0.00297546,-0.00230408,0,0,0,0,0,41.57,89.4179,3079975
-0.00909424,0.000732422,1.009770.305176,-0.0610352,-0.12207,0,-0.004,2.21,-0.00297546,-0.00230408,0,0,0,0,0,41.57,89.4385,3080005
-0.00585938,0.00878906,1.01270.427246,0,0,0.002,0.003,2.21,-0.00297546,-0.00230408,0,0,0,0,0,41.57,89.458,3080021
-0.00982666,-0.00109863,1.016240.305176,-0.0610352,0,-0.001,-0.006,2.21,-0.00297546,-0.00230408,0,0,0,0,0,41.57,89.4779,3080035
-0.00744629,0.00231934,1.013310.427246,0,0,0,-0.003,2.21,-0.00297546,-0.00230408,0,0,0,0,0,41.57,89.4981,3080065
-0.00817871,0.00335693,1.013980.488281,0.0610352,0.0610352,0,-0.002,2.21,-0.00297546,-0.00230408,0,0,0,0,0,41.57,89.5183,3080081
-0.00708008,0.000183105,1.014770.366211,-0.0610352,0,0.001,-0.005,2.21,-0.00297546,-0.00230408,0,0,0,0,0,41.57,89.5414,3080110
-0.00939941,0.00231934,1.010130.305176,-0.0610352,-0.0610352,-0.001,-0.003,2.21,-0.00297546,-0.00230408,0,0,0,0,0,41.57,89.5581,3080125
-0.00787354,0.00415039,1.012630.549316,0,-0.12207,0,-0.001,2.21,-0.00297546,-0.00230408,0,0,0,0,0,41.57,89.5795,3080141
-0.0129395,-0.00604248,1.016110.488281,-0.12207,0,-0.004,-0.012,2.21,-0.00297546,-0.00230408,0,0,0,0,0,41.57,89.5983,3080170
-0.00415039,0.00213623,1.010680.610352,-0.12207,0,0.004,-0.004,2.21,-0.00297546,-0.00230408,0,0,0,0,0,41.57,89.618,3080185
-0.00469971,0.00134277,1.019470.732422,-0.12207,0,0.003,-0.005,2.21,-0.00297546,-0.00230408,0,0,0,0,0,41.57,89.6391,3080201
-0.0133667,0.00476074,1.015750.854492,-0.0610352,0,-0.004,-0.001,2.21,-0.00297546,-0.00230408,0,0,0,0,0,41.57,89.6581,3080230
-0.00805664,0.00286865,1.014950.976562,0,-0.0610352,0,-0.004,2.21,-0.00297546,-0.00230408,0,0,0,0,0,41.57,89.6781,3080245
-0.00579834,0.000732422,1.011290.915527,-0.0610352,-0.0610352,0.002,-0.006,2.21,-0.00297546,-0.00230408,0,0,0,0,0,41.57,89.6992,3080261
-0.0113525,0.0055542,1.012020.976562,-0.12207,-0.183105,-0.002,-0.001,2.21,-0.00297546,-0.00230408,0,0,0,0,0,41.57,89.7182,3080290
-0.00921631,0.00756836,1.010070.976562,-0.0610352,-0.183105,0,0,2.21,-0.00297546,-0.00230408,0,0,0,0,0,41.57,89.7414,3080305
-0.00567627,0.003479,1.009090.793457,-0.12207,-0.12207,0.002,-0.004,2.21,-0.00297546,-0.00230408,0,0,0,0,0,41.57,89.759,3080321
-0.0100708,0.00775146,1.014470.549316,-0.12207,-0.0610352,-0.001,0,2.21,-0.00297546,-0.00230408,0,0,0,0,0,41.57,89.7784,3080335
-0.00622559,0.00891113,1.00970.183105,0,0,0.002,0,2.21,-0.00297546,-0.00230408,0,0,0,0,0,41.57,89.7983,3080365
-0.00494385,0.107544,1.041871.52588,0.366211,0.549316,0.007,0.098,2.21,-0.00297546,-0.00224304,0,0,0,0,0,41.57,89.818,3080381
0.0180054,0.0447388,0.9963383.66211,-0.244141,-0.0610352,0.027,0.032,2.2,-0.00294495,-0.00209045,0,0,0,0,0,41.57,89.8382,3080395
0.0183105,-0.0113525,0.970154-2.50244,-0.366211,0.305176,0.025,-0.023,2.2,-0.00291443,-0.00183105,0,0,0,0,0,41.54,89.8583,3080425
-0.00518799,0.0916748,1.0213-3.23486,0.244141,-0.244141,0.006,0.08,2.19,-0.00288391,-0.00169373,0,0,0,0,0,41.54,89.8825,3080441
-0.0234375,0.0125122,1.05231-2.19727,0.366211,0.183105,-0.014,0.002,2.2,-0.00285339,-0.00149536,0,0,0,0,0,41.54,89.8984,3080455
-0.00518799,0.00811768,1.046884.82178,0.427246,0.183105,0.003,-0.006,2.19,-0.00274658,-0.000686646,0,0,0,0,0,41.54,89.9185,3080485
-0.0264893,-0.0162354,0.9865113.17383,-0.305176,0.305176,-0.019,-0.029,2.19,-0.00270081,-0.000244141,0,0,0,0,0,41.54,89.9387,3080501
-0.0150146,0.0539551,1.02826-2.0752,0,0.0610352,-0.004,0.039,2.17,-0.00270081,0.000671387,0,0,0,0,0,41.54,89.9601,3080531
-0.0129395,0.0386353,1.02502-1.95312,-0.793457,-0.305176,-0.003,0.024,2.17,-0.00270081,0.00119019,0,0,0,0,0,41.54,89.9784,3080546
-0.00372314,0.024353,0.975525-2.13623,-0.732422,-1.40381,0.004,0.01,2.19,-0.00270081,0.0017395,0,0,0,0,0,41.54,89.9985,3080561
0.00274658,0.0483398,1.04608-0.854492,-0.244141,-1.95312,0.012,0.034,2.24,-0.00273132,0.00177002,0,0,0,0,0,41.54,90.0186,3080591
0.010498,0.0362549,1.006771.28174,-0.244141,-2.2583,0.019,0.021,2.27,-0.00273132,0.0018158,0,0,0,0,0,41.54,90.0394,3080606
-0.00775146,-0.0250244,1.032592.2583,0.305176,0.12207,-0.001,-0.04,2.3,-0.00273132,0.00202942,0,0,0,0,0,41.54,90.0619,3080636
-0.00775146,-0.0250244,1.032592.2583,0.305176,0.12207,-0.001,-0.04,2.3,-0.00273132,0.00202942,0,0,0,0,0,41.54,90.0783,3080636
0.00109863,0.135681,1.03046-0.305176,0.0610352,1.34277,0.014,0.12,2.27,-0.00273132,0.00215149,0,0,0,0,0,41.54,90.0984,3080666
-0.0133057,0.086853,1.038572.62451,0.427246,1.0376,-0.002,0.07,2.26,-0.00273132,0.00236511,0,0,0,0,0,41.54,90.1198,3080681
-0.0296021,-0.0447998,0.9966432.99072,-0.244141,-0.305176,-0.024,-0.061,2.25,-0.00274658,0.00257874,0,0,0,0,0,41.54,90.139,3080696
-0.0032959,0.0141602,0.990723-1.15967,-0.183105,-0.244141,0.004,-0.003,2.26,-0.00283813,0.00276184,0,0,0,0,0,41.54,90.1585,3080726
-0.0178223,0.0820923,1.02557-0.854492,-0.305176,0.549316,-0.006,0.064,2.25,-0.00283813,0.00280762,0,0,0,0,0,41.54,90.1786,3080741
0.00634766,0.0432739,1.03699-0.976562,-0.671387,1.2207,0.015,0.024,2.24,-0.00283813,0.00291443,0,0,0,0,0,41.54,90.1985,3080756
-0.0334473,-0.00457764,0.971252-0.0610352,-0.488281,-0.183105,-0.026,-0.021,2.24,-0.00286865,0.00318909,0,0,0,0,0,41.54,90.2188,3080786
0.0289917,0.0446777,1.02887-0.244141,-0.488281,-0.305176,0.038,0.024,2.24,-0.00288391,0.00334167,0,0,0,0,0,41.54,90.2387,3080801
-0.0120239,-0.0334473,1.017524.02832,-0.427246,-0.732422,-0.006,-0.055,2.25,-0.00288391,0.00393677,0,0,0,0,0,41.54,90.2592,3080831
0.00549316,-0.0119629,0.9968261.0376,-0.305176,-0.671387,0.011,-0.034,2.27,-0.00288391,0.00421143,0,0,0,0,0,41.54,90.2821,3080846
0.0127563,0.015564,0.989075-2.92969,-0.244141,-0.854492,0.019,-0.006,2.28,-0.00288391,0.00445557,0,0,0,0,0,41.54,90.2985,3080861
-0.0171509,0.0214233,1.06049-3.11279,0.671387,-0.183105,-0.009,0,2.28,-0.00288391,0.00500488,0,0,0,0,0,41.54,90.3206,3080891
-0.0137939,0.022522,1.04358-3.11279,1.28174,0.12207,-0.005,0.002,2.28,-0.00288391,0.0052948,0,0,0,0,0,41.54,90.3392,3080906
-0.00311279,0.00488281,1.0105-1.58691,0.427246,0.976562,0.004,-0.013,2.27,-0.00288391,0.0052948,0,0,0,0,0,41.54,90.36,3080921
-0.0428467,0.119141,1.022521.83105,-0.732422,-1.0376,-0.031,0.101,2.27,-0.00288391,0.00534058,0,0,0,0,0,41.55,90.3781,3080951
-0.0715332,0.0767212,1.062566.04248,0.12207,-0.427246,-0.06,0.057,2.28,-0.00296021,0.00550842,0,0,0,0,0,41.55,90.398,3080966
0.114441,-0.00604248,1.039925.85937,-1.70898,0,0.121,-0.034,2.28,-0.00299072,0.00569153,0,0,0,0,0,41.55,90.4179,3080981
-0.0748901,-0.0370483,0.9450684.5166,-1.28174,-1.83105,-0.07,-0.056,2.29,-0.00299072,0.0058136,0,0,0,0,0,41.55,90.4379,3080996
0.0438843,0.107727,1.01874-2.2583,-0.976562,3.35693,0.054,0.082,2.27,-0.00311279,0.00582886,0,0,0,0,0,41.55,90.4578,3081026
0.0374146,0.0186768,0.997681-2.44141,-0.366211,0.610352,0.043,-0.005,2.25,-0.00309753,0.00588989,0,0,0,0,0,41.55,90.4777,3081041
-0.06427,0.0241089,1.02362-1.46484,0.976562,0.732422,-0.057,0.004,2.24,-0.00308228,0.00588989,0,0,0,0,0,41.55,90.498,3081056
0.0740356,0.159363,1.046882.74658,0.244141,1.64795,0.085,0.133,2.17,-0.00305176,0.00598145,0,0,0,0,0,41.55,90.518,3081086
-0.109741,0.0794678,1.052927.14111,2.38037,1.34277,-0.101,0.056,2.15,-0.00300598,0.00619507,0,0,0,0,0,41.55,90.5384,3081101
-0.0264893,-0.0167847,0.9020391.95312,0.0610352,0.793457,-0.021,-0.041,2.12,-0.00294495,0.00657654,0,0,0,0,0,41.55,90.5613,3081131
-0.0159302,0.0805054,1.00085-2.44141,1.34277,-1.64795,-0.006,0.052,2.14,-0.00291443,0.00674438,0,0,0,0,0,41.55,90.5808,3081146
-0.0345459,0.130859,1.08557-3.11279,0.305176,-0.305176,-0.022,0.102,2.14,-0.00289917,0.00700378,0,0,0,0,0,41.55,90.5991,3081161
0.0102539,0.0202026,0.992981-3.23486,-0.183105,-1.95312,0.017,-0.007,2.16,-0.00288391,0.00733948,0,0,0,0,0,41.55,90.6184,3081176
0.00384521,-0.0670776,0.981018-1.89209,-1.83105,-0.488281,0.007,-0.092,2.19,-0.00289917,0.00801086,0,0,0,0,0,41.55,90.6379,3081206
-0.0532837,0.0758057,1.017580.0610352,-0.12207,-0.549316,-0.043,0.051,2.2,-0.00294495,0.00830078,0,0,0,0,0,41.55,90.6577,3081221
0.0276489,0.138367,1.034240.854492,-0.976562,0.244141,0.04,0.11,2.21,-0.00299072,0.00869751,0,0,0,0,0,41.55,90.6777,3081236
-0.0913086,-0.0592651,1.02948-0.366211,1.2207,0.427246,-0.086,-0.082,2.2,-0.00302124,0.00950623,0,0,0,0,0,41.55,90.6979,3081266
0.0995483,-0.0088501,1.03229-0.427246,-1.58691,1.58691,0.105,-0.038,2.18,-0.00305176,0.00978088,0,0,0,0,0,41.55,90.7178,3081281
0.0308228,-0.059021,1.03607-2.68555,-1.15967,1.09863,0.035,-0.084,2.17,-0.00306702,0.0101776,0,0,0,0,0,41.55,90.7385,3081311
0.0341797,0.0465698,0.977539-1.09863,0.366211,-0.854492,0.041,0.023,2.17,-0.00305176,0.0102997,0,0,0,0,0,41.55,90.7579,3081326
-0.0982056,0.151367,0.9367683.96728,1.77002,0.12207,-0.086,0.131,2.17,-0.00305176,0.0105286,0,0,0,0,0,41.55,90.7789,3081342
0.0927124,-0.00140381,1.053168.23975,-1.52588,2.01416,0.099,-0.033,2.16,-0.0030365,0.0108337,0,0,0,0,0,41.55,90.799,3081356
-0.00146484,0.111755,0.9665533.17383,-0.793457,-0.671387,0.009,0.083,2.16,-0.00306702,0.0111847,0,0,0,0,0,41.55,90.818,3081386
-0.0167847,0.0953369,1.00464-0.0610352,1.70898,-0.915527,-0.006,0.065,2.17,-0.00311279,0.0114594,0,0,0,0,0,41.55,90.8384,3081402
-0.0817261,0.0108643,1.03223-2.19727,-0.244141,-0.427246,-0.073,-0.016,2.18,-0.00320435,0.0117493,0,0,0,0,0,41.55,90.8583,3081416
-0.0494995,0.124695,0.962219-3.84521,-0.854492,1.34277,-0.037,0.099,2.2,-0.00350952,0.0122833,0,0,0,0,0,41.56,90.8813,3081446
0.0145874,0.0128784,1.01648-2.92969,-0.976562,-1.0376,0.021,-0.016,2.2,-0.00369263,0.012619,0,0,0,0,0,41.56,90.8981,3081462
-0.0524902,0.0922852,1.05133-1.0376,-1.34277,0.12207,-0.041,0.065,2.21,-0.00389099,0.0129852,0,0,0,0,0,41.56,90.9186,3081476
-0.0336914,-0.00756836,0.9403080.488281,0.366211,-0.915527,-0.027,-0.032,2.22,-0.0042572,0.0138855,0,0,0,0,0,41.56,90.9386,3081506
0.0801392,0.0244751,1.00409-0.305176,-2.56348,-1.09863,0.087,-0.005,2.23,-0.00439453,0.014328,0,0,0,0,0,41.56,90.9583,3081522
-0.081543,-0.0651855,0.98761-1.0376,1.0376,-1.64795,-0.078,-0.088,2.26,-0.00453186,0.0146942,0,0,0,0,0,41.56,90.9784,3081536
-0.0431519,-0.0362549,0.971436-2.68555,0.366211,-1.15967,-0.039,-0.058,2.29,-0.00474548,0.015213,0,0,0,0,0,41.56,90.9986,3081566
0.0744019,0.149414,1.03137-2.19727,-0.427246,-0.671387,0.086,0.121,2.29,-0.00480652,0.0154877,0,0,0,0,0,41.56,91.0183,3081582
0.015564,0.0442505,1.04059-1.28174,0.183105,0.305176,0.023,0.019,2.31,-0.00482178,0.0161285,0,0,0,0,0,41.56,91.0388,3081611
-0.0983887,-0.0198975,1.08173-1.34277,1.64795,-1.28174,-0.093,-0.04,2.32,-0.00486755,0.0164185,0,0,0,0,0,41.56,91.0586,3081626
0.0493164,0.0475464,1.0343-1.15967,-0.488281,-0.244141,0.057,0.023,2.33,-0.00494385,0.0167084,0,0,0,0,0,41.56,91.0788,3081642
-0.0355225,-0.00579834,0.9980470.0610352,-0.0610352,-0.549316,-0.029,-0.025,2.37,-0.00514221,0.0172729,0,0,0,0,0,41.56,91.0984,3081671
-0.00463867,0.00616455,1.04175-0.0610352,-1.89209,-1.89209,0.001,-0.015,2.38,-0.0052948,0.0175018,0,0,0,0,0,41.56,91.1179,3081686
0.0290527,-0.0145264,0.995728-0.244141,-1.0376,-0.671387,0.034,-0.036,2.4,-0.00541687,0.0177155,0,0,0,0,0,41.56,91.1401,3081702
-0.0128174,-0.0151367,0.9967650,-0.0610352,-1.52588,-0.008,-0.034,2.45,-0.00566101,0.0180664,0,0,0,0,0,41.56,91.1586,3081731
0.0519409,0.0861206,1.07196-0.0610352,-1.52588,-1.95312,0.06,0.062,2.46,-0.00576782,0.0182495,0,0,0,0,0,41.56,91.1789,3081746
-0.0284424,-0.0576782,0.968811-0.366211,-0.427246,-1.34277,-0.026,-0.075,2.49,-0.00582886,0.0184174,0,0,0,0,0,41.56,91.1987,3081762
-0.0361938,-0.0546875,1.02673-0.488281,0.549316,-0.0610352,-0.034,-0.073,2.49,-0.00598145,0.0184784,0,0,0,0,0,41.56,91.2237,3081791
0.0234375,-0.0478516,1.00085-2.38037,-1.83105,0.976562,0.025,-0.067,2.48,-0.006073,0.0183716,0,0,0,0,0,41.56,91.2386,3081806
-0.0222168,0.019043,0.991699-3.11279,-1.15967,0.549316,-0.017,0.002,2.48,-0.00614929,0.018219,0,0,0,0,0,41.56,91.2585,3081822
-0.0773926,-0.0491943,1.01562-2.19727,0.793457,-0.915527,-0.075,-0.062,2.48,-0.00636292,0.0181732,0,0,0,0,0,41.56,91.2788,3081852
0.0535889,0.0343628,1.05737-1.64795,-1.09863,1.70898,0.059,0.015,2.47,-0.0065155,0.0181122,0,0,0,0,0,41.56,91.2983,3081867
-0.0582886,-0.00158691,1.04138-1.28174,0.976562,0.854492,-0.054,-0.014,2.44,-0.00665283,0.0180511,0,0,0,0,0,41.56,91.3202,3081882
-0.00744629,-0.0106812,0.997253-0.488281,0.793457,2.2583,-0.003,-0.025,2.39,-0.00688171,0.0180359,0,0,0,0,0,41.56,91.339,3081912
0.0319824,0.0119629,1.021-0.0610352,-0.0610352,2.74658,0.037,-0.003,2.35,-0.00694275,0.0179901,0,0,0,0,0,41.56,91.3586,3081927
-0.00958252,-0.0043335,1.02917-0.732422,0.549316,1.28174,-0.005,-0.018,2.32,-0.00698853,0.0179443,0,0,0,0,0,41.56,91.3799,3081942
0.00854492,0.010376,0.995544-0.732422,0.0610352,0.427246,0.013,-0.003,2.27,-0.0070343,0.0179443,0,0,0,0,0,41.58,91.4015,3081972
-0.0230713,-0.00830078,0.994019-0.549316,0.976562,1.95312,-0.018,-0.019,2.24,-0.0070343,0.0179443,0,0,0,0,0,41.58,91.4188,3081987
-0.0184326,0.0106201,1.02228-1.83105,-0.366211,0.610352,-0.012,-0.001,2.22,-0.0070343,0.0179443,0,0,0,0,0,41.58,91.4391,3082002
-0.0183105,0.0134888,0.970093-1.15967,0.305176,1.2207,-0.012,0.003,2.21,-0.0070343,0.0179443,0,0,0,0,0,41.58,91.4587,3082017
-0.0337524,0.00341797,1.01398-0.244141,1.28174,1.64795,-0.027,-0.006,2.16,-0.00701904,0.0179443,0,0,0,0,0,41.58,91.4822,3082047
0.0294189,0.0172729,1.01923-0.427246,-0.549316,1.0376,0.036,0.005,2.15,-0.00700378,0.0179443,0,0,0,0,0,41.58,91.4989,3082062
0.0385132,0.0205688,0.970093-1.77002,-0.549316,-0.12207,0.045,0.009,2.12,-0.00700378,0.0179443,0,0,0,0,0,41.58,91.5188,3082092
-0.0228271,-0.00579834,0.95282-1.77002,1.70898,-0.488281,-0.016,-0.013,2.14,-0.00697327,0.0179443,0,0,0,0,0,41.58,91.5395,3082107
0.0405273,0.0419312,1.01215-0.976562,0.305176,0.549316,0.049,0.031,2.13,-0.00692749,0.0179596,0,0,0,0,0,41.58,91.5581,3082122
-0.0148926,0.00292969,1.09363-0.0610352,2.13623,-0.366211,-0.006,-0.006,2.13,-0.0068512,0.0179749,0,0,0,0,0,41.58,91.5784,3082137
-0.0575562,0.0128174,0.981812-0.183105,1.09863,-1.0376,-0.049,0.006,2.15,-0.00665283,0.0180054,0,0,0,0,0,41.58,91.5983,3082167
0.0351562,0.000183105,1.02972-0.549316,0.183105,0.732422,0.043,-0.009,2.14,-0.00657654,0.0180054,0,0,0,0,0,41.58,91.6177,3082182
-0.0701904,0.027832,1.068850,0.854492,-0.427246,-0.06,0.021,2.15,-0.00650024,0.0180206,0,0,0,0,0,41.58,91.6383,3082197
-0.0821533,0.0269165,1.020140.0610352,0.183105,-0.427246,-0.073,0.021,2.12,-0.00642395,0.0180664,0,0,0,0,0,41.58,91.6588,3082227
0.0299683,-0.0424194,1.01849-1.0376,-1.34277,-1.2207,0.036,-0.051,2.13,-0.00643921,0.0180817,0,0,0,0,0,41.58,91.6786,3082242
-0.0916748,0.0253296,1.04651-0.976562,-0.732422,-2.50244,-0.082,0.021,2.17,-0.00646973,0.0180817,0,0,0,0,0,41.58,91.6978,3082257
-0.0223999,0.0165405,0.9798580.183105,-1.15967,-1.34277,-0.014,0.01,2.21,-0.00671387,0.0180511,0,0,0,0,0,41.58,91.7178,3082287
-0.0155029,-0.0557861,1.02130.0610352,-0.610352,-0.366211,-0.009,-0.062,2.23,-0.0068512,0.0179901,0,0,0,0,0,41.58,91.7385,3082302
0.0305786,0.0131836,1.05365-0.244141,-1.40381,-1.09863,0.038,0.004,2.23,-0.00698853,0.0178986,0,0,0,0,0,41.58,91.7584,3082317
0.0123291,0.0162354,0.9202880,-1.40381,-2.13623,0.019,0.009,2.26,-0.00720215,0.0176392,0,0,0,0,0,41.58,91.7814,3082347
0.0181885,-0.0430908,0.9553830,0.244141,-1.09863,0.022,-0.05,2.29,-0.00726318,0.0174713,0,0,0,0,0,41.58,91.798,3082362
0.0057373,0.0280151,1.012450.0610352,-0.854492,-0.793457,0.013,0.021,2.3,-0.00732422,0.0172882,0,0,0,0,0,41.58,91.8182,3082377
0.0627441,0.0266724,0.955933-0.671387,-1.58691,-1.95312,0.07,0.018,2.33,-0.00744629,0.016861,0,0,0,0,0,41.58,91.8382,3082407
-0.0539551,-0.0233765,0.9592290.12207,0.12207,-0.915527,-0.048,-0.027,2.36,-0.00749207,0.0166321,0,0,0,0,0,41.58,91.8636,3082422
0.0230713,0.0196533,1.018190.244141,-1.70898,-0.305176,0.031,0.012,2.36,-0.0075531,0.0164032,0,0,0,0,0,41.58,91.8789,3082437
-0.00012207,0.026001,0.9676510.12207,-1.58691,0.427246,0.007,0.02,2.39,-0.00767517,0.0158691,0,0,0,0,0,41.56,91.898,3082467
-0.0343018,-0.0375366,1.023010,-0.244141,-0.488281,-0.029,-0.042,2.39,-0.00776672,0.0155792,0,0,0,0,0,41.56,91.9181,3082482
0.0612793,0.020752,1.054630.671387,-1.40381,-0.610352,0.068,0.011,2.4,-0.00782776,0.0152588,0,0,0,0,0,41.56,91.9384,3082497
0.0188599,0.0219116,0.9952391.52588,-0.488281,0.915527,0.025,0.014,2.43,-0.00796509,0.0145111,0,0,0,0,0,41.56,91.9587,3082527
-0.0233765,-0.0280151,1.021611.52588,0.549316,-1.09863,-0.018,-0.034,2.44,-0.00805664,0.0141144,0,0,0,0,0,41.56,91.9783,3082542
0.0648804,-0.0383301,1.097351.34277,-0.915527,0.12207,0.068,-0.048,2.44,-0.00810242,0.0136566,0,0,0,0,0,41.56,91.9981,3082557
0.0155029,-0.0192871,0.972473-0.0610352,-0.183105,0.244141,0.019,-0.026,2.44,-0.00828552,0.0125427,0,0,0,0,0,41.56,92.0183,3082587
-0.038269,-0.00415039,1.01660.0610352,0.610352,-1.40381,-0.033,-0.009,2.46,-0.00842285,0.0119476,0,0,0,0,0,41.56,92.0386,3082602
0.0372314,-0.0186768,1.086790.610352,-0.427246,0.915527,0.041,-0.027,2.46,-0.00854492,0.011322,0,0,0,0,0,41.56,92.0583,3082617
0.0599365,-0.0266113,0.9861450.671387,-0.671387,1.2207,0.063,-0.035,2.44,-0.00880432,0.010025,0,0,0,0,0,41.56,92.0793,3082647
-0.0141602,0.0206909,0.9770511.58691,0.427246,1.70898,-0.009,0.014,2.41,-0.00889587,0.00933838,0,0,0,0,0,41.56,92.0985,3082663
0.00134277,-0.00714111,1.031372.44141,0.12207,2.19727,0.005,-0.015,2.38,-0.00889587,0.00866699,0,0,0,0,0,41.56,92.1182,3082677
-0.00836182,-0.00354004,0.9677732.44141,0.0610352,3.23486,-0.003,-0.011,2.31,-0.00889587,0.00866699,0,0,0,0,0,41.56,92.1411,3082707
0.000366211,0.0147095,0.962832.44141,-0.244141,1.15967,0.005,0.005,2.28,-0.00889587,0.00866699,0,0,0,0,0,41.56,92.1588,3082723
-0.0020752,0.0770264,1.064391.46484,1.28174,2.31934,0.006,0.066,2.26,-0.00889587,0.00871277,0,0,0,0,0,41.56,92.1787,3082737
0.0239868,0.233765,0.9679571.46484,1.52588,0.976562,0.038,0.223,2.22,-0.00886536,0.00878906,0,0,0,0,0,41.56,92.1991,3082767
0.010437,-0.0362549,1.04999-1.40381,0.488281,1.09863,0.014,-0.047,2.19,-0.00881958,0.00898743,0,0,0,0,0,41.56,92.2184,3082783
-0.0213013,-0.057312,0.9606930.305176,-0.0610352,0.610352,-0.018,-0.065,2.19,-0.00875854,0.00909424,0,0,0,0,0,41.56,92.2387,3082797
-0.036377,0.0245972,1.02264-0.549316,0.671387,0,-0.029,0.016,2.17,-0.00856018,0.00924683,0,0,0,0,0,41.56,92.259,3082827
0.0463257,-0.00524902,1.03998-1.77002,0.427246,-0.488281,0.052,-0.016,2.17,-0.00842285,0.00924683,0,0,0,0,0,41.56,92.2786,3082843
0.0612183,0.0879517,0.9703981.0376,0.366211,1.40381,0.07,0.076,2.16,-0.00810242,0.00921631,0,0,0,0,0,41.56,92.3016,3082872
-0.0251465,-0.0262451,1.062561.15967,2.44141,-0.244141,-0.018,-0.035,2.16,-0.00788879,0.00924683,0,0,0,0,0,41.56,92.3188,3082887
0.0404053,0.0438232,1.006161.0376,0.12207,0.610352,0.048,0.032,2.16,-0.00767517,0.00926208,0,0,0,0,0,41.56,92.3388,3082903
-0.048584,0.00537109,0.9638061.34277,0.976562,-0.854492,-0.041,-0.002,2.16,-0.00743103,0.00930786,0,0,0,0,0,41.56,92.3585,3082917
-0.0754395,0.0307617,1.03864-1.2207,2.01416,0.610352,-0.066,0.023,2.16,-0.00692749,0.00950623,0,0,0,0,0,41.56,92.3785,3082947
0.064209,0.0385132,0.984436-1.70898,0.366211,1.09863,0.073,0.027,2.14,-0.00666809,0.00967407,0,0,0,0,0,41.56,92.3985,3082963
-0.0643311,-0.0186768,1.03992-2.0752,1.0376,-0.732422,-0.057,-0.025,2.15,-0.00639343,0.00982666,0,0,0,0,0,41.58,92.4202,3082977
-0.0576782,0.0045166,1.03406-4.5166,0.610352,-2.19727,-0.049,0,2.17,-0.00587463,0.00996399,0,0,0,0,0,41.58,92.4383,3083007
-0.00463867,-0.0299683,1.00183-5.43213,-0.366211,-0.732422,0.002,-0.034,2.18,-0.00566101,0.00993347,0,0,0,0,0,41.58,92.4585,3083023
-0.041687,0.00689697,1.02448-5.43213,0.366211,-2.01416,-0.033,0.005,2.2,-0.00544739,0.0098877,0,0,0,0,0,41.58,92.4786,3083037
0.0664062,-0.0349121,1.0072-6.34766,-0.915527,-1.28174,0.072,-0.036,2.23,-0.00512695,0.00971985,0,0,0,0,0,41.58,92.4984,3083067
-0.0721436,-0.0606689,0.97229-7.56836,1.40381,-0.488281,-0.066,-0.055,2.25,-0.00494385,0.009552,0,0,0,0,0,41.58,92.52,3083083
0.102295,-0.0117188,0.983765-9.27734,-1.58691,0.976562,0.109,-0.01,2.23,-0.00473022,0.00935364,0,0,0,0,0,41.58,92.5389,3083097
-0.0757446,-0.0552368,1.08789-9.46045,0.305176,0.366211,-0.068,-0.04,2.25,-0.00424194,0.00891113,0,0,0,0,0,41.58,92.559,3083127
0.0436401,0.0924072,0.987671-7.62939,-1.0376,0.610352,0.055,0.104,2.23,-0.00404358,0.00872803,0,0,0,0,0,41.58,92.5787,3083143
0.0115356,-0.165955,0.897766-0.671387,-0.427246,-1.09863,0.013,-0.151,2.25,-0.0037384,0.00823975,0,0,0,0,0,41.58,92.5993,3083172
-0.00213623,-0.0388184,1.054321.77002,1.2207,-0.244141,0.006,-0.021,2.26,-0.00360107,0.00778198,0,0,0,0,0,41.58,92.6192,3083188
-0.0656128,-0.0426636,0.8653563.2959,-0.366211,-0.305176,-0.058,-0.025,2.26,-0.00350952,0.00730896,0,0,0,0,0,41.58,92.6387,3083203
-0.027771,-0.170044,0.9291383.66211,-0.915527,-0.732422,-0.025,-0.153,2.27,-0.00346375,0.00671387,0,0,0,0,0,41.58,92.6585,3083218
0.0829468,-0.0427856,1.125241.09863,-2.56348,1.28174,0.091,-0.027,2.26,-0.00334167,0.00488281,0,0,0,0,0,41.58,92.6787,3083248
0.00439453,0.0888672,0.951050.671387,-1.28174,-0.671387,0.016,0.104,2.26,-0.00317383,0.00395203,0,0,0,0,0,41.58,92.6978,3083263
0.0264282,-0.0166016,1.04071-0.549316,-0.793457,-0.854492,0.035,-0.001,2.27,-0.00297546,0.00309753,0,0,0,0,0,41.58,92.7178,3083278
-0.0827026,0.0855713,0.985291-0.0610352,-0.549316,-2.86865,-0.071,0.106,2.3,-0.00248718,0.00317383,0,0,0,0,0,41.58,92.7383,3083308
0.0142212,-0.039978,1.10254-1.83105,0.732422,-0.488281,0.022,-0.02,2.32,-0.00228882,0.00331116,0,0,0,0,0,41.58,92.7579,3083323
0.0169678,0.18988,0.9945683.60107,-0.244141,0.732422,0.032,0.206,2.32,-0.00177002,0.00361633,0,0,0,0,0,41.58,92.7789,3083353
-0.119019,-0.0860596,1.02823.78418,2.44141,-0.549316,-0.114,-0.064,2.32,-0.00154114,0.00392151,0,0,0,0,0,41.58,92.7978,3083368
0.0491333,-0.0721436,0.969788-0.12207,0.488281,1.77002,0.054,-0.057,2.31,-0.00137329,0.00415039,0,0,0,0,0,41.58,92.8176,3083383
0.0393066,-0.0231934,1.011110.0610352,-1.15967,0.610352,0.046,-0.007,2.3,-0.00111389,0.0043335,0,0,0,0,0,41.58,92.8381,3083398
0.0462646,-0.0648193,0.987305-2.50244,-0.915527,1.0376,0.052,-0.047,2.29,-0.000854492,0.00456238,0,0,0,0,0,41.58,92.8583,3083428
0.020874,-0.0598755,0.945312-1.95312,-0.610352,-0.488281,0.026,-0.041,2.3,-0.000717163,0.00457764,0,0,0,0,0,41.58,92.8779,3083443
-0.0438232,-0.0791626,1.027650.244141,-1.2207,0.366211,-0.037,-0.056,2.29,-0.000579834,0.00453186,0,0,0,0,0,41.58,92.8978,3083458
0.00598145,0.00823975,1.016722.0752,0.366211,0.0610352,0.015,0.028,2.29,-0.000427246,0.00413513,0,0,0,0,0,41.55,92.9179,3083488
0.0510864,-0.0109863,1.047612.01416,-0.244141,0.305176,0.059,0.007,2.29,-0.000305176,0.00392151,0,0,0,0,0,41.55,92.9386,3083503
0.00726318,-0.0652466,1.0341.52588,-0.610352,1.34277,0.013,-0.045,2.27,-0.000137329,0.00367737,0,0,0,0,0,41.55,92.959,3083518
-0.0464478,-0.0596924,1.039490.549316,0.915527,1.40381,-0.04,-0.037,2.24,0.000213623,0.00305176,0,0,0,0,0,41.55,92.9777,3083548
0.00799561,-0.00134277,1.067810.183105,1.2207,1.34277,0.016,0.018,2.22,0.00038147,0.00270081,0,0,0,0,0,41.55,92.9981,3083563
0.0342407,-0.0494995,0.9748540.488281,0.976562,0.976562,0.04,-0.032,2.2,0.000579834,0.00233459,0,0,0,0,0,41.55,93.0182,3083578
-0.00909424,-0.0196533,1.01306-2.19727,-0.12207,1.83105,-0.001,0.001,2.14,0.0010376,0.00157166,0,0,0,0,0,41.55,93.0388,3083608
-0.0471802,-0.109619,1.03577-1.77002,1.34277,0.793457,-0.042,-0.085,2.13,0.00125122,0.00114441,0,0,0,0,0,41.55,93.0586,3083623
0.0105591,-0.0161133,1.01819-0.610352,1.09863,0.793457,0.019,0.005,2.11,0.00143433,0.000640869,0,0,0,0,0,41.55,93.0779,3083638
-0.0227661,-0.0110474,0.9904793.2959,0.0610352,-0.671387,-0.013,0.009,2.13,0.00163269,-0.000106812,0,0,0,0,0,41.55,93.0984,3083668
-0.0228271,-0.142395,1.048522.50244,-0.12207,-1.52588,-0.018,-0.12,2.14,0.00163269,-0.000518799,0,0,0,0,0,41.55,93.1206,3083683
-0.00561523,-0.0397339,1.02924-0.671387,-0.671387,-1.40381,0.002,-0.018,2.17,0.00163269,-0.0010376,0,0,0,0,0,41.55,93.1388,3083698
-0.00537109,0.0216675,1.00549-1.52588,-0.549316,-1.46484,0.005,0.043,2.21,0.00158691,-0.00210571,0,0,0,0,0,41.55,93.1586,3083728
-0.0136719,-0.0429688,1.00372-0.12207,-0.488281,-1.09863,-0.006,-0.021,2.22,0.00154114,-0.00262451,0,0,0,0,0,41.55,93.1783,3083743
0.00842285,-0.0374146,1.014890.488281,-0.244141,-1.2207,0.016,-0.016,2.24,0.00154114,-0.00315857,0,0,0,0,0,41.55,93.1981,3083758
0.0306396,-0.00927734,1.04547-1.52588,-0.12207,0.610352,0.039,0.012,2.23,0.00157166,-0.00434875,0,0,0,0,0,41.55,93.2185,3083788
-0.00756836,-0.0883789,0.993652-0.732422,0,1.58691,-0.002,-0.065,2.22,0.00161743,-0.00500488,0,0,0,0,0,41.55,93.2389,3083803
-0.0202026,-0.0348511,0.9899290.915527,0.183105,2.56348,-0.012,-0.011,2.18,0.00164795,-0.00569153,0,0,0,0,0,41.55,93.2595,3083818
-0.00634766,-0.0248413,1.012450,0.244141,1.89209,0.001,0,2.12,0.00164795,-0.00721741,0,0,0,0,0,41.55,93.2784,3083848
-0.022583,-0.0220947,0.9840091.15967,0.12207,1.0376,-0.014,0.001,2.1,0.00164795,-0.00801086,0,0,0,0,0,41.55,93.2986,3083863
-0.00793457,-0.0177002,1.027161.83105,0.183105,-0.915527,0.001,0.005,2.11,0.00164795,-0.00801086,0,0,0,0,0,41.55,93.3221,3083893
-0.0167236,-0.0205688,1.023742.19727,0.183105,-1.28174,-0.007,0.002,2.12,0.00164795,-0.00801086,0,0,0,0,0,41.55,93.3395,3083908
-0.00250244,0.0100708,1.027712.0752,-0.244141,-1.52588,0.007,0.031,2.14,0.00164795,-0.00798035,0,0,0,0,0,41.55,93.3582,3083923
-0.0119629,-0.010498,0.9941411.77002,-0.488281,-0.976562,-0.002,0.009,2.16,0.00164795,-0.00793457,0,0,0,0,0,41.55,93.3785,3083938
0.000427246,0.0057373,1.020021.77002,0,0.549316,0.01,0.025,2.17,0.00164795,-0.00778198,0,0,0,0,0,41.55,93.3985,3083968
0.010437,0.00817871,1.034422.13623,-0.305176,0.915527,0.02,0.026,2.16,0.00167847,-0.00767517,0,0,0,0,0,41.55,93.4187,3083983
-0.0178223,-0.00653076,0.9987182.50244,0.0610352,1.89209,-0.009,0.01,2.12,0.00175476,-0.00753784,0,0,0,0,0,41.52,93.4435,3084013
-0.0124512,-0.010498,1.016782.44141,0.0610352,1.64795,-0.003,0.006,2.09,0.00175476,-0.00753784,0,0,0,0,0,41.52,93.4589,3084028
-0.00756836,-0.00787354,1.018192.62451,-0.0610352,1.70898,0.001,0.007,2.06,0.00175476,-0.00753784,0,0,0,0,0,41.52,93.4785,3084044
-0.0210571,-0.0112305,1.000122.56348,0,1.52588,-0.012,0.003,2.04,0.00175476,-0.00753784,0,0,0,0,0,41.52,93.4986,3084058
-0.010376,-0.00439453,1.02353.05176,0.12207,0.12207,-0.001,0.008,2.02,0.00175476,-0.00747681,0,0,0,0,0,41.52,93.5187,3084088
-0.00866699,0.00183105,1.024843.05176,0,-0.183105,0,0.014,2.02,0.00175476,-0.00743103,0,0,0,0,0,41.52,93.5394,3084104
-0.00799561,-0.00317383,1.009583.2959,-0.244141,-0.732422,0,0.007,2.04,0.00175476,-0.00743103,0,0,0,0,0,41.52,93.5589,3084118
0.00152588,-0.0132446,1.00613.11279,0.12207,0.305176,0.009,-0.004,2.04,0.00175476,-0.00743103,0,0,0,0,0,41.52,93.5821,3084148
-0.00488281,-0.0057373,1.023013.35693,0.183105,0.549316,0.003,0.002,2.04,0.00175476,-0.00743103,0,0,0,0,0,41.52,93.5985,3084164
-0.0113525,0.0348511,0.9936522.56348,0,1.2207,-0.001,0.041,2.01,0.00175476,-0.00746155,0,0,0,0,0,41.52,93.6205,3084193
-0.00628662,-0.00128174,1.012022.0752,0.0610352,0.793457,0.002,0.004,1.99,0.00175476,-0.00746155,0,0,0,0,0,41.52,93.6467,3084208
-0.00543213,-0.0140381,1.010250.671387,-0.610352,0.671387,0.002,-0.008,1.99,0.00175476,-0.00746155,0,0,0,0,0,41.52,93.6592,3084224
-0.0117798,0.0628662,0.9998780.0610352,-0.427246,0,0,0.067,1.98,0.00175476,-0.00741577,0,0,0,0,0,41.52,93.6784,3084238
-0.00732422,0.0182495,1.01697-0.854492,-0.244141,-0.183105,0.002,0.022,1.98,0.00175476,-0.00717163,0,0,0,0,0,41.52,93.6995,3084268
0.00744629,0.0233765,1.01978-0.915527,-0.12207,-0.0610352,0.017,0.027,1.98,0.00175476,-0.00700378,0,0,0,0,0,41.52,93.7187,3084284
-0.00634766,-0.0292358,0.997681-1.58691,-0.0610352,0.0610352,0.001,-0.025,1.98,0.00175476,-0.00683594,0,0,0,0,0,41.52,93.7391,3084298
-0.00628662,-0.0358276,1.05896-4.08936,0.976562,0.305176,0.001,-0.029,1.97,0.00175476,-0.0065155,0,0,0,0,0,41.52,93.7596,3084328
-0.010437,0.00860596,1.0025-4.88281,0.12207,0.671387,-0.001,0.016,1.96,0.00175476,-0.00637817,0,0,0,0,0,41.52,93.7791,3084344
-0.0130615,-0.0163574,1.01501-5.43213,0.305176,0.976562,-0.004,-0.007,1.95,0.00175476,-0.00622559,0,0,0,0,0,41.52,93.7987,3084358
-0.0140381,-0.0130005,1.01337-9.58252,0.427246,0.305176,-0.004,0.001,1.93,0.00175476,-0.00601196,0,0,0,0,0,41.52,93.8187,3084388
-0.0268555,-0.0020752,1.00879-10.1318,0.305176,0.488281,-0.017,0.014,1.92,0.00175476,-0.00590515,0,0,0,0,0,41.52,93.839,3084404
-0.0300903,-0.184326,1.13672-7.8125,0.854492,0.732422,-0.024,-0.162,1.91,0.00172424,-0.00590515,0,0,0,0,0,41.52,93.8593,3084418
-0.00726318,-0.0172729,0.911865-0.305176,-1.2207,0.183105,0.001,0,1.89,0.00157166,-0.00588989,0,0,0,0,0,41.52,93.8795,3084448
-0.00292969,-0.170837,1.035890.12207,0.0610352,-0.732422,0.001,-0.149,1.9,0.00157166,-0.00593567,0,0,0,0,0,41.52,93.898,3084464
-0.00756836,-0.0476074,1.03113-0.549316,-0.427246,0.305176,0.001,-0.025,1.9,0.00157166,-0.00610352,0,0,0,0,0,41.52,93.9175,3084478
0.00964355,-0.0808105,1.009163.479,0.366211,0.549316,0.017,-0.059,1.89,0.00154114,-0.00657654,0,0,0,0,0,41.54,93.9404,3084508
-0.0152588,-0.0557861,1.034912.38037,0.183105,1.34277,-0.006,-0.033,1.87,0.00152588,-0.00689697,0,0,0,0,0,41.54,93.9584,3084524
-0.0178833,-0.0055542,1.002812.31934,0,1.15967,-0.008,0.015,1.85,0.00152588,-0.00723267,0,0,0,0,0,41.54,93.9778,3084539
-0.0267944,-0.0167847,1.030882.68555,0.183105,1.70898,-0.017,0.003,1.81,0.00154114,-0.00782776,0,0,0,0,0,41.54,93.9987,3084569
-0.0185547,0.0280151,0.9879763.35693,-0.305176,2.2583,-0.007,0.046,1.77,0.00154114,-0.00808716,0,0,0,0,0,41.54,94.0182,3084584
0.00134277,-0.00897217,1.020083.84521,0,2.13623,0.011,0.007,1.75,0.00154114,-0.00830078,0,0,0,0,0,41.54,94.0383,3084599
-0.00286865,-0.0163574,1.004334.45557,-0.488281,1.58691,0.006,-0.002,1.69,0.00154114,-0.00866699,0,0,0,0,0,41.54,94.0583,3084629
0.0098877,-0.0100708,0.9987793.35693,-0.488281,0.183105,0.019,0.002,1.67,0.00154114,-0.00883484,0,0,0,0,0,41.54,94.078,3084644
-0.0125122,-0.00720215,1.01633.23486,-0.488281,-0.0610352,-0.003,0.005,1.67,0.00154114,-0.00883484,0,0,0,0,0,41.54,94.0982,3084659
-0.0126343,-0.0045166,1.005983.84521,-0.12207,-0.915527,-0.003,0.005,1.7,0.00154114,-0.00875854,0,0,0,0,0,41.54,94.1175,3084689
-0.0133667,0.00823975,1.008484.45557,-0.0610352,-0.488281,-0.003,0.016,1.7,0.00154114,-0.00869751,0,0,0,0,0,41.54,94.1382,3084704
-0.00158691,0.0131836,1.029424.69971,0.12207,-0.854492,0.008,0.02,1.72,0.00154114,-0.00860596,0,0,0,0,0,41.54,94.1592,3084719
-0.0432739,0.015625,0.998232.01416,0.12207,-0.549316,-0.033,0.022,1.74,0.00158691,-0.00837708,0,0,0,0,0,41.54,94.1782,3084749
0.012085,0.0010376,1.004390.0610352,0.244141,-0.305176,0.021,0.005,1.75,0.00160217,-0.008255,0,0,0,0,0,41.54,94.1985,3084764
-0.0275879,0.0675659,1.01562-0.732422,0.183105,0.366211,-0.016,0.073,1.75,0.00161743,-0.00805664,0,0,0,0,0,41.54,94.2177,3084779
-0.0308228,0.0394897,1.00195-0.549316,-0.0610352,-0.183105,-0.02,0.044,1.75,0.00163269,-0.00744629,0,0,0,0,0,41.54,94.2388,3084809
0.00769043,0.0136108,1.01886-0.549316,-0.549316,-0.244141,0.017,0.016,1.76,0.00164795,-0.00706482,0,0,0,0,0,41.54,94.2609,3084824
-0.0307617,-0.00445557,1.0141-0.854492,-0.0610352,0.366211,-0.021,0,1.75,0.00166321,-0.00668335,0,0,0,0,0,41.54,94.2778,3084839
0.0088501,0.00720215,1.01398-1.0376,-0.183105,1.28174,0.018,0.011,1.71,0.00166321,-0.00668335,0,0,0,0,0,41.54,94.2989,3084869
-0.00769043,-0.0128784,1.01941-1.09863,-0.244141,0.915527,0,-0.008,1.7,0.00166321,-0.00668335,0,0,0,0,0,41.54,94.3187,3084884
-0.00726318,-0.00244141,1.00806-1.09863,-0.183105,0.732422,0.001,0.002,1.68,0.00166321,-0.00668335,0,0,0,0,0,41.54,94.3406,3084899
-0.0170288,0.00958252,1.01434-2.13623,0.244141,-0.366211,-0.007,0.015,1.68,0.00166321,-0.00668335,0,0,0,0,0,41.54,94.3588,3084929
-0.00762939,0.0010376,1.0174-2.31934,0.366211,-0.366211,0.001,0.007,1.69,0.00166321,-0.00668335,0,0,0,0,0,41.54,94.3778,3084944
-0.000793457,0.0161743,1.0097-1.83105,0.0610352,-0.488281,0.008,0.022,1.7,0.00166321,-0.00665283,0,0,0,0,0,41.54,94.3979,3084959
-0.0065918,0.00946045,1.02026-1.40381,0.305176,0.244141,0.003,0.016,1.69,0.00166321,-0.00656128,0,0,0,0,0,41.54,94.4189,3084989
0.00390625,-0.00146484,1.01099-1.64795,-0.0610352,0,0.013,0.005,1.69,0.00166321,-0.00656128,0,0,0,0,0,41.54,94.4387,3085004
-0.00610352,-0.00158691,1.01038-2.31934,-0.305176,-0.12207,0.003,0.006,1.69,0.00166321,-0.00656128,0,0,0,0,0,41.55,94.4593,3085019
-0.00512695,0.000366211,1.01495-2.2583,-0.12207,-0.183105,0.004,0.009,1.7,0.00166321,-0.00656128,0,0,0,0,0,41.55,94.4783,3085049
-0.00634766,0.0010376,1.01831-2.01416,-0.0610352,0.366211,0.003,0.01,1.69,0.00166321,-0.00656128,0,0,0,0,0,41.55,94.4985,3085064
-0.00427246,-0.0137329,1.01379-2.13623,-0.244141,0.366211,0.004,-0.003,1.68,0.00166321,-0.00656128,0,0,0,0,0,41.55,94.519,3085079
-0.0160522,-0.0193481,1.01843-2.50244,0.0610352,0.793457,-0.007,-0.007,1.67,0.00166321,-0.00656128,0,0,0,0,0,41.55,94.539,3085109
-0.00683594,0.003479,1.01569-2.38037,0.12207,0.671387,0.002,0.015,1.65,0.00166321,-0.00656128,0,0,0,0,0,41.55,94.5585,3085124
-0.00848389,-0.00933838,1.01276-2.44141,0.0610352,0.671387,0,0.003,1.65,0.00166321,-0.00656128,0,0,0,0,0,41.55,94.5781,3085139
-0.0239258,-0.0078125,1.02155-2.0752,0.12207,0.305176,-0.014,0.006,1.63,0.00166321,-0.00656128,0,0,0,0,0,41.55,94.5988,3085169
-0.0140381,-0.00628662,1.01239-2.01416,0.0610352,0.12207,-0.004,0.007,1.63,0.00166321,-0.00656128,0,0,0,0,0,41.55,94.6183,3085184
-0.026123,-0.043457,1.04303-1.46484,0.366211,-0.183105,-0.017,-0.028,1.63,0.00166321,-0.00657654,0,0,0,0,0,41.55,94.6391,3085199
-0.00994873,-0.0148315,0.981262-0.488281,-0.427246,-0.671387,0,0,1.64,0.00166321,-0.00663757,0,0,0,0,0,41.55,94.6589,3085229
-0.0088501,-0.02948,1.017030.366211,-0.0610352,-0.671387,0,-0.014,1.65,0.00166321,-0.00663757,0,0,0,0,0,41.55,94.6781,3085244
-0.0088501,-0.0374756,1.020630.366211,-0.183105,-1.0376,0,-0.022,1.66,0.00166321,-0.00665283,0,0,0,0,0,41.55,94.6987,3085259
0.00146484,-0.0101318,1.017270.732422,0,-0.854492,0.01,0.004,1.69,0.00166321,-0.0067749,0,0,0,0,0,41.55,94.7181,3085289
-0.0088501,-0.0103149,1.013790.671387,0.12207,-0.488281,0,0.004,1.7,0.00166321,-0.0067749,0,0,0,0,0,41.55,94.7386,3085304
-0.0045166,-0.0103149,1.00970.732422,0.0610352,-0.244141,0.004,0.004,1.7,0.00166321,-0.0067749,0,0,0,0,0,41.55,94.759,3085319
-0.00189209,-0.00946045,1.013490.671387,0.0610352,0.793457,0.007,0.004,1.69,0.00166321,-0.0067749,0,0,0,0,0,41.55,94.7784,3085349
-0.0192871,-0.0012207,1.006710.976562,0.0610352,0.854492,-0.009,0.013,1.67,0.00166321,-0.0067749,0,0,0,0,0,41.55,94.7986,3085364
-0.0250854,-0.0164795,1.015750.793457,0.0610352,1.34277,-0.015,-0.002,1.66,0.00166321,-0.0067749,0,0,0,0,0,41.55,94.8183,3085379
-0.0170288,-0.0125122,1.0050.366211,-0.183105,0.915527,-0.007,0.001,1.63,0.00166321,-0.0067749,0,0,0,0,0,41.55,94.8388,3085409
-0.0119629,0.00970459,1.010310.610352,-0.366211,0.488281,-0.001,0.022,1.62,0.00166321,-0.00675964,0,0,0,0,0,41.55,94.8608,3085425
-0.0197144,-0.00939941,1.021850.915527,-0.427246,0.12207,-0.01,0.003,1.61,0.00166321,-0.00672913,0,0,0,0,0,41.55,94.8787,3085439
0.00128174,-0.0111694,1.008970.427246,-0.427246,-0.732422,0.01,0,1.62,0.00166321,-0.00668335,0,0,0,0,0,41.55,94.9034,3085469
-0.00372314,-0.00683594,1.020690.366211,-0.12207,-0.671387,0.005,0.005,1.63,0.00166321,-0.00668335,0,0,0,0,0,41.55,94.9245,3085485
-0.0067749,0.00274658,1.022950.244141,0.12207,-0.366211,0.002,0.014,1.64,0.00166321,-0.00668335,0,0,0,0,0,41.55,94.9386,3085499
-0.00689697,-0.00695801,1.015260.427246,0.183105,0.12207,0.002,0.004,1.64,0.00166321,-0.00668335,0,0,0,0,0,41.55,94.9585,3085529
-0.0109253,-0.00653076,1.013980.183105,0.0610352,0.12207,-0.001,0.004,1.64,0.00166321,-0.00668335,0,0,0,0,0,41.55,94.9825,3085545
-0.0130005,-0.0043335,1.01178-0.12207,0.0610352,0.12207,-0.003,0.006,1.64,0.00166321,-0.00668335,0,0,0,0,0,41.55,94.9988,3085559
-0.0126953,-0.0022583,1.01343-0.244141,0,0.183105,-0.003,0.008,1.63,0.00166321,-0.00668335,0,0,0,0,0,41.55,95.0189,3085589
-0.0144653,-0.00543213,1.01178-0.244141,-0.183105,0.244141,-0.005,0.005,1.62,0.00166321,-0.00668335,0,0,0,0,0,41.55,95.0388,3085605
-0.00866699,-0.00640869,1.01672-0.366211,-0.366211,0.0610352,0,0.004,1.62,0.00166321,-0.00668335,0,0,0,0,0,41.55,95.066,3085634
-0.00512695,-0.00201416,1.01685-0.427246,-0.366211,0,0.004,0.009,1.62,0.00166321,-0.00668335,0,0,0,0,0,41.55,95.0792,3085649
-0.0032959,-0.00567627,1.01178-0.671387,-0.183105,-0.0610352,0.005,0.005,1.62,0.00166321,-0.00668335,0,0,0,0,0,41.55,95.0987,3085665
-0.00238037,-0.00518799,1.01538-0.732422,-0.0610352,-0.12207,0.006,0.005,1.62,0.00166321,-0.00668335,0,0,0,0,0,41.55,95.1203,3085679
-0.00653076,-0.00518799,1.00848-0.793457,-0.0610352,0.0610352,0.002,0.006,1.62,0.00166321,-0.00668335,0,0,0,0,0,41.55,95.138,3085709
-0.0108032,-0.00921631,1.01422-0.976562,0.12207,0,-0.001,0.002,1.62,0.00166321,-0.00668335,0,0,0,0,0,41.55,95.1578,3085725
-0.00683594,-0.0105591,1.01532-0.915527,0.12207,0.0610352,0.002,0.001,1.62,0.00166321,-0.00668335,0,0,0,0,0,41.55,95.1782,3085739
-0.0110474,-0.00292969,1.01001-0.976562,0.0610352,-0.0610352,-0.001,0.009,1.62,0.00166321,-0.00668335,0,0,0,0,0,41.55,95.1982,3085754
-0.0129395,-0.00610352,1.00928-0.793457,-0.244141,0,-0.003,0.006,1.62,0.00166321,-0.00668335,0,0,0,0,0,41.55,95.2183,3085785
-0.0186157,-0.0117188,1.00073-0.305176,-0.427246,-0.244141,-0.009,0.001,1.62,0.00166321,-0.00668335,0,0,0,0,0,41.55,95.2383,3085799
-0.0098877,-0.0217285,1.02271-0.0610352,-0.305176,-0.366211,0,-0.008,1.62,0.00166321,-0.00668335,0,0,0,0,0,41.55,95.259,3085829
-0.0067749,-0.0268555,1.00696-0.0610352,-0.305176,-0.549316,0.001,-0.013,1.63,0.00166321,-0.00668335,0,0,0,0,0,41.55,95.2778,3085845
-0.00775146,-0.0167847,1.013490.244141,-0.12207,-0.549316,0.001,-0.003,1.64,0.00166321,-0.00668335,0,0,0,0,0,41.55,95.298,3085859
-0.00311279,-0.0147705,1.007930.366211,0.0610352,-0.12207,0.005,-0.002,1.65,0.00166321,-0.00668335,0,0,0,0,0,41.55,95.3183,3085890
-0.000793457,-0.00817871,1.015690.305176,0.12207,0.244141,0.008,0.004,1.65,0.00166321,-0.00668335,0,0,0,0,0,41.55,95.3386,3085905
-0.000732422,-0.00518799,1.018370.244141,0.12207,0.366211,0.008,0.007,1.64,0.00166321,-0.00668335,0,0,0,0,0,41.55,95.358,3085920
-0.00787354,-0.000366211,1.015750.12207,0.244141,0.732422,0.001,0.012,1.62,0.00166321,-0.00668335,0,0,0,0,0,41.55,95.3782,3085950
-0.0158691,-0.00231934,1.011960.12207,0.0610352,0.488281,-0.006,0.01,1.61,0.00166321,-0.00668335,0,0,0,0,0,41.55,95.3986,3085965
-0.00946045,-0.00671387,1.013240,-0.12207,0.305176,0,0.005,1.6,0.00166321,-0.00668335,0,0,0,0,0,41.55,95.4184,3085980
-0.012146,-0.00616455,1.01215-0.305176,-0.427246,-0.488281,-0.002,0.006,1.61,0.00166321,-0.00668335,0,0,0,0,0,41.55,95.4383,3086010
-0.00408936,-0.00219727,1.01318-0.183105,-0.244141,-0.427246,0.005,0.009,1.62,0.00166321,-0.00668335,0,0,0,0,0,41.55,95.4581,3086025
-0.00842285,-0.0733032,1.03235-0.915527,-0.366211,-1.89209,0,-0.06,1.63,0.00166321,-0.00671387,0,0,0,0,0,41.53,95.4801,3086040
0.0112915,-0.0450439,0.998291-2.31934,-0.549316,-0.610352,0.019,-0.031,1.7,0.00166321,-0.0070343,0,0,0,0,0,41.53,95.4989,3086070
-0.0608521,-0.12085,1.03552-2.0752,-0.183105,-1.46484,-0.054,-0.102,1.72,0.00163269,-0.00730896,0,0,0,0,0,41.53,95.5183,3086085
0.0198364,-0.0222168,0.987183-1.15967,-0.366211,-0.183105,0.028,-0.006,1.72,0.00160217,-0.00765991,0,0,0,0,0,41.53,95.5385,3086100
-0.0189209,-0.067627,1.0342.92969,-0.427246,1.15967,-0.011,-0.05,1.7,0.00158691,-0.00846863,0,0,0,0,0,41.53,95.559,3086130
-0.00219727,-0.122925,1.031860.12207,-0.244141,0.793457,0.003,-0.105,1.69,0.00158691,-0.00900269,0,0,0,0,0,41.53,95.578,3086145
-0.0244751,-0.0177612,0.992737-1.15967,-0.12207,0.732422,-0.016,0,1.67,0.00158691,-0.00961304,0,0,0,0,0,41.53,95.5986,3086160
-0.00219727,-0.0281372,1.02557-1.2207,0.305176,-0.671387,0.006,-0.009,1.68,0.0014801,-0.0102234,0,0,0,0,0,41.53,95.6179,3086190
-0.0209961,-0.0869141,1.01019-1.52588,-0.244141,-0.549316,-0.014,-0.066,1.69,0.00140381,-0.0102844,0,0,0,0,0,41.53,95.639,3086205
-0.0161743,0.0150146,0.991211-1.15967,-0.244141,-0.610352,-0.006,0.035,1.69,0.00140381,-0.0103455,0,0,0,0,0,41.53,95.658,3086220
-0.0150146,-0.0643921,1.0081.89209,-0.183105,-0.0610352,-0.007,-0.044,1.7,0.00140381,-0.0105286,0,0,0,0,0,41.53,95.6805,3086250
-0.0378418,-0.0741577,1.028380.854492,-0.671387,-0.0610352,-0.03,-0.052,1.7,0.00137329,-0.0107117,0,0,0,0,0,41.53,95.6983,3086265
0.00750732,-0.059021,1.03101-1.34277,-0.366211,-0.305176,0.015,-0.037,1.71,0.00134277,-0.0109558,0,0,0,0,0,41.53,95.7181,3086280
0.00415039,-0.0251465,1.051570,-0.305176,0.183105,0.012,-0.003,1.7,0.00132751,-0.0112152,0,0,0,0,0,41.53,95.7386,3086310
-0.00830078,-0.102295,1.02655-0.610352,-0.305176,-1.28174,-0.002,-0.079,1.71,0.00132751,-0.0112762,0,0,0,0,0,41.53,95.7581,3086325
0.0153809,-0.0206299,0.993469-2.0752,-0.427246,-0.671387,0.023,0.001,1.73,0.00134277,-0.0113831,0,0,0,0,0,41.53,95.7785,3086340
-0.00512695,-0.0126343,0.981140.976562,0.366211,-0.183105,0.003,0.009,1.75,0.00140381,-0.0115051,0,0,0,0,0,41.53,95.8015,3086370
-0.0252686,-0.046814,0.9753420.915527,-0.12207,-0.12207,-0.017,-0.023,1.75,0.00140381,-0.0115509,0,0,0,0,0,41.53,95.8186,3086385
0.00671387,-0.00408936,1.04419-0.854492,0.12207,-0.732422,0.015,0.02,1.75,0.00140381,-0.0116119,0,0,0,0,0,41.53,95.8391,3086400
-0.00213623,-0.0722046,0.987183-0.976562,0.366211,-0.366211,0.004,-0.048,1.77,0.00140381,-0.0117798,0,0,0,0,0,41.53,95.8588,3086430
-0.0127563,-0.0022583,1.010931.89209,0.0610352,0,-0.003,0.022,1.77,0.00140381,-0.0119019,0,0,0,0,0,41.53,95.8785,3086445
0.0182495,-0.0899048,1.02571.64795,-0.732422,0.0610352,0.024,-0.066,1.77,0.00141907,-0.0120544,0,0,0,0,0,41.53,95.8992,3086460
0.00146484,0.0197144,0.9780881.09863,-0.610352,-0.12207,0.011,0.041,1.77,0.00143433,-0.012558,0,0,0,0,0,41.53,95.9183,3086490
-0.0032959,-0.185669,1.02252-2.56348,-0.488281,-0.0610352,0,-0.161,1.77,0.00143433,-0.0128937,0,0,0,0,0,41.53,95.939,3086505
0.0366821,0.00299072,1.05981-3.54004,-0.732422,-0.549316,0.046,0.028,1.78,0.00146484,-0.0133362,0,0,0,0,0,41.53,95.9584,3086520
-0.00512695,-0.0212402,0.94281-0.366211,-0.305176,-1.70898,0.002,0.003,1.79,0.0015564,-0.0139618,0,0,0,0,0,41.54,95.979,3086550
0.0341187,-0.178589,1.067750.12207,-0.305176,-0.732422,0.037,-0.151,1.8,0.00163269,-0.0143585,0,0,0,0,0,41.54,96.002,3086565
-0.0473022,0.0459595,1.04840.0610352,-0.183105,-0.793457,-0.037,0.075,1.81,0.00169373,-0.0147858,0,0,0,0,0,41.54,96.0206,3086580
0.0090332,-0.0289917,0.9531250.366211,-0.244141,-1.2207,0.016,-0.003,1.83,0.00175476,-0.0151825,0,0,0,0,0,41.54,96.0388,3086595
0.0480957,-0.0255737,1.13696-1.34277,0.488281,-1.2207,0.056,0.003,1.86,0.00187683,-0.0160675,0,0,0,0,0,41.54,96.0587,3086625
-0.0238037,-0.0819702,0.933411-3.60107,1.0376,-2.44141,-0.018,-0.054,1.9,0.00198364,-0.016571,0,0,0,0,0,41.54,96.0782,3086640
-0.00457764,-0.0715332,1.127081.28174,1.2207,-0.488281,0.002,-0.039,1.94,0.00230408,-0.0176239,0,0,0,0,0,41.54,96.0987,3086670
-0.064209,-0.0893555,0.9487920,-0.305176,0.427246,-0.058,-0.059,1.93,0.00245667,-0.018219,0,0,0,0,0,41.54,96.1188,3086685
-0.0482178,-0.0220947,0.9544070.854492,-0.183105,-0.0610352,-0.039,0.007,1.93,0.00253296,-0.0188599,0,0,0,0,0,41.54,96.1413,3086700
-0.0174561,-0.103088,1.02576-0.732422,-0.793457,-0.427246,-0.011,-0.072,1.92,0.00273132,-0.0200958,0,0,0,0,0,41.54,96.1587,3086730
-0.00732422,-0.065979,0.975647-0.854492,-0.671387,-1.46484,0,-0.037,1.93,0.00282288,-0.020813,0,0,0,0,0,41.54,96.1791,3086746
0.00616455,-0.0475464,0.978210.244141,-0.793457,-1.34277,0.013,-0.019,1.94,0.00311279,-0.0219421,0,0,0,0,0,41.54,96.2028,3086775
-0.0317383,-0.0604248,1.068050.549316,0.549316,-1.15967,-0.024,-0.028,1.97,0.00328064,-0.0224915,0,0,0,0,0,41.54,96.2247,3086790
-0.00335693,0.027832,1.049380.915527,0.610352,-0.366211,0.007,0.057,1.96,0.00341797,-0.0230255,0,0,0,0,0,41.54,96.2388,3086806
0.0203247,-0.117798,0.987732-1.83105,-0.305176,-1.83105,0.025,-0.09,1.98,0.00358582,-0.0235748,0,0,0,0,0,41.54,96.2599,3086820
0.0229492,-0.0662842,1.02191-3.05176,0.854492,-0.915527,0.03,-0.035,2.01,0.00379944,-0.0242157,0,0,0,0,0,41.54,96.2779,3086835
-0.0249634,-0.153503,1.033870.183105,0.549316,-1.0376,-0.02,-0.121,2.03,0.0042572,-0.0254822,0,0,0,0,0,41.54,96.3003,3086866
-0.0445557,-0.0751343,0.9748541.58691,0.915527,0.305176,-0.037,-0.043,2.03,0.00444031,-0.0262299,0,0,0,0,0,41.54,96.3186,3086880
0.00842285,-0.0247192,1.014531.40381,-0.12207,1.28174,0.017,0.006,2.03,0.00471497,-0.0277557,0,0,0,0,0,41.54,96.3383,3086910
-0.0405884,-0.0662842,1.069030.793457,-1.15967,-0.610352,-0.032,-0.031,2.02,0.00482178,-0.0285034,0,0,0,0,0,41.54,96.3579,3086926
0.0384521,0.0366821,1.003231.40381,0.183105,0.793457,0.049,0.066,2.01,0.00495911,-0.0292358,0,0,0,0,0,41.54,96.3777,3086940
-0.0131836,0.000854492,1.00470.671387,-0.366211,-0.0610352,-0.003,0.031,2.03,0.00512695,-0.0308228,0,0,0,0,0,41.54,96.3979,3086970
0.0313721,-0.050415,1.022160.366211,0.427246,-1.28174,0.039,-0.021,2.03,0.00515747,-0.0316315,0,0,0,0,0,41.54,96.418,3086986
0.0481567,-0.0125122,1.07147-0.732422,-0.183105,-0.0610352,0.057,0.017,2.05,0.00524902,-0.0324402,0,0,0,0,0,41.54,96.4405,3087000
-0.0117798,-0.0325317,1.003911.15967,-0.0610352,-2.44141,-0.003,-0.003,2.12,0.00541687,-0.0341034,0,0,0,0,0,41.54,96.4586,3087030
-0.067749,-0.0263672,0.9822393.35693,2.56348,-1.34277,-0.059,0.003,2.14,0.00543213,-0.0349426,0,0,0,0,0,41.54,96.4778,3087046
0.0238647,0.0108643,1.003910.366211,0.427246,0.549316,0.034,0.037,2.16,0.00532532,-0.0366821,0,0,0,0,0,41.53,96.5045,3087075
-0.0784912,-0.0472412,1.00104-0.732422,-1.0376,0.854492,-0.07,-0.016,2.16,0.00524902,-0.0375366,0,0,0,0,0,41.53,96.5193,3087090
0.0137939,0.0626831,0.971619-1.15967,-0.793457,2.68555,0.025,0.089,2.12,0.00514221,-0.0383606,0,0,0,0,0,41.53,96.5429,3087106
-0.0667114,-0.0895996,1.0033-1.28174,-0.854492,0.12207,-0.059,-0.059,2.11,0.00500488,-0.0391541,0,0,0,0,0,41.53,96.558,3087120
-0.0220947,0.0808105,0.958740.12207,-1.28174,1.2207,-0.01,0.108,2.03,0.00483704,-0.0407104,0,0,0,0,0,41.53,96.5795,3087150
0.00238037,-0.0869751,1.00336-0.0610352,-1.2207,1.2207,0.008,-0.059,2.02,0.00483704,-0.0414124,0,0,0,0,0,41.53,96.5977,3087166
0.0223999,-0.0216064,0.9819341.52588,-0.732422,-0.427246,0.03,0.004,2.01,0.00486755,-0.0421448,0,0,0,0,0,41.53,96.6183,3087180
0.0289917,-0.012207,1.034731.2207,0,-2.2583,0.037,0.014,2.06,0.00500488,-0.0421448,0,0,0,0,0,41.53,96.6391,3087210
-0.0115967,-0.105591,1.0625-0.183105,-1.09863,-2.86865,-0.007,-0.077,2.1,0.00511169,-0.0421906,0,0,0,0,0,41.53,96.6587,3087226
-0.0496826,0.12793,0.9370730.915527,0.12207,-1.77002,-0.037,0.154,2.13,0.00517273,-0.0421906,0,0,0,0,0,41.53,96.6782,3087241
0.0350342,0.0789795,1.02795-0.610352,0.732422,-3.2959,0.045,0.104,2.22,0.00523376,-0.0420227,0,0,0,0,0,41.53,96.6992,3087271
-0.0808105,0.0116577,0.969421-0.976562,-0.671387,-3.84521,-0.073,0.04,2.28,0.00524902,-0.0418396,0,0,0,0,0,41.53,96.7182,3087286
0.0889893,-0.0113525,1.004460.183105,0.183105,-2.62451,0.096,0.011,2.32,0.00527954,-0.0416107,0,0,0,0,0,41.53,96.7386,3087301
-0.121582,-0.143311,1.04341.34277,0.854492,-2.80762,-0.119,-0.111,2.36,0.0052948,-0.0414581,0,0,0,0,0,41.53,96.7583,3087316
0.0213013,-0.00402832,0.967712-0.915527,-0.854492,-0.305176,0.028,0.02,2.39,0.0052948,-0.0413361,0,0,0,0,0,41.53,96.7785,3087346
0.0223999,-0.0591431,1.04645-1.77002,-2.56348,-0.549316,0.027,-0.032,2.41,0.00537109,-0.041275,0,0,0,0,0,41.53,96.7982,3087361
-0.00567627,0.00292969,0.966614-0.671387,-0.0610352,-0.671387,0.001,0.028,2.41,0.00544739,-0.0412292,0,0,0,0,0,41.53,96.8179,3087376
0.0569458,0.0234985,0.9791260.0610352,-0.0610352,-0.488281,0.064,0.046,2.43,0.00559998,-0.0411072,0,0,0,0,0,41.53,96.8396,3087406
-0.0227661,0.00866699,0.987183-0.12207,-1.77002,-1.83105,-0.015,0.034,2.47,0.00572205,-0.0409851,0,0,0,0,0,41.53,96.8585,3087421
0.0313721,0.0428467,1.049560.671387,0.488281,-0.183105,0.039,0.068,2.47,0.00585938,-0.040802,0,0,0,0,0,41.53,96.8785,3087436
-0.000732422,0.0375366,1.079161.0376,1.89209,-1.77002,0.008,0.064,2.54,0.00616455,-0.0402222,0,0,0,0,0,41.53,96.9013,3087466
-0.012207,-0.00500488,1.016361.34277,1.40381,-3.23486,-0.006,0.02,2.58,0.00616455,-0.0398407,0,0,0,0,0,41.53,96.9191,3087481
-0.0473022,-0.0165405,1.00989-0.183105,1.52588,-2.50244,-0.04,0.009,2.64,0.00611877,-0.0394592,0,0,0,0,0,41.53,96.9393,3087511
0.000488281,-0.0302734,1.00403-1.58691,0.732422,-1.0376,0.006,-0.006,2.66,0.00605774,-0.0394592,0,0,0,0,0,41.53,96.9583,3087526
-0.0707397,-0.0825195,0.987305-0.671387,0.427246,-2.74658,-0.066,-0.055,2.73,0.00592041,-0.0393372,0,0,0,0,0,41.53,96.9839,3087556
-0.0108643,0.00787354,0.9778440.793457,0.793457,-1.0376,-0.002,0.032,2.74,0.00576782,-0.0392761,0,0,0,0,0,41.5,96.9983,3087571
-0.0421753,-0.0951538,0.9537350.427246,-0.244141,-0.671387,-0.038,-0.07,2.76,0.00561523,-0.0392609,0,0,0,0,0,41.5,97.0188,3087586
0.0671387,-0.0450439,0.961487-0.366211,-0.488281,0.671387,0.073,-0.025,2.76,0.00546265,-0.0392914,0,0,0,0,0,41.5,97.0395,3087601
0.0271606,-0.0355835,1.060671.09863,1.0376,0.488281,0.035,-0.012,2.76,0.00531006,-0.0392456,0,0,0,0,0,41.5,97.0587,3087631
0.015564,-0.15686,1.03662-1.77002,-0.244141,-1.2207,0.017,-0.133,2.77,0.00527954,-0.0393066,0,0,0,0,0,41.5,97.0792,3087646
0.00372314,0.0476074,1.00256-0.0610352,1.58691,0.183105,0.015,0.07,2.77,0.00526428,-0.0393982,0,0,0,0,0,41.5,97.0985,3087661
0.0245972,-0.0736694,1.04614-0.854492,0.793457,-0.0610352,0.03,-0.05,2.79,0.00527954,-0.0393219,0,0,0,0,0,41.5,97.1187,3087691
0.00610352,0.0363159,1.03113-0.732422,-0.854492,-0.854492,0.017,0.059,2.79,0.00532532,-0.0392456,0,0,0,0,0,41.5,97.1394,3087706
-0.027771,-0.00158691,1.014650.610352,-0.244141,-0.12207,-0.018,0.023,2.8,0.00538635,-0.0391235,0,0,0,0,0,41.5,97.1585,3087721
-0.0678711,0.0296631,0.9956671.34277,-0.244141,-1.40381,-0.056,0.055,2.8,0.00538635,-0.0389404,0,0,0,0,0,41.5,97.179,3087736
-0.00708008,-0.0462036,1.065250.671387,0.427246,-0.366211,0,-0.022,2.79,0.00537109,-0.0385132,0,0,0,0,0,41.5,97.1987,3087766
-0.0310059,-0.153259,0.9697270.427246,0.488281,-0.671387,-0.029,-0.13,2.81,0.00535583,-0.0384064,0,0,0,0,0,41.5,97.2198,3087781
0.00811768,-0.0969238,0.9945680.488281,-0.0610352,-2.13623,0.013,-0.076,2.84,0.00540161,-0.0381927,0,0,0,0,0,41.5,97.2391,3087811
0.0975342,0.0927734,1.035710.610352,-0.488281,-1.09863,0.112,0.108,2.86,0.00553894,-0.0380554,0,0,0,0,0,41.5,97.2593,3087826
-0.00518799,-0.0856934,0.9571530.366211,-0.0610352,-0.915527,0,-0.066,2.88,0.00575256,-0.0378876,0,0,0,0,0,41.5,97.2787,3087841
-0.00427246,-0.0358887,1.052190.305176,0.305176,0.305176,0.004,-0.015,2.88,0.00595093,-0.0374603,0,0,0,0,0,41.5,97.2987,3087871
-0.00793457,0.0153198,1.00183-0.427246,0.366211,1.09863,0.003,0.034,2.87,0.00595093,-0.0371857,0,0,0,0,0,41.5,97.3194,3087886
-0.0101929,0.0432129,1.01538-0.244141,-1.40381,0.12207,0.002,0.062,2.87,0.00595093,-0.0368652,0,0,0,0,0,41.5,97.3391,3087901
-0.0626831,-0.0285645,1.024780.12207,-0.671387,0.427246,-0.053,-0.005,2.84,0.00590515,-0.0361938,0,0,0,0,0,41.5,97.3577,3087931
-0.0129395,0.0562744,1.005681.40381,-0.915527,1.52588,0,0.075,2.82,0.00582886,-0.0358124,0,0,0,0,0,41.5,97.3776,3087946
0.010498,0.0970459,0.9455571.46484,-2.92969,-0.305176,0.023,0.114,2.81,0.00576782,-0.0353241,0,0,0,0,0,41.5,97.3987,3087961
-0.0455322,-0.0609741,0.948425-0.549316,-1.83105,-1.34277,-0.04,-0.042,2.83,0.00563049,-0.0342407,0,0,0,0,0,41.5,97.4182,3087991
-0.00286865,0.0362549,1.013181.2207,-1.40381,-0.793457,0.006,0.054,2.84,0.00553894,-0.0337067,0,0,0,0,0,41.5,97.4397,3088006
-0.0343018,-0.029541,1.06415-0.549316,-0.976562,-1.15967,-0.027,-0.009,2.86,0.00541687,-0.0331421,0,0,0,0,0,41.5,97.4579,3088021
0.0361328,-0.0446167,0.996338-1.0376,-1.40381,-1.89209,0.041,-0.029,2.89,0.00532532,-0.032608,0,0,0,0,0,41.5,97.4781,3088036
0.0172119,0.0212402,0.991577-1.46484,-0.915527,-2.74658,0.025,0.038,2.98,0.00509644,-0.0315247,0,0,0,0,0,41.5,97.4981,3088066
-0.00268555,0.00323486,0.9323730.854492,0,-3.479,0.004,0.02,3.02,0.00500488,-0.0309296,0,0,0,0,0,41.51,97.5181,3088081
0.0522461,0.0116577,1.059270.427246,-0.305176,-0.671387,0.06,0.027,3.08,0.00482178,-0.0296936,0,0,0,0,0,41.51,97.5392,3088111
-0.0213013,0.00476074,0.978394-0.0610352,-0.305176,-2.44141,-0.013,0.022,3.11,0.004776,-0.0290375,0,0,0,0,0,41.51,97.5596,3088127
0.0345459,-0.0396729,0.96344-0.793457,-0.0610352,-0.671387,0.039,-0.024,3.14,0.00473022,-0.0283966,0,0,0,0,0,41.51,97.5778,3088141
-0.0177612,-0.0404663,0.949036-0.915527,-0.244141,-1.2207,-0.012,-0.022,3.16,0.00471497,-0.0270081,0,0,0,0,0,41.51,97.5979,3088171
0.00384521,0.0282593,1.00989-0.0610352,-0.732422,-1.52588,0.013,0.046,3.19,0.00471497,-0.0262909,0,0,0,0,0,41.51,97.618,3088187
-0.00457764,-0.00231934,1.044310.854492,0.183105,-0.793457,0.002,0.016,3.19,0.00471497,-0.025528,0,0,0,0,0,41.51,97.6399,3088201
-0.0636597,-0.0131226,1.028021.09863,1.58691,-3.05176,-0.056,0.008,3.23,0.00468445,-0.025528,0,0,0,0,0,41.51,97.6582,3088216
-0.0169067,-0.0903931,1.06097-0.244141,0.915527,-2.01416,-0.014,-0.071,3.29,0.00468445,-0.0254669,0,0,0,0,0,41.51,97.6778,3088247
-0.0235596,0.0221558,0.9807130.305176,-0.12207,-1.89209,-0.015,0.04,3.32,0.00468445,-0.0254822,0,0,0,0,0,41.51,97.6987,3088261
-0.0616455,-0.0396729,1.04022-0.427246,1.83105,-1.28174,-0.056,-0.018,3.35,0.00463867,-0.0254059,0,0,0,0,0,41.51,97.7227,3088291
-0.00848389,0.00750732,1.05182-1.70898,0.732422,-0.0610352,0,0.026,3.36,0.00456238,-0.0253601,0,0,0,0,0,41.51,97.7422,3088307
-0.00915527,-0.0587158,1.03491-0.793457,1.46484,-1.40381,-0.004,-0.039,3.37,0.00447083,-0.0253296,0,0,0,0,0,41.51,97.7584,3088321
-0.0233154,0.0460815,0.9599610.549316,0.488281,-0.488281,-0.012,0.064,3.38,0.00447083,-0.0252838,0,0,0,0,0,41.51,97.7783,3088336
-0.0536499,-0.0361328,1.040281.64795,1.34277,-1.28174,-0.046,-0.015,3.4,0.00445557,-0.0251617,0,0,0,0,0,41.51,97.7979,3088367
0.0211792,0.0114746,0.9540411.0376,0.610352,-0.854492,0.03,0.026,3.42,0.00442505,-0.025116,0,0,0,0,0,41.51,97.8183,3088381
0.0306396,-0.0112305,0.9987180.793457,0.427246,-0.915527,0.039,0.004,3.44,0.0043335,-0.025177,0,0,0,0,0,41.51,97.8381,3088411
0.00811768,-0.0394897,0.9976810.549316,-0.12207,-1.2207,0.014,-0.022,3.46,0.00431824,-0.0252686,0,0,0,0,0,41.51,97.8582,3088427
0.00836182,-0.0835571,1.036991.0376,1.2207,-0.427246,0.012,-0.066,3.47,0.00431824,-0.0254059,0,0,0,0,0,41.51,97.8782,3088441
0.0560303,0.0203247,0.951111-0.488281,-1.15967,0.0610352,0.066,0.033,3.47,0.00442505,-0.0256195,0,0,0,0,0,41.51,97.8979,3088471
-0.0342407,-0.00762939,1.00470.488281,-0.488281,-0.671387,-0.025,0.011,3.47,0.00453186,-0.0256653,0,0,0,0,0,41.51,97.9176,3088487
-0.00769043,0.110291,0.9836431.34277,-0.793457,0.488281,0.009,0.126,3.47,0.00463867,-0.0256195,0,0,0,0,0,41.51,97.9388,3088501
0.00531006,-0.0456543,0.941528-0.488281,-0.366211,0.610352,0.012,-0.03,3.44,0.00473022,-0.0253601,0,0,0,0,0,41.51,97.9583,3088531
-0.0282593,0.0392456,1.066830.854492,1.2207,0.610352,-0.015,0.057,3.44,0.00473022,-0.025238,0,0,0,0,0,41.51,97.9783,3088547
0.0134888,0.103088,0.9705811.52588,-0.488281,-0.610352,0.029,0.116,3.45,0.00474548,-0.0249786,0,0,0,0,0,41.51,97.9983,3088561
-0.00341797,-0.0374146,0.9980472.2583,0.671387,-2.0752,0.004,-0.022,3.47,0.004776,-0.0246735,0,0,0,0,0,41.51,98.0189,3088576
-0.0328369,0.0057373,1.038270.732422,0.976562,-0.549316,-0.022,0.022,3.5,0.00485229,-0.0240173,0,0,0,0,0,41.51,98.041,3088607
-0.0147095,-0.00634766,0.986267-0.366211,0.12207,-0.671387,-0.004,0.008,3.52,0.00486755,-0.0236511,0,0,0,0,0,41.51,98.0584,3088622
0.0612183,0.0328369,0.986145-1.0376,-0.244141,0.305176,0.073,0.042,3.52,0.00492859,-0.0232544,0,0,0,0,0,41.51,98.0785,3088637
0.0440674,-0.0345459,1.01904-0.793457,-0.671387,-0.549316,0.052,-0.023,3.51,0.00515747,-0.0221405,0,0,0,0,0,41.51,98.0985,3088667
-0.0980225,-0.138855,0.9823610.488281,0.671387,0.366211,-0.095,-0.119,3.51,0.00524902,-0.0216522,0,0,0,0,0,41.51,98.119,3088682
0.0292969,0.000976562,1.05255-0.305176,-1.52588,-0.976562,0.04,0.012,3.52,0.00544739,-0.0206451,0,0,0,0,0,41.51,98.1384,3088712
-0.0479736,-0.0623779,1.027951.64795,-0.427246,-1.0376,-0.041,-0.046,3.53,0.00556946,-0.0201416,0,0,0,0,0,41.51,98.1588,3088727
-0.0291138,0.0258179,1.071230.366211,0.12207,-0.610352,-0.016,0.04,3.54,0.00564575,-0.0196381,0,0,0,0,0,41.51,98.1806,3088742
-0.0264282,0.00579834,1.036320.305176,-0.0610352,-0.549316,-0.015,0.019,3.58,0.0057373,-0.0186157,0,0,0,0,0,41.51,98.199,3088772
-0.0055542,-0.0618896,1.013370.305176,0.0610352,-2.2583,0,-0.049,3.61,0.0057373,-0.0181274,0,0,0,0,0,41.51,98.2182,3088787
-0.0634766,-0.0599365,1.01521.09863,0.610352,-3.41797,-0.057,-0.044,3.72,0.00567627,-0.0166626,0,0,0,0,0,41.51,98.2653,3088832
-0.0442505,-0.0171509,1.033571.09863,1.34277,-2.80762,-0.035,-0.002,3.77,0.00556946,-0.0161896,0,0,0,0,0,41.51,98.2783,3088848
-0.0751953,-0.0629272,1.06268-0.183105,0,-1.77002,-0.069,-0.046,3.8,0.00540161,-0.0157471,0,0,0,0,0,41.51,98.2984,3088862
-0.0663452,-0.0515747,1.02338-0.915527,-0.671387,-2.19727,-0.059,-0.035,3.88,0.00494385,-0.0148468,0,0,0,0,0,41.51,98.319,3088892
-0.0485229,-0.112488,1.09229-0.12207,-0.183105,-0.549316,-0.045,-0.097,3.89,0.00460815,-0.0144806,0,0,0,0,0,41.51,98.3388,3088907
-0.1427,-0.00726318,0.9517823.17383,-0.610352,-2.56348,-0.133,0.012,3.92,0.00416565,-0.0141754,0,0,0,0,0,41.51,98.3591,3088922
0.0543213,-0.0686646,1.09955-0.488281,-1.40381,-1.2207,0.06,-0.061,3.95,0.0032196,-0.0142059,0,0,0,0,0,41.51,98.3787,3088952
0.00439453,-0.119507,1.126772.0752,-0.0610352,-2.2583,0.006,-0.109,4,0.00231934,-0.0144196,0,0,0,0,0,41.51,98.4108,3088982
0.00439453,-0.119507,1.126772.0752,-0.0610352,-2.2583,0.006,-0.109,4,0.00231934,-0.0144196,0,0,0,0,0,41.51,98.4215,3088982
-0.0153198,0.0229492,0.9743651.58691,-0.549316,-0.549316,-0.004,0.032,4.02,0.00231934,-0.0146332,0,0,0,0,0,41.51,98.44,3088997
-0.0410767,-0.0358276,1.038760.183105,-0.244141,-1.0376,-0.033,-0.024,4.07,0.00239563,-0.0153503,0,0,0,0,0,41.51,98.4828,3089042
-0.0195312,0.0221558,0.963928-0.488281,0.244141,0.183105,-0.008,0.031,4.07,0.00242615,-0.0155792,0,0,0,0,0,41.51,98.4938,3089057
-0.0288086,-0.00579834,0.998047-0.12207,0.244141,-1.15967,-0.019,0.004,4.09,0.00242615,-0.0158081,0,0,0,0,0,41.51,98.5134,3089072
0.00415039,0.039978,1.074580.915527,0.549316,1.0376,0.018,0.047,4.07,0.00242615,-0.015976,0,0,0,0,0,41.51,98.5221,3089087
-0.0518188,-0.0169678,1.056520.305176,-0.610352,-0.0610352,-0.041,-0.005,4.07,0.00241089,-0.0161285,0,0,0,0,0,41.5,98.5386,3089102
-0.0465088,0.0133057,1.0528-0.244141,-0.793457,0.183105,-0.034,0.024,4.05,0.00231934,-0.0164032,0,0,0,0,0,41.5,98.5626,3089132
-0.00512695,0.06073,1.031740.427246,-0.305176,1.2207,0.009,0.068,4.03,0.00224304,-0.016449,0,0,0,0,0,41.5,98.5776,3089147
-0.0281982,-0.0112915,0.9948120.366211,-0.610352,-0.305176,-0.018,-0.002,4.03,0.00218201,-0.0164642,0,0,0,0,0,41.5,98.5985,3089162
0.0359497,0.0593262,0.9737550.976562,-0.671387,0.366211,0.049,0.062,4.03,0.00212097,-0.0164337,0,0,0,0,0,41.5,98.6176,3089177
0.050415,0.0246582,0.964355-0.915527,-0.12207,0.549316,0.061,0.027,4.03,0.00202942,-0.0163116,0,0,0,0,0,41.5,98.6381,3089207
-0.0299072,0.0175171,0.984497-0.854492,-0.488281,-0.671387,-0.019,0.026,4.04,0.0019989,-0.0162201,0,0,0,0,0,41.5,98.6586,3089222
-0.0265503,0.00524902,1.0285-0.12207,0.793457,0.671387,-0.016,0.013,4.03,0.00195312,-0.0161133,0,0,0,0,0,41.5,98.6781,3089237
0.0311279,0.0123901,0.968872-0.976562,0.183105,0.305176,0.041,0.016,4.03,0.0019989,-0.0161133,0,0,0,0,0,41.5,98.6985,3089267
0.00445557,0.0297241,1.06464-1.40381,0.671387,-1.0376,0.017,0.036,4.04,0.0020752,-0.0160675,0,0,0,0,0,41.5,98.7189,3089282
