accel_x,accel_y,accel_z,gyro_x,gyro_y,gyro_z,x,y,z,left_encoder_rate,right_encoder_rate,left_input,right_input,fpga time,navx time
     0,0,0,0,0,0,0,0,0,0,0,-0.0078125,0.03125,837.248,0
     0,0,0,0,0,0,0,0,0,0,0,-0.0078125,0.03125,837.272,0
     0,0,0,0,0,0,0,0,0,0,0,-0.0078125,0.03125,837.289,0
     0,0,0,0,0,0,0,0,0,0,0,-0.0078125,0.03125,837.306,0
     0,0,0,0,0,0,0,0,0,0,0,-0.0078125,0.03125,837.329,0
     0,0,0,0,0,0,0,0,0,0,0,-0.0078125,0.03125,837.346,0
     0,0,0,0,0,0,0,0,0,0,0,-0.0078125,0.03125,837.367,0
     0,0,0,0,0,0,0,0,0,0,0,-0.0078125,0.03125,837.393,0
     0,0,0,0,0,0,0,0,0,0,0,-0.0078125,0.03125,837.406,0
     0,0,0,0,0,0,0,0,0,0,0,-0.0078125,0.03125,837.427,0
     0,0,0,0,0,0,0,0,0,0,0,-0.0078125,0.03125,837.447,0
     0,0,0,0,0,0,0,0,0,0,0,-0.0078125,0.03125,837.467,0
     0,0,0,0,0,0,0,0,0,0,0,-0.0078125,0.03125,837.487,0
     0,0,0,0,0,0,0,0,0,0,0,-0.0078125,0.03125,837.507,0
     0,0,0,0,0,0,0,0,0,0,0,-0.0078125,0.03125,837.527,0
     0,0,0,0,0,0,0,0,0,0,0,-0.0078125,0.03125,837.547,0
     0,0,0,0,0,0,0,0,0,0,0,-0.0078125,0.03125,837.57,0
     0,0,0,0,0,0,0,0,0,0,0,-0.0078125,0.03125,837.593,0
     0,0,0,0,0,0,0,0,0,0,0,-0.0078125,0.03125,837.607,0
     0,0,0,0,0,0,0,0,0,0,0,-0.0078125,0.03125,837.626,0
     0,0,0,0,0,0,0,0,0,0,0,-0.0078125,0.03125,837.647,0
     0,0,0,0,0,0,0,0,0,0,0,-0.0078125,0.03125,837.666,0
     0,0,0,0,0,0,0,0,0,0,0,-0.0078125,0.03125,837.687,0
     0,0,0,0,0,0,0,0,0,0,0,-0.0078125,0.03125,837.707,0
     0,0,0,0,0,0,0,0,0,0,0,-0.0078125,0.03125,837.727,0
     0,0,0,0,0,0,0,0,0,0,0,-0.0078125,0.03125,837.746,0
     0,0,0,0,0,0,0,0,0,0,0,-0.0078125,0.03125,837.767,0
     0,0,0,0,0,0,0,0,0,0,0,-0.0078125,0.03125,837.787,0
     0,0,0,0,0,0,0,0,0,0,0,-0.0078125,0.03125,837.807,0
     0,0,0,0,0,0,0,0,0,0,0,-0.0078125,0.03125,837.827,0
     0,0,0,0,0,0,0,0,0,0,0,-0.0078125,0.03125,837.847,0
     0,0,0,0,0,0,0,0,0,0,0,-0.0078125,0.03125,837.867,0
     0,0,0,0,0,0,0,0,0,0,0,-0.0078125,0.03125,837.887,0
     0,0,0,0,0,0,0,0,0,0,0,-0.0078125,0.03125,837.907,0
     0,0,0,0,0,0,0,0,0,0,0,-0.0078125,0.03125,837.948,0
     0,0,0,0,0,0,0,0,0,0,0,-0.0078125,0.03125,837.95,0
     0,0,0,0,0,0,0,0,0,0,0,-0.0078125,0.03125,837.966,0
     0,0,0,0,0,0,0,0,0,0,0,-0.0078125,0.03125,837.988,0
     0,0,0,0,0,0,0,0,0,0,0,-0.0078125,0.03125,838.006,0
     0,0,0,0,0,0,0,0,0,0,0,-0.0078125,0.03125,838.026,0
     0,0,0,0,0,0,0,0,0,0,0,-0.0078125,0.03125,838.053,0
     0,0,0,0,0,0,0,0,0,0,0,-0.0078125,0.03125,838.068,0
     0,0,0,0,0,0,0,0,0,0,0,-0.0078125,0.03125,838.087,0
     0,0,0,0,0,0,0,0,0,0,0,-0.0078125,0.03125,838.107,0
     0,0,0,0,0,0,0,0,0,0,0,-0.0078125,0.03125,838.127,0
     0,0,0,0,0,0,0,0,0,0,0,-0.0078125,0.03125,838.147,0
     0,0,0,0,0,0,0,0,0,0,0,-0.0078125,0.03125,838.167,0
     0,0,0,0,0,0,0,0,0,0,0,-0.0078125,0.03125,838.187,0
     0,0,0,0,0,0,0,0,0,0,0,-0.0078125,0.03125,838.207,0
     0,0,0,0,0,0,0,0,0,0,0,-0.0078125,0.03125,838.227,0
     0,0,0,0,0,0,0,0,0,0,0,-0.0078125,0.03125,838.248,0
     0,0,0,0,0,0,0,0,0,0,0,-0.0078125,0.03125,838.267,0
     0,0,0,0,0,0,0,0,0,0,0,-0.0078125,0.03125,838.287,0
     0,0,0,0,0,0,0,0,0,0,0,-0.0078125,0.03125,838.307,0
     0,0,0,0,0,0,0,0,0,0,0,-0.0078125,0.03125,838.327,0
     0,0,0,0,0,0,0,0,0,0,0,-0.0078125,0.03125,838.347,0
     0,0,0,0,0,0,0,0,0,0,0,-0.0078125,0.03125,838.367,0
     0,0,0,0,0,0,0,0,0,0,0,-0.0078125,0.03125,838.386,0
     0,0,0,0,0,0,0,0,0,0,0,-0.0078125,0.03125,838.407,0
     0,0,0,0,0,0,0,0,0,0,0,-0.0078125,0.03125,838.427,0
     0,0,0,0,0,0,0,0,0,0,0,-0.0078125,0.03125,838.447,0
     0,0,0,0,0,0,0,0,0,0,0,-0.0078125,0.03125,838.468,0
     0,0,0,0,0,0,0,0,0,0,0,-0.0078125,0.03125,838.492,0
     0,0,0,0,0,0,0,0,0,0,0,-0.0078125,0.03125,838.507,0
     0,0,0,0,0,0,0,0,0,0,0,-0.0078125,0.03125,838.528,0
     0,0,0,0,0,0,0,0,0,0,0,-0.0078125,0.03125,838.547,0
     0,0,0,0,0,0,0,0,0,0,0,-0.0078125,0.03125,838.567,0
     0,0,0,0,0,0,0,0,0,0,-0.596047,-0.0078125,0.03125,838.587,0
     0,0,0,0,0,0,0,0,0,127.523,-53.3264,-0.0078125,0.03125,838.607,0
     0,0,0,0,0,0,0,0,0,116.805,-54.8225,-0.0078125,0.03125,838.628,0
     0,0,0,0,0,0,0,0,0,126.262,-86.4581,-0.0078125,0.03125,838.646,0
     0,0,0,0,0,0,0,0,0,151.38,-147.323,-0.0078125,0.03125,838.667,0
     0,0,0,0,0,0,0,0,0,188.239,-175.382,-0.0078125,0.03125,838.687,0
     0,0,0,0,0,0,0,0,0,218.469,-223.137,-0.0078125,0.03125,838.707,0
     0,0,0,0,0,0,0,0,0,231.104,-268.9,-0.0078125,0.03125,838.727,0
     0,0,0,0,0,0,0,0,0,268.991,-255.268,-0.0078125,0.03125,838.747,0
     0,0,0,0,0,0,0,0,0,283.503,-297.146,-0.0078125,0.03125,838.766,0
     0,0,0,0,0,0,0,0,0,307.825,-263.602,-0.0078125,0.03125,838.786,0
     0,0,0,0,0,0,0,0,0,270.94,-285.018,-0.0078125,0.03125,838.806,0
     0,0,0,0,0,0,0,0,0,308.923,-393.941,-0.0078125,0.03125,838.828,0
     0,0,0,0,0,0,0,0,0,348.014,-327.853,-0.0078125,0.03125,838.86,0
     0,0,0,0,0,0,0,0,0,334.001,-359.758,-0.0078125,0.03125,838.866,0
     0,0,0,0,0,0,0,0,0,345.054,-360.633,-0.0078125,0.03125,838.886,0
     0,0,0,0,0,0,0,0,0,339.749,-352.69,-0.0078125,0.03125,838.914,0
     0,0,0,0,0,0,0,0,0,362.897,-417.153,-0.0078125,0.03125,838.926,0
     0,0,0,0,0,0,0,0,0,356.805,-340.559,-0.0078125,0.03125,838.947,0
     0,0,0,0,0,0,0,0,0,379.586,-457.655,-0.0078125,0.03125,838.967,0
     0,0,0,0,0,0,0,0,0,375.523,-369.932,-0.0078125,0.03125,838.987,0
     0,0,0,0,0,0,0,0,0,390.488,-425.523,-0.0078125,0.03125,839.007,0
     0,0,0,0,0,0,0,0,0,402.852,-338.141,-0.0078125,0.03125,839.027,0
     0,0,0,0,0,0,0,0,0,441.608,-496.635,-0.0078125,0.03125,839.047,0
     0,0,0,0,0,0,0,0,0,416.745,-388.674,-0.0078125,0.03125,839.066,0
     0,0,0,0,0,0,0,0,0,434.065,-427.661,-0.0078125,0.03125,839.086,0
     0,0,0,0,0,0,0,0,0,432.62,-465.962,-0.0078125,0.03125,839.106,0
     0,0,0,0,0,0,0,0,0,415.377,-501.291,-0.0078125,0.03125,839.141,0
     0,0,0,0,0,0,0,0,0,417.014,-352.125,-0.0078125,0.03125,839.15,0
     0,0,0,0,0,0,0,0,0,399.968,-387.935,-0.0078125,0.03125,839.167,0
     0,0,0,0,0,0,0,0,0,414.079,-429.682,-0.0078125,0.03125,839.19,0
     0,0,0,0,0,0,0,0,0,462.749,-419.445,-0.0078125,0.03125,839.207,0
     0,0,0,0,0,0,0,0,0,415.87,-423.092,-0.0078125,0.03125,839.227,0
     0,0,0,0,0,0,0,0,0,412.235,-437.369,-0.0078125,0.03125,839.247,0
     0,0,0,0,0,0,0,0,0,385.929,-388.387,-0.0078125,0.03125,839.267,0
     0,0,0,0,0,0,0,0,0,413.591,-467.596,-0.0078125,0.03125,839.286,0
     0,0,0,0,0,0,0,0,0,409.299,-417.467,-0.0078125,0.03125,839.306,0
     0,0,0,0,0,0,0,0,0,370.817,-386.056,-0.0078125,0.03125,839.327,0
     0,0,0,0,0,0,0,0,0,422.449,-363.187,-0.0078125,0.03125,839.354,0
     0,0,0,0,0,0,0,0,0,415.481,-421.674,-0.0078125,0.03125,839.371,0
     0,0,0,0,0,0,0,0,0,358.674,-474.631,-0.0078125,0.03125,839.386,0
     0,0,0,0,0,0,0,0,0,471.954,-402.804,-0.0078125,0.03125,839.407,0
     0,0,0,0,0,0,0,0,0,383.597,-406.413,-0.0078125,0.03125,839.427,0
     0,0,0,0,0,0,0,0,0,392.326,-436.824,-0.0078125,0.03125,839.446,0
     0,0,0,0,0,0,0,0,0,394.252,-430.969,-0.0078125,0.03125,839.467,0
     0,0,0,0,0,0,0,0,0,427.396,-390.495,-0.0078125,0.03125,839.491,0
     0,0,0,0,0,0,0,0,0,395.765,-436.996,-0.0078125,0.03125,839.507,0
     0,0,0,0,0,0,0,0,0,350.085,-363.881,-0.0078125,0.03125,839.526,0
     0,0,0,0,0,0,0,0,0,403.226,-430.311,-0.0078125,0.03125,839.547,0
     0,0,0,0,0,0,0,0,0,383.7,-403.063,-0.0078125,0.03125,839.567,0
     0,0,0,0,0,0,0,0,0,418.436,-437.092,-0.0078125,0.03125,839.588,0
     0,0,0,0,0,0,0,0,0,384.919,-369.713,-0.0078125,0.03125,839.607,0
     0,0,0,0,0,0,0,0,0,393.02,-464.781,-0.0078125,0.03125,839.629,0
     0,0,0,0,0,0,0,0,0,370.652,-400.521,-0.0078125,0.03125,839.647,0
     0,0,0,0,0,0,0,0,0,409.928,-365.123,-0.0078125,0.03125,839.667,0
     0,0,0,0,0,0,0,0,0,392.026,-355.505,-0.0078125,0.03125,839.687,0
     0,0,0,0,0,0,0,0,0,396.401,-347.971,-0.0078125,0.03125,839.707,0
     0,0,0,0,0,0,0,0,0,401.76,-447.848,-0.0078125,0.03125,839.727,0
     0,0,0,0,0,0,0,0,0,406.984,-389.772,-0.0078125,0.03125,839.747,0
     0,0,0,0,0,0,0,0,0,428.954,-458.547,-0.0078125,0.03125,839.766,0
     0,0,0,0,0,0,0,0,0,429.83,-443.361,-0.0078125,0.03125,839.787,0
     0,0,0,0,0,0,0,0,0,430.719,-434.339,-0.0078125,0.03125,839.807,0
     0,0,0,0,0,0,0,0,0,397.377,-438.395,-0.0078125,0.03125,839.827,0
     0,0,0,0,0,0,0,0,0,440.956,-429.415,-0.0078125,0.03125,839.847,0
     0,0,0,0,0,0,0,0,0,397.78,-404.114,-0.0078125,0.03125,839.867,0
     0,0,0,0,0,0,0,0,0,426.485,-412.831,-0.0078125,0.03125,839.887,0
     0,0,0,0,0,0,0,0,0,395.953,-423.675,-0.0078125,0.03125,839.906,0
     0,0,0,0,0,0,0,0,0,413.326,-420.398,-0.0078125,0.03125,839.926,0
     0,0,0,0,0,0,0,0,0,382.234,-420.53,-0.0078125,0.03125,839.946,0
     0,0,0,0,0,0,0,0,0,410.694,-271.85,-0.0078125,0.03125,839.967,0
     0,0,0,0,0,0,0,0,0,432.059,-425.36,-0.0078125,0.03125,839.987,0
     0,0,0,0,0,0,0,0,0,434.084,-494.328,-0.0078125,0.03125,840.007,0
     0,0,0,0,0,0,0,0,0,413.796,-391.635,-0.0078125,0.03125,840.027,0
     0,0,0,0,0,0,0,0,0,428.596,-452.366,-0.0078125,0.03125,840.047,0
     0,0,0,0,0,0,0,0,0,426.448,-438.068,-0.0078125,0.03125,840.069,0
     0,0,0,0,0,0,0,0,0,459.802,-449.045,-0.0078125,0.03125,840.086,0
     0,0,0,0,0,0,0,0,0,422.378,-395.304,-0.0078125,0.03125,840.107,0
     0,0,0,0,0,0,0,0,0,433.069,-466.875,-0.0078125,0.03125,840.126,0
     0,0,0,0,0,0,0,0,0,376.025,-415.913,-0.0078125,0.03125,840.146,0
     0,0,0,0,0,0,0,0,0,463.349,-456.538,-0.0078125,0.03125,840.167,0
     0,0,0,0,0,0,0,0,0,374.981,-401.937,-0.0078125,0.03125,840.187,0
     0,0,0,0,0,0,0,0,0,423.236,-421.647,-0.0078125,0.03125,840.207,0
     0,0,0,0,0,0,0,0,0,414.379,-427.15,-0.0078125,0.03125,840.227,0
     0,0,0,0,0,0,0,0,0,466.81,-430.385,-0.0078125,0.03125,840.247,0
     0,0,0,0,0,0,0,0,0,446.798,-405.573,-0.0078125,0.03125,840.267,0
     0,0,0,0,0,0,0,0,0,439.686,-389.56,-0.0078125,0.03125,840.286,0
     0,0,0,0,0,0,0,0,0,443.607,-419.296,-0.0078125,0.03125,840.308,0
     0,0,0,0,0,0,0,0,0,378.251,-456.527,-0.0078125,0.03125,840.326,0
     0,0,0,0,0,0,0,0,0,423.621,-428.366,-0.0078125,0.03125,840.346,0
     0,0,0,0,0,0,0,0,0,455.581,-467.093,-0.0078125,0.03125,840.366,0
     0,0,0,0,0,0,0,0,0,423.271,-411.21,-0.0078125,0.03125,840.386,0
     0,0,0,0,0,0,0,0,0,412.848,-400.786,-0.0078125,0.03125,840.407,0
     0,0,0,0,0,0,0,0,0,379.111,-329.707,-0.0078125,0.03125,840.427,0
     0,0,0,0,0,0,0,0,0,422.94,-417.458,-0.0078125,0.03125,840.447,0
     0,0,0,0,0,0,0,0,0,400.256,-363.306,-0.0078125,0.03125,840.467,0
     0,0,0,0,0,0,0,0,0,432.414,-410.164,-0.0078125,0.03125,840.487,0
     0,0,0,0,0,0,0,0,0,380.019,-384.667,-0.0078125,0.03125,840.507,0
     0,0,0,0,0,0,0,0,0,410.181,-401.735,-0.0078125,0.03125,840.526,0
     0,0,0,0,0,0,0,0,0,397.062,-377.102,-0.0078125,0.03125,840.547,0
     0,0,0,0,0,0,0,0,0,448.591,-278.629,-0.0078125,0.03125,840.568,0
     0,0,0,0,0,0,0,0,0,353.07,-459.358,-0.0078125,0.03125,840.587,0
     0,0,0,0,0,0,0,0,0,-142.048,-530.124,-0.0078125,0.03125,840.607,0
     0,0,0,0,0,0,0,0,0,-86.6311,-453.515,-0.0078125,0.03125,840.627,0
     0,0,0,0,0,0,0,0,0,-66.9889,-512.479,-0.0078125,0.03125,840.646,0
     0,0,0,0,0,0,0,0,0,-43.9455,-409.76,-0.0078125,0.03125,840.667,0
     0,0,0,0,0,0,0,0,0,-47.8569,-485.166,-0.0078125,0.03125,840.687,0
     0,0,0,0,0,0,0,0,0,-43.1323,-412.933,-0.0078125,0.03125,840.707,0
     0,0,0,0,0,0,0,0,0,-73.0543,-433.924,-0.0078125,0.03125,840.726,0
     0,0,0,0,0,0,0,0,0,-109.107,-389.643,-0.0078125,0.03125,840.747,0
     0,0,0,0,0,0,0,0,0,-112.856,-453.556,-0.0078125,0.03125,840.767,0
     0,0,0,0,0,0,0,0,0,-120.544,-388.825,-0.0078125,0.03125,840.788,0
     0,0,0,0,0,0,0,0,0,-121.263,-389.628,-0.0078125,0.03125,840.807,0
     0,0,0,0,0,0,0,0,0,-133.559,-418.323,-0.0078125,0.03125,840.827,0
     0,0,0,0,0,0,0,0,0,-182.04,-407.523,-0.0078125,0.03125,840.846,0
     0,0,0,0,0,0,0,0,0,-201.327,-411.336,-0.0078125,0.03125,840.866,0
     0,0,0,0,0,0,0,0,0,-180.615,-460.49,-0.0078125,0.03125,840.887,0
     0,0,0,0,0,0,0,0,0,-210.055,-403.266,-0.0078125,0.03125,840.906,0
     0,0,0,0,0,0,0,0,0,-219.58,-430.784,-0.0078125,0.03125,840.927,0
     0,0,0,0,0,0,0,0,0,-243.356,-367.857,-0.0078125,0.03125,840.947,0
     0,0,0,0,0,0,0,0,0,-232.566,-398.645,-0.0078125,0.03125,840.967,0
     0,0,0,0,0,0,0,0,0,-231.758,-393.67,-0.0078125,0.03125,840.987,0
     0,0,0,0,0,0,0,0,0,-277.493,-377.074,-0.0078125,0.03125,841.007,0
     0,0,0,0,0,0,0,0,0,-264.218,-428.679,-0.0078125,0.03125,841.026,0
     0,0,0,0,0,0,0,0,0,-245.152,-325.834,-0.0078125,0.03125,841.047,0
     0,0,0,0,0,0,0,0,0,-250.466,-448.632,-0.0078125,0.03125,841.067,0
     0,0,0,0,0,0,0,0,0,-307.702,-413.668,-0.0078125,0.03125,841.086,0
     0,0,0,0,0,0,0,0,0,-300.197,-426.049,-0.0078125,0.03125,841.109,0
     0,0,0,0,0,0,0,0,0,-305.778,-419.762,-0.0078125,0.03125,841.138,0
     0,0,0,0,0,0,0,0,0,-302.741,-395.109,-0.0078125,0.03125,841.148,0
     0,0,0,0,0,0,0,0,0,-296.472,-465.138,-0.0078125,0.03125,841.174,0
     0,0,0,0,0,0,0,0,0,-243.873,-285.563,-0.0078125,0.03125,841.187,0
     0,0,0,0,0,0,0,0,0,-325.203,-363.974,-0.0078125,0.03125,841.207,0
     0,0,0,0,0,0,0,0,0,-317.163,-446.02,-0.0078125,0.03125,841.226,0
     0,0,0,0,0,0,0,0,0,-353.763,-398.796,-0.0078125,0.03125,841.247,0
     0,0,0,0,0,0,0,0,0,-297.075,-389.113,-0.0078125,0.03125,841.268,0
     0,0,0,0,0,0,0,0,0,-292.184,-379.37,-0.0078125,0.03125,841.286,0
     0,0,0,0,0,0,0,0,0,-312.095,-455.633,-0.0078125,0.03125,841.307,0
     0,0,0,0,0,0,0,0,0,-309.655,-433.51,-0.0078125,0.03125,841.342,0
     0,0,0,0,0,0,0,0,0,-347.838,-429.913,-0.0078125,0.03125,841.347,0
     0,0,0,0,0,0,0,0,0,-367.958,-368.358,-0.0078125,0.03125,841.367,0
     0,0,0,0,0,0,0,0,0,-350.766,-446.718,-0.0078125,0.03125,841.387,0
     0,0,0,0,0,0,0,0,0,-395.194,-392.788,-0.0078125,0.03125,841.407,0
     0,0,0,0,0,0,0,0,0,-350.828,-476.792,-0.0078125,0.03125,841.427,0
     0,0,0,0,0,0,0,0,0,-390.831,-395.969,-0.0078125,0.03125,841.447,0
     0,0,0,0,0,0,0,0,0,-393.244,-430.543,-0.0078125,0.03125,841.466,0
     0,0,0,0,0,0,0,0,0,-370.734,-372.211,-0.0078125,0.03125,841.487,0
     0,0,0,0,0,0,0,0,0,-365.07,-410.391,-0.0078125,0.03125,841.507,0
     0,0,0,0,0,0,0,0,0,-311.662,-385.401,-0.0078125,0.03125,841.527,0
     0,0,0,0,0,0,0,0,0,-365.965,-420.902,-0.0078125,0.03125,841.547,0
     0,0,0,0,0,0,0,0,0,-307.479,-404.998,-0.0078125,0.03125,841.567,0
     0,0,0,0,0,0,0,0,0,-324.586,-493.535,-0.0078125,0.03125,841.587,0
     0,0,0,0,0,0,0,0,0,-338.828,-393.383,-0.0078125,0.03125,841.606,0
     0,0,0,0,0,0,0,0,0,-320.713,-389.978,-0.0078125,0.03125,841.626,0
     0,0,0,0,0,0,0,0,0,-385.706,-448.934,-0.0078125,0.03125,841.646,0
     0,0,0,0,0,0,0,0,0,-283.539,-457.425,-0.0078125,0.03125,841.667,0
     0,0,0,0,0,0,0,0,0,-289.084,-430.83,-0.0078125,0.03125,841.687,0
     0,0,0,0,0,0,0,0,0,-293.302,-404.973,-0.0078125,0.03125,841.714,0
     0,0,0,0,0,0,0,0,0,-311.546,-377.672,-0.0078125,0.03125,841.739,0
     0,0,0,0,0,0,0,0,0,-324.076,-454.866,-0.0078125,0.03125,841.747,0
     0,0,0,0,0,0,0,0,0,-350.361,-418.638,-0.0078125,0.03125,841.767,0
     0,0,0,0,0,0,0,0,0,-351.475,-357.865,-0.0078125,0.03125,841.803,0
     0,0,0,0,0,0,0,0,0,-368.134,-408.563,-0.0078125,0.03125,841.808,0
     0,0,0,0,0,0,0,0,0,-370.755,-481.533,-0.0078125,0.03125,841.832,0
     0,0,0,0,0,0,0,0,0,-321.844,-435.152,-0.0078125,0.03125,841.848,0
     0,0,0,0,0,0,0,0,0,-285.727,-468.099,-0.0078125,0.03125,841.867,0
     0,0,0,0,0,0,0,0,0,-406.909,-498.853,-0.0078125,0.03125,841.887,0
     0,0,0,0,0,0,0,0,0,-368.128,-479.869,-0.0078125,0.03125,841.907,0
     0,0,0,0,0,0,0,0,0,-356.424,-428.156,-0.0078125,0.03125,841.927,0
     0,0,0,0,0,0,0,0,0,-277.921,-506.663,-0.0078125,0.03125,841.947,0
     0,0,0,0,0,0,0,0,0,-349.345,-461.67,-0.0078125,0.03125,841.967,0
     0,0,0,0,0,0,0,0,0,-321.812,-466.712,-0.0078125,0.03125,841.987,0
     0,0,0,0,0,0,0,0,0,-356.049,-446.05,-0.0078125,0.03125,842.006,0
     0,0,0,0,0,0,0,0,0,-343.802,-427.862,-0.0078125,0.03125,842.027,0
     0,0,0,0,0,0,0,0,0,-380.192,-463.038,-0.0078125,0.03125,842.047,0
     0,0,0,0,0,0,0,0,0,-319.03,-370.975,-0.0078125,0.03125,842.067,0
     0,0,0,0,0,0,0,0,0,-329.522,-520.278,-0.0078125,0.03125,842.086,0
     0,0,0,0,0,0,0,0,0,-338.375,-466.44,-0.0078125,0.03125,842.107,0
     0,0,0,0,0,0,0,0,0,-183.264,-413.454,-0.0078125,0.03125,842.128,0
     0,0,0,0,0,0,0,0,0,-64.9277,-354.44,-0.0078125,0.03125,842.147,0
     0,0,0,0,0,0,0,0,0,49.9245,-363.941,-0.0078125,0.03125,842.167,0
     0,0,0,0,0,0,0,0,0,69.7224,-434.263,-0.0078125,0.03125,842.187,0
     0,0,0,0,0,0,0,0,0,40.6457,-424.592,-0.0078125,0.03125,842.207,0
     0,0,0,0,0,0,0,0,0,56.6101,-427.177,-0.0078125,0.03125,842.227,0
     0,0,0,0,0,0,0,0,0,142.564,-357.085,-0.0078125,0.03125,842.247,0
     0,0,0,0,0,0,0,0,0,164.68,-325.362,-0.0078125,0.03125,842.267,0
     0,0,0,0,0,0,0,0,0,236.88,-347.917,-0.0078125,0.03125,842.288,0
     0,0,0,0,0,0,0,0,0,269.884,-364.624,-0.0078125,0.03125,842.309,0
     0,0,0,0,0,0,0,0,0,274.142,-293.006,-0.0078125,0.03125,842.326,0
     0,0,0,0,0,0,0,0,0,324.123,-275.118,-0.0078125,0.03125,842.347,0
     0,0,0,0,0,0,0,0,0,312.285,-332.414,-0.0078125,0.03125,842.367,0
     0,0,0,0,0,0,0,0,0,353.307,-296.051,-0.0078125,0.03125,842.387,0
     0,0,0,0,0,0,0,0,0,370.076,-381.265,-0.0078125,0.03125,842.407,0
     0,0,0,0,0,0,0,0,0,347.198,-238.476,-0.0078125,0.03125,842.427,0
     0,0,0,0,0,0,0,0,0,352.262,-317.596,-0.0078125,0.03125,842.447,0
     0,0,0,0,0,0,0,0,0,365.397,-369.966,-0.0078125,0.03125,842.467,0
     0,0,0,0,0,0,0,0,0,365.364,-408.063,-0.0078125,0.03125,842.486,0
     0,0,0,0,0,0,0,0,0,340.553,-353.251,-0.0078125,0.03125,842.506,0
     0,0,0,0,0,0,0,0,0,378.91,-369.426,-0.0078125,0.03125,842.528,0
     0,0,0,0,0,0,0,0,0,360.419,-331.939,-0.0078125,0.03125,842.547,0
     0,0,0,0,0,0,0,0,0,380.141,-384.926,-0.0078125,0.03125,842.567,0
     0,0,0,0,0,0,0,0,0,367.195,-322.393,-0.0078125,0.03125,842.587,0
     0,0,0,0,0,0,0,0,0,356.754,-406.232,-0.0078125,0.03125,842.607,0
     0,0,0,0,0,0,0,0,0,381.207,-321.337,-0.0078125,0.03125,842.627,0
     0,0,0,0,0,0,0,0,0,387.98,-385.238,-0.0078125,0.03125,842.647,0
     0,0,0,0,0,0,0,0,0,397.085,-333.884,-0.0078125,0.03125,842.668,0
     0,0,0,0,0,0,0,0,0,384.601,-436.872,-0.0078125,0.03125,842.695,0
     0,0,0,0,0,0,0,0,0,414.774,-385.825,-0.0078125,0.03125,842.713,0
     0,0,0,0,0,0,0,0,0,391.504,-371.927,-0.0078125,0.03125,842.727,0
     0,0,0,0,0,0,0,0,0,456.538,-409.182,-0.0078125,0.03125,842.746,0
     0,0,0,0,0,0,0,0,0,389.643,-346.033,-0.0078125,0.03125,842.767,0
     0,0,0,0,0,0,0,0,0,445.474,-374.714,-0.0078125,0.03125,842.787,0
     0,0,0,0,0,0,0,0,0,390.823,-417.406,-0.0078125,0.03125,842.807,0
     0,0,0,0,0,0,0,0,0,379.809,-422.744,-0.0078125,0.03125,842.827,0
     0,0,0,0,0,0,0,0,0,405.605,-394.081,-0.0078125,0.03125,842.848,0
     0,0,0,0,0,0,0,0,0,453.648,-490.581,-0.0078125,0.03125,842.867,0
     0,0,0,0,0,0,0,0,0,443.636,-425.378,-0.0078125,0.03125,842.887,0
     0,0,0,0,0,0,0,0,0,401.711,-464.425,-0.0078125,0.03125,842.907,0
     0,0,0,0,0,0,0,0,0,431.127,-403.853,-0.0078125,0.03125,842.927,0
     0,0,0,0,0,0,0,0,0,423.567,-438.962,-0.0078125,0.03125,842.95,0
     0,0,0,0,0,0,0,0,0,471.798,-400.521,-0.0078125,0.03125,842.966,0
     0,0,0,0,0,0,0,0,0,400.761,-420.301,-0.0078125,0.03125,842.989,0
     0,0,0,0,0,0,0,0,0,445.812,-420.46,-0.0078125,0.03125,843.007,0
     0,0,0,0,0,0,0,0,0,416.207,-454.938,-0.0078125,0.03125,843.027,0
     0,0,0,0,0,0,0,0,0,405.342,-420.504,-0.0078125,0.03125,843.047,0
     0,0,0,0,0,0,0,0,0,412.72,-388.35,-0.0078125,0.03125,843.067,0
     0,0,0,0,0,0,0,0,0,430.654,-428.835,-0.0078125,0.03125,843.087,0
     0,0,0,0,0,0,0,0,0,432.919,-434.235,-0.0078125,0.03125,843.107,0
     0,0,0,0,0,0,0,0,0,406.835,-422.967,-0.0078125,0.03125,843.141,0
     0,0,0,0,0,0,0,0,0,424.782,-428.991,-0.0078125,0.03125,843.148,0
     0,0,0,0,0,0,0,0,0,419.015,-426.367,-0.0078125,0.03125,843.173,0
     0,0,0,0,0,0,0,0,0,386.93,-467.508,-0.0078125,0.03125,843.187,0
     0,0,0,0,0,0,0,0,0,442.096,-369.46,-0.0078125,0.03125,843.206,0
     0,0,0,0,0,0,0,0,0,401.171,-450.4,-0.0078125,0.03125,843.226,0
     0,0,0,0,0,0,0,0,0,398.549,-413.146,-0.0078125,0.03125,843.247,0
     0,0,0,0,0,0,0,0,0,436.719,-437.273,-0.0078125,0.03125,843.267,0
     0,0,0,0,0,0,0,0,0,398.645,-415.749,-0.0078125,0.03125,843.295,0
     0,0,0,0,0,0,0,0,0,419.498,-469.076,-0.0078125,0.03125,843.307,0
     0,0,0,0,0,0,0,0,0,419.992,-438.462,-0.0078125,0.03125,843.326,0
     0,0,0,0,0,0,0,0,0,417.101,-442.909,-0.0078125,0.03125,843.347,0
     0,0,0,0,0,0,0,0,0,418.997,-381.73,-0.0078125,0.03125,843.367,0
     0,0,0,0,0,0,0,0,0,479.743,-445.643,-0.0078125,0.03125,843.389,0
     0,0,0,0,0,0,0,0,0,424.079,-430.849,-0.0078125,0.03125,843.407,0
     0,0,0,0,0,0,0,0,0,408.563,-428.486,-0.0078125,0.03125,843.426,0
     0,0,0,0,0,0,0,0,0,444.158,-448.974,-0.0078125,0.03125,843.447,0
     0,0,0,0,0,0,0,0,0,405.268,-397.496,-0.0078125,0.03125,843.467,0
     0,0,0,0,0,0,0,0,0,446.409,-352.51,-0.0078125,0.03125,843.494,0
     0,0,0,0,0,0,0,0,0,368.277,-403.193,-0.0078125,0.03125,843.507,0
     0,0,0,0,0,0,0,0,0,405.951,-407.15,-0.0078125,0.03125,843.527,0
     0,0,0,0,0,0,0,0,0,420.212,-365.317,-0.0078125,0.03125,843.547,0
     0,0,0,0,0,0,0,0,0,398.692,-409.836,-0.0078125,0.03125,843.567,0
     0,0,0,0,0,0,0,0,0,439.56,-383.017,-0.0078125,0.03125,843.587,0
     0,0,0,0,0,0,0,0,0,414.07,-407.822,-0.0078125,0.03125,843.606,0
     0,0,0,0,0,0,0,0,0,418.358,-397.298,-0.0078125,0.03125,843.628,0
     0,0,0,0,0,0,0,0,0,451.427,-404.31,-0.0078125,0.03125,843.647,0
     0,0,0,0,0,0,0,0,0,386.541,-394.617,-0.0078125,0.03125,843.667,0
     0,0,0,0,0,0,0,0,0,465.886,-355.019,-0.0078125,0.03125,843.687,0
     0,0,0,0,0,0,0,0,0,434.348,-421.612,-0.0078125,0.03125,843.707,0
     0,0,0,0,0,0,0,0,0,455.405,-447.317,-0.0078125,0.03125,843.727,0
     0,0,0,0,0,0,0,0,0,395.515,-401.163,-0.0078125,0.03125,843.747,0
     0,0,0,0,0,0,0,0,0,387.89,-440.218,-0.0078125,0.03125,843.766,0
     0,0,0,0,0,0,0,0,0,414.353,-394.984,-0.0078125,0.03125,843.787,0
     0,0,0,0,0,0,0,0,0,436.491,-441.297,-0.0078125,0.03125,843.808,0
     0,0,0,0,0,0,0,0,0,411.692,-442.703,-0.0078125,0.03125,843.827,0
     0,0,0,0,0,0,0,0,0,419.771,-442.223,-0.0078125,0.03125,843.847,0
     0,0,0,0,0,0,0,0,0,407.914,-421.603,-0.0078125,0.03125,843.866,0
     0,0,0,0,0,0,0,0,0,421.319,-427.497,-0.0078125,0.03125,843.887,0
     0,0,0,0,0,0,0,0,0,361.579,-411.726,-0.0078125,0.03125,843.907,0
     0,0,0,0,0,0,0,0,0,433.614,-471.787,-0.0078125,0.03125,843.928,0
     0,0,0,0,0,0,0,0,0,396.126,-460.829,-0.0078125,0.03125,843.947,0
     0,0,0,0,0,0,0,0,0,489.56,-455.301,-0.0078125,0.03125,843.967,0
     0,0,0,0,0,0,0,0,0,454.349,-420.071,-0.0078125,0.03125,843.987,0
     0,0,0,0,0,0,0,0,0,478.881,-447.678,-0.0078125,0.03125,844.006,0
     0,0,0,0,0,0,0,0,0,406.388,-411.785,-0.0078125,0.03125,844.028,0
     0,0,0,0,0,0,0,0,0,360.159,-446.439,-0.0078125,0.03125,844.046,0
     0,0,0,0,0,0,0,0,0,443.027,-425.695,-0.0078125,0.03125,844.066,0
     0,0,0,0,0,0,0,0,0,414.628,-482.23,-0.0078125,0.03125,844.086,0
     0,0,0,0,0,0,0,0,0,379.154,-435.806,-0.0078125,0.03125,844.107,0
     0,0,0,0,0,0,0,0,0,448.763,-473.395,-0.0078125,0.03125,844.127,0
     0,0,0,0,0,0,0,0,0,453.978,-480.181,-0.0078125,0.03125,844.147,0
     0,0,0,0,0,0,0,0,0,-31.3622,-539.913,-0.0078125,0.03125,844.167,0
     0,0,0,0,0,0,0,0,0,-127.235,-400.713,-0.0078125,0.03125,844.187,0
     0,0,0,0,0,0,0,0,0,-122.726,-429.729,-0.0078125,0.03125,844.206,0
     0,0,0,0,0,0,0,0,0,-126.983,-530.237,-0.0078125,0.03125,844.227,0
     0,0,0,0,0,0,0,0,0,-161.924,-427.844,-0.0078125,0.03125,844.247,0
     0,0,0,0,0,0,0,0,0,-153.801,-456.111,-0.0078125,0.03125,844.267,0
     0,0,0,0,0,0,0,0,0,-138.782,-328.434,-0.0078125,0.03125,844.287,0
     0,0,0,0,0,0,0,0,0,-180.851,-404.4,-0.0078125,0.03125,844.307,0
     0,0,0,0,0,0,0,0,0,-164.156,-458.652,-0.0078125,0.03125,844.327,0
     0,0,0,0,0,0,0,0,0,-167.723,-379.355,-0.0078125,0.03125,844.346,0
     0,0,0,0,0,0,0,0,0,-186.482,-365.083,-0.0078125,0.03125,844.367,0
     0,0,0,0,0,0,0,0,0,-197.289,-352.454,-0.0078125,0.03125,844.386,0
     0,0,0,0,0,0,0,0,0,-195.379,-347.162,-0.0078125,0.03125,844.407,0
     0,0,0,0,0,0,0,0,0,-249.545,-337.598,-0.0078125,0.03125,844.427,0
     0,0,0,0,0,0,0,0,0,-259.044,-369.188,-0.0078125,0.03125,844.447,0
     0,0,0,0,0,0,0,0,0,-224.296,-337.291,-0.0078125,0.03125,844.467,0
     0,0,0,0,0,0,0,0,0,-293.466,-388.44,-0.0078125,0.03125,844.487,0
     0,0,0,0,0,0,0,0,0,-256.618,-341.588,-0.0078125,0.03125,844.507,0
     0,0,0,0,0,0,0,0,0,-257.235,-338.96,-0.0078125,0.03125,844.527,0
     0,0,0,0,0,0,0,0,0,-280.729,-432.844,-0.0078125,0.03125,844.548,0
     0,0,0,0,0,0,0,0,0,-285.002,-370.418,-0.0078125,0.03125,844.567,0
     0,0,0,0,0,0,0,0,0,-313.47,-401.453,-0.0078125,0.03125,844.588,0
     0,0,0,0,0,0,0,0,0,-358.584,-356.411,-0.0078125,0.03125,844.606,0
     0,0,0,0,0,0,0,0,0,-321.136,-317.113,-0.0078125,0.03125,844.629,0
     0,0,0,0,0,0,0,0,0,-287.113,-356.99,-0.0078125,0.03125,844.646,0
     0,0,0,0,0,0,0,0,0,-309.463,-296.064,-0.0078125,0.03125,844.667,0
     0,0,0,0,0,0,0,0,0,-320.379,-381.301,-0.0078125,0.03125,844.687,0
     0,0,0,0,0,0,0,0,0,-333.734,-404.834,-0.0078125,0.03125,844.706,0
     0,0,0,0,0,0,0,0,0,-326.958,-356.532,-0.0078125,0.03125,844.727,0
     0,0,0,0,0,0,0,0,0,-383.171,-419.05,-0.0078125,0.03125,844.748,0
     0,0,0,0,0,0,0,0,0,-338.937,-423.567,-0.0078125,0.03125,844.767,0
     0,0,0,0,0,0,0,0,0,-326.84,-432.348,-0.0078125,0.03125,844.787,0
     0,0,0,0,0,0,0,0,0,-355.189,-415.688,-0.0078125,0.03125,844.807,0
     0,0,0,0,0,0,0,0,0,-410.669,-394.26,-0.0078125,0.03125,844.827,0
     0,0,0,0,0,0,0,0,0,-410.568,-414.43,-0.0078125,0.03125,844.847,0
     0,0,0,0,0,0,0,0,0,-420.345,-463.499,-0.0078125,0.03125,844.867,0
     0,0,0,0,0,0,0,0,0,-319.949,-400.89,-0.0078125,0.03125,844.887,0
     0,0,0,0,0,0,0,0,0,-409.123,-446.359,-0.0078125,0.03125,844.907,0
     0,0,0,0,0,0,0,0,0,-329.43,-413.984,-0.0078125,0.03125,844.93,0
     0,0,0,0,0,0,0,0,0,-384.837,-292.869,-0.0078125,0.03125,844.946,0
     0,0,0,0,0,0,0,0,0,-358.455,-427.213,-0.0078125,0.03125,844.983,0
     0,0,0,0,0,0,0,0,0,-369.973,-486.062,-0.0078125,0.03125,844.987,0
     0,0,0,0,0,0,0,0,0,-329.316,-440.752,-0.0078125,0.03125,845.01,0
     0,0,0,0,0,0,0,0,0,-338.679,-409.542,-0.0078125,0.03125,845.027,0
     0,0,0,0,0,0,0,0,0,-344.857,-428.982,-0.0078125,0.03125,845.047,0
     0,0,0,0,0,0,0,0,0,-333.278,-500.739,-0.0078125,0.03125,845.066,0
     0,0,0,0,0,0,0,0,0,-361.899,-454.618,-0.0078125,0.03125,845.087,0
     0,0,0,0,0,0,0,0,0,-301.173,-433.717,-0.0078125,0.03125,845.12,0
     0,0,0,0,0,0,0,0,0,-323.708,-461.83,-0.0078125,0.03125,845.127,0
     0,0,0,0,0,0,0,0,0,-312.051,-433.219,-0.0078125,0.03125,845.147,0
     0,0,0,0,0,0,0,0,0,-279.267,-554.293,-0.0078125,0.03125,845.167,0
     0,0,0,0,0,0,0,0,0,-275.729,-451.04,-0.0078125,0.03125,845.186,0
     0,0,0,0,0,0,0,0,0,-327.745,-467.454,-0.0078125,0.03125,845.206,0
     0,0,0,0,0,0,0,0,0,-342.865,-418.778,-0.0078125,0.03125,845.227,0
     0,0,0,0,0,0,0,0,0,-375.368,-534.931,-0.0078125,0.03125,845.247,0
     0,0,0,0,0,0,0,0,0,-271.669,-433.557,-0.0078125,0.03125,845.267,0
     0,0,0,0,0,0,0,0,0,-375.82,-449.913,-0.0078125,0.03125,845.287,0
     0,0,0,0,0,0,0,0,0,-321.069,-385.743,-0.0078125,0.03125,845.307,0
     0,0,0,0,0,0,0,0,0,-326.68,-484.766,-0.0078125,0.03125,845.327,0
     0,0,0,0,0,0,0,0,0,-314.431,-400.248,-0.0078125,0.03125,845.347,0
     0,0,0,0,0,0,0,0,0,-283.511,-418.533,-0.0078125,0.03125,845.367,0
     0,0,0,0,0,0,0,0,0,-262.546,-390.785,-0.0078125,0.03125,845.387,0
     0,0,0,0,0,0,0,0,0,-313.686,-462.481,-0.0078125,0.03125,845.407,0
     0,0,0,0,0,0,0,0,0,-299.931,-383.421,-0.0078125,0.03125,845.428,0
     0,0,0,0,0,0,0,0,0,-276.725,-429.83,-0.0078125,0.03125,845.448,0
     0,0,0,0,0,0,0,0,0,-315.199,-399.664,-0.0078125,0.03125,845.466,0
     0,0,0,0,0,0,0,0,0,-318.188,-427.469,-0.0078125,0.03125,845.486,0
     0,0,0,0,0,0,0,0,0,-308.804,-375.389,-0.0078125,0.03125,845.509,0
     0,0,0,0,0,0,0,0,0,-339,-434.509,-0.0078125,0.03125,845.527,0
     0,0,0,0,0,0,0,0,0,-279.072,-299.985,-0.0078125,0.03125,845.546,0
     0,0,0,0,0,0,0,0,0,-260.539,-365.704,-0.0078125,0.03125,845.568,0
     0,0,0,0,0,0,0,0,0,-316.741,-455.415,-0.0078125,0.03125,845.587,0
     0,0,0,0,0,0,0,0,0,-289.427,-442.253,-0.0078125,0.03125,845.607,0
     0,0,0,0,0,0,0,0,0,-311.488,-382.029,-0.0078125,0.03125,845.627,0
     0,0,0,0,0,0,0,0,0,-331.779,-382.856,-0.0078125,0.03125,845.647,0
     0,0,0,0,0,0,0,0,0,-316.972,-473.104,-0.0078125,0.03125,845.667,0
     0,0,0,0,0,0,0,0,0,-135.296,-373.357,-0.0078125,0.03125,845.687,0
     0,0,0,0,0,0,0,0,0,-50.9481,-404.49,-0.0078125,0.03125,845.707,0
     0,0,0,0,0,0,0,0,0,24.731,-329.707,-0.0078125,0.03125,845.727,0
     0,0,0,0,0,0,0,0,0,53.829,-413.539,-0.0078125,0.03125,845.746,0
     0,0,0,0,0,0,0,0,0,29.2061,-385.104,-0.0078125,0.03125,845.767,0
     0,0,0,0,0,0,0,0,0,64.2599,-463.07,-0.0078125,0.03125,845.787,0
     0,0,0,0,0,0,0,0,0,145.029,-347.427,-0.0078125,0.03125,845.806,0
     0,0,0,0,0,0,0,0,0,211.555,-359.525,-0.0078125,0.03125,845.832,0
     0,0,0,0,0,0,0,0,0,242.692,-388.274,-0.0078125,0.03125,845.847,0
     0,0,0,0,0,0,0,0,0,261.934,-319.402,-0.0078125,0.03125,845.867,0
     0,0,0,0,0,0,0,0,0,287.67,-369.734,-0.0078125,0.03125,845.887,0
     0,0,0,0,0,0,0,0,0,326.861,-332.862,-0.0078125,0.03125,845.907,0
     0,0,0,0,0,0,0,0,0,331.62,-344.465,-0.0078125,0.03125,845.927,0
     0,0,0,0,0,0,0,0,0,319.918,-391.773,-0.0078125,0.03125,845.947,0
     0,0,0,0,0,0,0,0,0,377.038,-374.076,-0.0078125,0.03125,845.966,0
     0,0,0,0,0,0,0,0,0,340.252,-378.43,-0.0078125,0.03125,845.987,0
     0,0,0,0,0,0,0,0,0,362.352,-345.787,-0.0078125,0.03125,846.007,0
     0,0,0,0,0,0,0,0,0,362.279,-466.832,-0.0078125,0.03125,846.026,0
     0,0,0,0,0,0,0,0,0,378.029,-342.185,-0.0078125,0.03125,846.052,0
     0,0,0,0,0,0,0,0,0,377.23,-440.655,-0.0078125,0.03125,846.067,0
     0,0,0,0,0,0,0,0,0,364.412,-375.777,-0.0078125,0.03125,846.087,0
     0,0,0,0,0,0,0,0,0,362.017,-408.497,-0.0078125,0.03125,846.107,0
     0,0,0,0,0,0,0,0,0,390.084,-381.781,-0.0078125,0.03125,846.127,0
     0,0,0,0,0,0,0,0,0,409.97,-351.76,-0.0078125,0.03125,846.147,0
     0,0,0,0,0,0,0,0,0,389.81,-404.302,-0.0078125,0.03125,846.167,0
     0,0,0,0,0,0,0,0,0,426.621,-377.209,-0.0078125,0.03125,846.187,0
     0,0,0,0,0,0,0,0,0,434.263,-257.483,-0.0078125,0.03125,846.207,0
     0,0,0,0,0,0,0,0,0,446.359,-408.255,-0.0078125,0.03125,846.227,0
     0,0,0,0,0,0,0,0,0,412.499,-448.501,-0.0078125,0.03125,846.247,0
     0,0,0,0,0,0,0,0,0,410.004,-373.706,-0.0078125,0.03125,846.266,0
     0,0,0,0,0,0,0,0,0,396.479,-445.663,-0.0078125,0.03125,846.286,0
     0,0,0,0,0,0,0,0,0,407.606,-375.03,-0.0078125,0.03125,846.307,0
     0,0,0,0,0,0,0,0,0,411.684,-434.915,-0.0078125,0.03125,846.327,0
     0,0,0,0,0,0,0,0,0,409.391,-378.86,-0.0078125,0.03125,846.347,0
     0,0,0,0,0,0,0,0,0,436.786,-460.638,-0.0078125,0.03125,846.367,0
     0,0,0,0,0,0,0,0,0,401.582,-386.153,-0.0078125,0.03125,846.391,0
     0,0,0,0,0,0,0,0,0,416.58,-425.994,-0.0078125,0.03125,846.407,0
     0,0,0,0,0,0,0,0,0,390.183,-456.548,-0.0078125,0.03125,846.447,0
     0,0,0,0,0,0,0,0,0,375.418,-465.723,-0.0078125,0.03125,846.45,0
     0,0,0,0,0,0,0,0,0,430.756,-370.069,-0.0078125,0.03125,846.466,0
     0,0,0,0,0,0,0,0,0,385.431,-392.881,-0.0078125,0.03125,846.487,0
     0,0,0,0,0,0,0,0,0,378.96,-339.812,-0.0078125,0.03125,846.507,0
     0,0,0,0,0,0,0,0,0,376.499,-472.724,-0.0078125,0.03125,846.527,0
     0,0,0,0,0,0,0,0,0,393.391,-434.028,-0.0078125,0.03125,846.547,0
     0,0,0,0,0,0,0,0,0,432.816,-358.809,-0.0078125,0.03125,846.567,0
     0,0,0,0,0,0,0,0,0,367.992,-441.423,-0.0078125,0.03125,846.588,0
     0,0,0,0,0,0,0,0,0,397.338,-394.516,-0.0078125,0.03125,846.607,0
     0,0,0,0,0,0,0,0,0,381.352,-428.964,-0.0078125,0.03125,846.627,0
     0,0,0,0,0,0,0,0,0,391.007,-390.472,-0.0078125,0.03125,846.648,0
     0,0,0,0,0,0,0,0,0,393.864,-439.734,-0.0078125,0.03125,846.67,0
     0,0,0,0,0,0,0,0,0,383.083,-418.962,-0.0078125,0.03125,846.702,0
     0,0,0,0,0,0,0,0,0,375.594,-425.695,-0.0078125,0.03125,846.708,0
     0,0,0,0,0,0,0,0,0,439.831,-383.929,-0.0078125,0.03125,846.728,0
     0,0,0,0,0,0,0,0,0,382.643,-418.296,-0.0078125,0.03125,846.747,0
     0,0,0,0,0,0,0,0,0,437.35,-396.479,-0.0078125,0.03125,846.766,0
     0,0,0,0,0,0,0,0,0,470.466,-430.367,-0.0078125,0.03125,846.787,0
     0,0,0,0,0,0,0,0,0,468.922,-385.364,-0.0078125,0.03125,846.807,0
     0,0,0,0,0,0,0,0,0,390.358,-444.129,-0.0078125,0.03125,846.827,0
     0,0,0,0,0,0,0,0,0,351.655,-345.865,-0.0078125,0.03125,846.847,0
     0,0,0,0,0,0,0,0,0,420.734,-431.63,-0.0078125,0.03125,846.867,0
     0,0,0,0,0,0,0,0,0,414.783,-435.152,-0.0078125,0.03125,846.89,0
     0,0,0,0,0,0,0,0,0,396.393,-442.204,-0.0078125,0.03125,846.914,0
     0,0,0,0,0,0,0,0,0,425.432,-452.673,-0.0078125,0.03125,846.926,0
     0,0,0,0,0,0,0,0,0,409.752,-406.835,-0.0078125,0.03125,846.946,0
     0,0,0,0,0,0,0,0,0,374.021,-463.092,-0.0078125,0.03125,846.967,0
     0,0,0,0,0,0,0,0,0,416.112,-400.144,-0.0078125,0.03125,846.987,0
     0,0,0,0,0,0,0,0,0,385.156,-412.099,-0.0078125,0.03125,847.006,0
     0,0,0,0,0,0,0,0,0,456.757,-443.164,-0.0078125,0.03125,847.029,0
     0,0,0,0,0,0,0,0,0,398.311,-431.714,-0.0078125,0.03125,847.046,0
     0,0,0,0,0,0,0,0,0,447.758,-418.419,-0.0078125,0.03125,847.066,0
     0,0,0,0,0,0,0,0,0,396.526,-402.641,-0.0078125,0.03125,847.087,0
     0,0,0,0,0,0,0,0,0,417.973,-462.963,-0.0078125,0.03125,847.107,0
     0,0,0,0,0,0,0,0,0,440.083,-422.11,-0.0078125,0.03125,847.127,0
     0,0,0,0,0,0,0,0,0,446.219,-390.633,-0.0078125,0.03125,847.147,0
     0,0,0,0,0,0,0,0,0,416.38,-408.522,-0.0078125,0.03125,847.168,0
     0,0,0,0,0,0,0,0,0,448.914,-444.998,-0.0078125,0.03125,847.189,0
     0,0,0,0,0,0,0,0,0,415.024,-480.492,-0.0078125,0.03125,847.207,0
     0,0,0,0,0,0,0,0,0,451.6,-434.953,-0.0078125,0.03125,847.228,0
     0,0,0,0,0,0,0,0,0,406.909,-473.53,-0.0078125,0.03125,847.246,0
     0,0,0,0,0,0,0,0,0,446.309,-409.45,-0.0078125,0.03125,847.267,0
     0,0,0,0,0,0,0,0,0,412.967,-439.705,-0.0078125,0.03125,847.287,0
     0,0,0,0,0,0,0,0,0,421.701,-408.956,-0.0078125,0.03125,847.307,0
     0,0,0,0,0,0,0,0,0,404.187,-394.244,-0.0078125,0.03125,847.327,0
     0,0,0,0,0,0,0,0,0,461.478,-382.395,-0.0078125,0.03125,847.347,0
     0,0,0,0,0,0,0,0,0,407.938,-403.885,-0.0078125,0.03125,847.367,0
     0,0,0,0,0,0,0,0,0,458.421,-388.018,-0.0078125,0.03125,847.386,0
     0,0,0,0,0,0,0,0,0,438.645,-415.429,-0.0078125,0.03125,847.407,0
     0,0,0,0,0,0,0,0,0,459.675,-379.212,-0.0078125,0.03125,847.426,0
     0,0,0,0,0,0,0,0,0,395.969,-283.435,-0.0078125,0.03125,847.446,0
     0,0,0,0,0,0,0,0,0,387.529,-390.755,-0.0078125,0.03125,847.466,0
     0,0,0,0,0,0,0,0,0,369.713,-398.145,-0.0078125,0.03125,847.486,0
     0,0,0,0,0,0,0,0,0,419.851,-436.272,-0.0078125,0.03125,847.507,0
     0,0,0,0,0,0,0,0,0,394.828,-412.201,-0.0078125,0.03125,847.527,0
     0,0,0,0,0,0,0,0,0,376.223,-435.815,-0.0078125,0.03125,847.547,0
     0,0,0,0,0,0,0,0,0,398.867,-396.204,-0.0078125,0.03125,847.567,0
     0,0,0,0,0,0,0,0,0,368.067,-396.346,-0.0078125,0.03125,847.588,0
     0,0,0,0,0,0,0,0,0,444.138,-397.772,-0.0078125,0.03125,847.607,0
     0,0,0,0,0,0,0,0,0,420.212,-417.327,-0.0078125,0.03125,847.627,0
     0,0,0,0,0,0,0,0,0,410.551,-394.275,-0.0078125,0.03125,847.647,0
     0,0,0,0,0,0,0,0,0,409.954,-417.798,-0.0078125,0.03125,847.667,0
     0,0,0,0,0,0,0,0,0,429.406,-401.268,-0.0078125,0.03125,847.687,0
     0,0,0,0,0,0,0,0,0,386.877,-487.175,-0.0078125,0.03125,847.707,0
     0,0,0,0,0,0,0,0,0,51.1012,-446.738,-0.0078125,0.03125,847.727,0
     0,0,0,0,0,0,0,0,0,-165.59,-461.35,-0.0078125,0.03125,847.746,0
     0,0,0,0,0,0,0,0,0,-179.686,-455.602,-0.0078125,0.03125,847.766,0
     0,0,0,0,0,0,0,0,0,-266.003,-458.831,-0.0078125,0.03125,847.787,0
     0,0,0,0,0,0,0,0,0,-229.287,-522.098,-0.0078125,0.03125,847.807,0
     0,0,0,0,0,0,0,0,0,-274.179,-463.553,-0.0078125,0.03125,847.827,0
     0,0,0,0,0,0,0,0,0,-285.869,-546.373,-0.0078125,0.03125,847.847,0
     0,0,0,0,0,0,0,0,0,-258.445,-489.704,-0.0078125,0.03125,847.867,0
     0,0,0,0,0,0,0,0,0,-271.621,-466.723,-0.0078125,0.03125,847.886,0
     0,0,0,0,0,0,0,0,0,-297.672,-398.979,-0.0078125,0.03125,847.907,0
     0,0,0,0,0,0,0,0,0,-302.929,-481.371,-0.0078125,0.03125,847.928,0
     0,0,0,0,0,0,0,0,0,-290.002,-441.823,-0.0078125,0.03125,847.947,0
     0,0,0,0,0,0,0,0,0,-283.174,-496.303,-0.0078125,0.03125,847.967,0
     0,0,0,0,0,0,0,0,0,-268.41,-493.474,-0.0078125,0.03125,847.987,0
     0,0,0,0,0,0,0,0,0,-317.753,-459.074,-0.0078125,0.03125,848.007,0
     0,0,0,0,0,0,0,0,0,-278.497,-490.328,-0.0078125,0.03125,848.026,0
     0,0,0,0,0,0,0,0,0,-304.655,-470.522,-0.0078125,0.03125,848.046,0
     0,0,0,0,0,0,0,0,0,-302.773,-508.233,-0.0078125,0.03125,848.067,0
     0,0,0,0,0,0,0,0,0,-299.63,-446.02,-0.0078125,0.03125,848.087,0
     0,0,0,0,0,0,0,0,0,-297.221,-449.256,-0.0078125,0.03125,848.106,0
     0,0,0,0,0,0,0,0,0,-337.61,-426.439,-0.0078125,0.03125,848.126,0
     0,0,0,0,0,0,0,0,0,-276.614,-496.29,-0.0078125,0.03125,848.147,0
     0,0,0,0,0,0,0,0,0,-273.407,-462.545,-0.0078125,0.03125,848.166,0
     0,0,0,0,0,0,0,0,0,-289.41,-474.676,-0.0078125,0.03125,848.187,0
     0,0,0,0,0,0,0,0,0,-274.797,-476.804,-0.0078125,0.03125,848.207,0
     0,0,0,0,0,0,0,0,0,-259.707,-401.558,-0.0078125,0.03125,848.227,0
     0,0,0,0,0,0,0,0,0,-280.777,-370.398,-0.0078125,0.03125,848.246,0
     0,0,0,0,0,0,0,0,0,-284.083,-307.092,-0.0078125,0.03125,848.267,0
     0,0,0,0,0,0,0,0,0,-256.131,-482.998,-0.0078125,0.03125,848.286,0
     0,0,0,0,0,0,0,0,0,-294.247,-389.022,-0.0078125,0.03125,848.306,0
     0,0,0,0,0,0,0,0,0,-314.194,-382.885,-0.0078125,0.03125,848.327,0
     0,0,0,0,0,0,0,0,0,-302.38,-359.331,-0.0078125,0.03125,848.347,0
     0,0,0,0,0,0,0,0,0,-289.842,-396.189,-0.0078125,0.03125,848.367,0
     0,0,0,0,0,0,0,0,0,-300.544,-446.349,-0.0078125,0.03125,848.387,0
     0,0,0,0,0,0,0,0,0,-286.603,-394.851,-0.0078125,0.03125,848.406,0
     0,0,0,0,0,0,0,0,0,-320.497,-414.13,-0.0078125,0.03125,848.426,0
     0,0,0,0,0,0,0,0,0,-323.824,-392.472,-0.0078125,0.03125,848.447,0
     0,0,0,0,0,0,0,0,0,-298.138,-451.641,-0.0078125,0.03125,848.467,0
     0,0,0,0,0,0,0,0,0,-338.576,-419.419,-0.0078125,0.03125,848.487,0
     0,0,0,0,0,0,0,0,0,-333.511,-437.397,-0.0078125,0.03125,848.507,0
     0,0,0,0,0,0,0,0,0,-322.035,-423.594,-0.0078125,0.03125,848.526,0
     0,0,0,0,0,0,0,0,0,-273.512,-443.794,-0.0078125,0.03125,848.547,0
     0,0,0,0,0,0,0,0,0,-295.334,-432.133,-0.0078125,0.03125,848.567,0
     0,0,0,0,0,0,0,0,0,-223.521,-412.337,-0.0078125,0.03125,848.587,0
     0,0,0,0,0,0,0,0,0,-298.726,-421.363,-0.0078125,0.03125,848.606,0
     0,0,0,0,0,0,0,0,0,-261.202,-369.72,-0.0078125,0.03125,848.627,0
     0,0,0,0,0,0,0,0,0,-290.613,-433.398,-0.0078125,0.03125,848.647,0
     0,0,0,0,0,0,0,0,0,-305.213,-436.462,-0.0078125,0.03125,848.667,0
     0,0,0,0,0,0,0,0,0,-309.176,-396.306,-0.0078125,0.03125,848.687,0
     0,0,0,0,0,0,0,0,0,-335.48,-485.696,-0.0078125,0.03125,848.707,0
     0,0,0,0,0,0,0,0,0,-308.804,-456.892,-0.0078125,0.03125,848.726,0
     0,0,0,0,0,0,0,0,0,-328.645,-457.938,-0.0078125,0.03125,848.747,0
     0,0,0,0,0,0,0,0,0,-321.497,-416.658,-0.0078125,0.03125,848.767,0
     0,0,0,0,0,0,0,0,0,-276.087,-461.297,-0.0078125,0.03125,848.787,0
     0,0,0,0,0,0,0,0,0,-295.103,-464.274,-0.0078125,0.03125,848.806,0
     0,0,0,0,0,0,0,0,0,-270.625,-495.761,-0.0078125,0.03125,848.826,0
     0,0,0,0,0,0,0,0,0,-282,-569.136,-0.0078125,0.03125,848.849,0
     0,0,0,0,0,0,0,0,0,-283.752,-469.296,-0.0078125,0.03125,848.868,0
     0,0,0,0,0,0,0,0,0,-317.601,-521.227,-0.0078125,0.03125,848.888,0
     0,0,0,0,0,0,0,0,0,-285.972,-429.323,-0.0078125,0.03125,848.907,0
     0,0,0,0,0,0,0,0,0,-296.424,-473.16,-0.0078125,0.03125,848.926,0
     0,0,0,0,0,0,0,0,0,-315.642,-433.557,-0.0078125,0.03125,848.947,0
     0,0,0,0,0,0,0,0,0,-307.711,-484.801,-0.0078125,0.03125,848.967,0
     0,0,0,0,0,0,0,0,0,-343.247,-469.032,-0.0078125,0.03125,848.988,0
     0,0,0,0,0,0,0,0,0,-393.724,-569.898,-0.0078125,0.03125,849.007,0
     0,0,0,0,0,0,0,0,0,-359.958,-473.743,-0.0078125,0.03125,849.027,0
     0,0,0,0,0,0,0,0,0,-421.07,-499.663,-0.0078125,0.03125,849.047,0
     0,0,0,0,0,0,0,0,0,-431.686,-490.617,-0.0078125,0.03125,849.067,0
     0,0,0,0,0,0,0,0,0,-454.205,-508.22,-0.0078125,0.03125,849.087,0
     0,0,0,0,0,0,0,0,0,-491.703,-523.163,-0.0078125,0.03125,849.107,0
     0,0,0,0,0,0,0,0,0,-448.712,-522.234,-0.0078125,0.03125,849.126,0
     0,0,0,0,0,0,0,0,0,-483.723,-569.817,-0.0078125,0.03125,849.146,0
     0,0,0,0,0,0,0,0,0,-480.527,-601.034,-0.0078125,0.03125,849.166,0
     0,0,0,0,0,0,0,0,0,-541.389,-495.835,-0.0078125,0.03125,849.187,0
     0,0,0,0,0,0,0,0,0,-414.766,-590.145,-0.0078125,0.03125,849.207,0
     0,0,0,0,0,0,0,0,0,-504.63,-496.919,-0.0078125,0.03125,849.227,0
     0,0,0,0,0,0,0,0,0,-276.759,-435.815,-0.0078125,0.03125,849.247,0
     0,0,0,0,0,0,0,0,0,-125.748,-399.616,-0.0078125,0.03125,849.267,0
     0,0,0,0,0,0,0,0,0,14.824,-444.217,-0.0078125,0.03125,849.287,0
     0,0,0,0,0,0,0,0,0,225.461,-371.975,-0.0078125,0.03125,849.309,0
     0,0,0,0,0,0,0,0,0,176.91,-415.058,-0.0078125,0.03125,849.328,0
     0,0,0,0,0,0,0,0,0,168.209,-387.807,-0.0078125,0.03125,849.355,0
     0,0,0,0,0,0,0,0,0,209.38,-401.614,-0.0078125,0.03125,849.366,0
     0,0,0,0,0,0,0,0,0,227.42,-380.865,-0.0078125,0.03125,849.387,0
     0,0,0,0,0,0,0,0,0,280.391,-418.594,-0.0078125,0.03125,849.407,0
     0,0,0,0,0,0,0,0,0,323.462,-354.534,-0.0078125,0.03125,849.426,0
     0,0,0,0,0,0,0,0,0,322.523,-305.867,-0.0078125,0.03125,849.446,0
     0,0,0,0,0,0,0,0,0,344.264,-308.923,-0.0078125,0.03125,849.467,0
     0,0,0,0,0,0,0,0,0,342.161,-338.753,-0.0078125,0.03125,849.487,0
     0,0,0,0,0,0,0,0,0,385.617,-399.505,-0.0078125,0.03125,849.507,0
     0,0,0,0,0,0,0,0,0,353.332,-328.866,-0.0078125,0.03125,849.526,0
     0,0,0,0,0,0,0,0,0,317.37,-366.206,-0.0078125,0.03125,849.546,0
     0,0,0,0,0,0,0,0,0,381.585,-436.405,-0.0078125,0.03125,849.567,0
     0,0,0,0,0,0,0,0,0,366.461,-359.46,-0.0078125,0.03125,849.589,0
     0,0,0,0,0,0,0,0,0,433.52,-451.467,-0.0078125,0.03125,849.607,0
     0,0,0,0,0,0,0,0,0,408.105,-425.74,-0.0078125,0.03125,849.627,0
     0,0,0,0,0,0,0,0,0,418.874,-377.273,-0.0078125,0.03125,849.647,0
     0,0,0,0,0,0,0,0,0,378.258,-421.425,-0.0078125,0.03125,849.667,0
     0,0,0,0,0,0,0,0,0,355.366,-444,-0.0078125,0.03125,849.687,0
     0,0,0,0,0,0,0,0,0,403.894,-413.3,-0.0078125,0.03125,849.707,0
     0,0,0,0,0,0,0,0,0,427.533,-439.28,-0.0078125,0.03125,849.727,0
     0,0,0,0,0,0,0,0,0,409.149,-390.008,-0.0078125,0.03125,849.747,0
     0,0,0,0,0,0,0,0,0,410.551,-429.332,-0.0078125,0.03125,849.767,0
     0,0,0,0,0,0,0,0,0,408.372,-395.71,-0.0078125,0.03125,849.788,0
     0,0,0,0,0,0,0,0,0,431.425,-305.409,-0.0078125,0.03125,849.817,0
     0,0,0,0,0,0,0,0,0,389.826,-359.028,-0.0078125,0.03125,849.826,0
     0,0,0,0,0,0,0,0,0,385.334,-420,-0.0078125,0.03125,849.847,0
     0,0,0,0,0,0,0,0,0,466.516,-454.814,-0.0078125,0.03125,849.868,0
     0,0,0,0,0,0,0,0,0,455.446,-419.472,-0.0078125,0.03125,849.887,0
     0,0,0,0,0,0,0,0,0,451.998,-457.603,-0.0078125,0.03125,849.907,0
     0,0,0,0,0,0,0,0,0,439.821,-411.59,-0.0078125,0.03125,849.927,0
     0,0,0,0,0,0,0,0,0,412.814,-373.134,-0.0078125,0.03125,849.947,0
     0,0,0,0,0,0,0,0,0,438.385,-439.802,-0.0078125,0.03125,849.967,0
     0,0,0,0,0,0,0,0,0,459.358,-426.557,-0.0078125,0.03125,849.986,0
     0,0,0,0,0,0,0,0,0,439.416,-484.578,-0.0078125,0.03125,850.007,0
     0,0,0,0,0,0,0,0,0,409.593,-321.316,-0.0078125,0.03125,850.027,0
     0,0,0,0,0,0,0,0,0,412.286,-466.277,-0.0078125,0.03125,850.047,0
     0,0,0,0,0,0,0,0,0,462.075,-440.335,-0.0078125,0.03125,850.067,0
     0,0,0,0,0,0,0,0,0,432.021,-429.396,-0.0078125,0.03125,850.087,0
     0,0,0,0,0,0,0,0,0,437.8,-387.492,-0.0078125,0.03125,850.107,0
     0,0,0,0,0,0,0,0,0,465.842,-458.411,-0.0078125,0.03125,850.127,0
     0,0,0,0,0,0,0,0,0,435.521,-466.135,-0.0078125,0.03125,850.148,0
     0,0,0,0,0,0,0,0,0,416.892,-435.939,-0.0078125,0.03125,850.168,0
     0,0,0,0,0,0,0,0,0,430.654,-415.308,-0.0078125,0.03125,850.196,0
     0,0,0,0,0,0,0,0,0,418.261,-446.08,-0.0078125,0.03125,850.207,0
     0,0,0,0,0,0,0,0,0,419.041,-359.719,-0.0078125,0.03125,850.226,0
     0,0,0,0,0,0,0,0,0,413.078,-420.937,-0.0078125,0.03125,850.246,0
     0,0,0,0,0,0,0,0,0,435.815,-375.467,-0.0078125,0.03125,850.267,0
     0,0,0,0,0,0,0,0,0,405.968,-424.025,-0.0078125,0.03125,850.287,0
     0,0,0,0,0,0,0,0,0,450.857,-424.8,-0.0078125,0.03125,850.306,0
     0,0,0,0,0,0,0,0,0,427.899,-429.433,-0.0078125,0.03125,850.327,0
     0,0,0,0,0,0,0,0,0,422.083,-397.283,-0.0078125,0.03125,850.347,0
     0,0,0,0,0,0,0,0,0,369.297,-442.742,-0.0078125,0.03125,850.367,0
     0,0,0,0,0,0,0,0,0,429.95,-432.76,-0.0078125,0.03125,850.386,0
     0,0,0,0,0,0,0,0,0,406.38,-353.501,-0.0078125,0.03125,850.406,0
     0,0,0,0,0,0,0,0,0,405.26,-298.873,-0.0078125,0.03125,850.426,0
     0,0,0,0,0,0,0,0,0,389.605,-350.773,-0.0078125,0.03125,850.447,0
     0,0,0,0,0,0,0,0,0,453.556,-418.831,-0.0078125,0.03125,850.489,0
     0,0,0,0,0,0,0,0,0,410.139,-414.662,-0.0078125,0.03125,850.493,0
     0,0,0,0,0,0,0,0,0,407.232,-435.17,-0.0078125,0.03125,850.507,0
     0,0,0,0,0,0,0,0,0,370.055,-462.043,-0.0078125,0.03125,850.527,0
     0,0,0,0,0,0,0,0,0,424.692,-444.603,-0.0078125,0.03125,850.546,0
     0,0,0,0,0,0,0,0,0,423.343,-390.381,-0.0078125,0.03125,850.567,0
     0,0,0,0,0,0,0,0,0,451.518,-435.758,-0.0078125,0.03125,850.588,0
     0,0,0,0,0,0,0,0,0,362.588,-395.226,-0.0078125,0.03125,850.607,0
     0,0,0,0,0,0,0,0,0,389.014,-471.965,-0.0078125,0.03125,850.627,0
     0,0,0,0,0,0,0,0,0,389.962,-409.023,-0.0078125,0.03125,850.646,0
     0,0,0,0,0,0,0,0,0,385.149,-431.341,-0.0078125,0.03125,850.688,0
     0,0,0,0,0,0,0,0,0,388.463,-431.062,-0.0078125,0.03125,850.69,0
     0,0,0,0,0,0,0,0,0,426.167,-402.22,-0.0078125,0.03125,850.707,0
     0,0,0,0,0,0,0,0,0,431.192,-415.076,-0.0078125,0.03125,850.727,0
     0,0,0,0,0,0,0,0,0,439.502,-448.974,-0.0078125,0.03125,850.747,0
     0,0,0,0,0,0,0,0,0,397.543,-462.299,-0.0078125,0.03125,850.767,0
     0,0,0,0,0,0,0,0,0,371.154,-451.284,-0.0078125,0.03125,850.789,0
     0,0,0,0,0,0,0,0,0,397.267,-431.826,-0.0078125,0.03125,850.823,0
     0,0,0,0,0,0,0,0,0,438.962,-492.817,-0.0078125,0.03125,850.828,0
     0,0,0,0,0,0,0,0,0,396.157,-449.287,-0.0078125,0.03125,850.847,0
     0,0,0,0,0,0,0,0,0,512.269,-479.973,-0.0078125,0.03125,850.867,0
     0,0,0,0,0,0,0,0,0,422.44,-420.08,-0.0078125,0.03125,850.887,0
     0,0,0,0,0,0,0,0,0,378.774,-453.289,-0.0078125,0.03125,850.906,0
     0,0,0,0,0,0,0,0,0,434.915,-406.38,-0.0078125,0.03125,850.926,0
     0,0,0,0,0,0,0,0,0,445.216,-417.388,-0.0078125,0.03125,850.947,0
     0,0,0,0,0,0,0,0,0,443.981,-452.612,-0.0078125,0.03125,850.967,0
     0,0,0,0,0,0,0,0,0,421.612,-458.064,-0.0078125,0.03125,850.989,0
     0,0,0,0,0,0,0,0,0,474.89,-417.92,-0.0078125,0.03125,851.006,0
     0,0,0,0,0,0,0,0,0,469.12,-312.515,-0.0078125,0.03125,851.027,0
     0,0,0,0,0,0,0,0,0,402.139,-417.484,-0.0078125,0.03125,851.046,0
     0,0,0,0,0,0,0,0,0,441.355,-473.619,-0.0078125,0.03125,851.067,0
     0,0,0,0,0,0,0,0,0,466.287,-428.862,-0.0078125,0.03125,851.087,0
     0,0,0,0,0,0,0,0,0,436.129,-391.16,-0.0078125,0.03125,851.107,0
     0,0,0,0,0,0,0,0,0,439.773,-398.438,-0.0078125,0.03125,851.127,0
     0,0,0,0,0,0,0,0,0,433.032,-483.582,-0.0078125,0.03125,851.146,0
     0,0,0,0,0,0,0,0,0,449.924,-427.204,-0.0078125,0.03125,851.167,0
     0,0,0,0,0,0,0,0,0,481.232,-458.505,-0.0078125,0.03125,851.187,0
     0,0,0,0,0,0,0,0,0,431.621,-395.64,-0.0078125,0.03125,851.207,0
     0,0,0,0,0,0,0,0,0,436.176,-425.242,-0.0078125,0.03125,851.227,0
     0,0,0,0,0,0,0,0,0,385.453,-418.156,-0.0078125,0.03125,851.247,0
     0,0,0,0,0,0,0,0,0,31.1762,-353.482,-0.0078125,0.03125,851.266,0
     0,0,0,0,0,0,0,0,0,-126.338,-482.672,-0.0078125,0.03125,851.287,0
     0,0,0,0,0,0,0,0,0,-189.115,-409.836,-0.0078125,0.03125,851.307,0
     0,0,0,0,0,0,0,0,0,-308.861,-534.588,-0.0078125,0.03125,851.329,0
     0,0,0,0,0,0,0,0,0,-284.661,-431.732,-0.0078125,0.03125,851.347,0
     0,0,0,0,0,0,0,0,0,-314.075,-469.462,-0.0078125,0.03125,851.367,0
     0,0,0,0,0,0,0,0,0,-306.068,-463.059,-0.0078125,0.03125,851.387,0
     0,0,0,0,0,0,0,0,0,-288.405,-519.103,-0.0078125,0.03125,851.406,0
     0,0,0,0,0,0,0,0,0,-353.126,-475.342,-0.0078125,0.03125,851.426,0
     0,0,0,0,0,0,0,0,0,-338.341,-483.092,-0.0078125,0.03125,851.446,0
     0,0,0,0,0,0,0,0,0,-359.868,-468.11,-0.0078125,0.03125,851.467,0
     0,0,0,0,0,0,0,0,0,-363.181,-483.992,-0.0078125,0.03125,851.487,0
     0,0,0,0,0,0,0,0,0,-304.044,-482.148,-0.0078125,0.03125,851.507,0
     0,0,0,0,0,0,0,0,0,-308.918,-467.957,-0.0078125,0.03125,851.527,0
     0,0,0,0,0,0,0,0,0,-313.544,-531.053,-0.0078125,0.03125,851.547,0
     0,0,0,0,0,0,0,0,0,-310.54,-165.981,-0.0078125,0.03125,851.567,0
     0,0,0,0,0,0,0,0,0,-243.01,-352.479,-0.0078125,0.03125,851.588,0
     0,0,0,0,0,0,0,0,0,-338.364,-194.892,-0.0078125,0.03125,851.606,0
     0,0,0,0,0,0,0,0,0,-272.435,-170.329,-0.0078125,0.03125,851.626,0
     0,0,0,0,0,0,0,0,0,-297.836,-200.932,-0.0078125,0.03125,851.647,0
     0,0,0,0,0,0,0,0,0,-246.127,-244.111,-0.0078125,0.03125,851.667,0
     0,0,0,0,0,0,0,0,0,-314.302,-291.117,-0.0078125,0.03125,851.687,0
     0,0,0,0,0,0,0,0,0,-283.994,-232.226,-0.0078125,0.03125,851.707,0
     0,0,0,0,0,0,0,0,0,-282.334,-280.536,-0.0078125,0.03125,851.727,0
     0,0,0,0,0,0,0,0,0,-288.538,-256.542,-0.0078125,0.03125,851.747,0
     0,0,0,0,0,0,0,0,0,-275.065,-325.187,-0.0078125,0.03125,851.767,0
     0,0,0,0,0,0,0,0,0,-302.998,-314.545,-0.0078125,0.03125,851.787,0
     0,0,0,0,0,0,0,0,0,-256.171,-360.14,-0.0078125,0.03125,851.807,0
     0,0,0,0,0,0,0,0,0,-272.747,-310.477,-0.0078125,0.03125,851.827,0
     0,0,0,0,0,0,0,0,0,-287.67,-348.086,-0.0078125,0.03125,851.848,0
     0,0,0,0,0,0,0,0,0,-226.539,-290.964,-0.0078125,0.03125,851.867,0
     0,0,0,0,0,0,0,0,0,-250.495,-434.528,-0.0078125,0.03125,851.887,0
     0,0,0,0,0,0,0,0,0,-324.354,-394.649,-0.0078125,0.03125,851.907,0
     0,0,0,0,0,0,0,0,0,-309.253,-413.01,-0.0078125,0.03125,851.927,0
     0,0,0,0,0,0,0,0,0,-327.611,-310.135,-0.0078125,0.03125,851.947,0
     0,0,0,0,0,0,0,0,0,-326.573,-382.059,-0.0078125,0.03125,851.967,0
     0,0,0,0,0,0,0,0,0,-292.222,-417.188,-0.0078125,0.03125,851.987,0
     0,0,0,0,0,0,0,0,0,-311.803,-386.787,-0.0078125,0.03125,852.006,0
     0,0,0,0,0,0,0,0,0,-305.339,-411.015,-0.0078125,0.03125,852.026,0
     0,0,0,0,0,0,0,0,0,-284.738,-431.007,-0.0078125,0.03125,852.047,0
     0,0,0,0,0,0,0,0,0,-312.378,-453.916,-0.0078125,0.03125,852.066,0
     0,0,0,0,0,0,0,0,0,-303.191,-419.103,-0.0078125,0.03125,852.087,0
     0,0,0,0,0,0,0,0,0,-290.529,-461.723,-0.0078125,0.03125,852.107,0
     0,0,0,0,0,0,0,0,0,-332.231,-388.463,-0.0078125,0.03125,852.127,0
     0,0,0,0,0,0,0,0,0,-306.274,-444.949,-0.0078125,0.03125,852.146,0
     0,0,0,0,0,0,0,0,0,-292.048,-395.116,-0.0078125,0.03125,852.166,0
     0,0,0,0,0,0,0,0,0,-360.38,-421.834,-0.0078125,0.03125,852.186,0
     0,0,0,0,0,0,0,0,0,-314.209,-376.79,-0.0078125,0.03125,852.206,0
     0,0,0,0,0,0,0,0,0,-344.169,-432.208,-0.0078125,0.03125,852.227,0
     0,0,0,0,0,0,0,0,0,-324.87,-384.327,-0.0078125,0.03125,852.247,0
     0,0,0,0,0,0,0,0,0,-376.011,-480.307,-0.0078125,0.03125,852.267,0
     0,0,0,0,0,0,0,0,0,-325.818,-384.482,-0.0078125,0.03125,852.287,0
     0,0,0,0,0,0,0,0,0,-368.997,-424.998,-0.0078125,0.03125,852.307,0
     0,0,0,0,0,0,0,0,0,-437.197,-313.878,-0.0078125,0.03125,852.326,0
     0,0,0,0,0,0,0,0,0,-418.962,-336.202,-0.0078125,0.03125,852.346,0
     0,0,0,0,0,0,0,0,0,-405.943,-450.015,-0.0078125,0.03125,852.366,0
     0,0,0,0,0,0,0,0,0,-398.987,-413.591,-0.0078125,0.03125,852.386,0
     0,0,0,0,0,0,0,0,0,-417.982,-387.132,-0.0078125,0.03125,852.407,0
     0,0,0,0,0,0,0,0,0,-371.319,-396.118,-0.0078125,0.03125,852.455,0
     0,0,0,0,0,0,0,0,0,-377.423,-475.342,-0.0078125,0.03125,852.467,0
     0,0,0,0,0,0,0,0,0,-387.252,-491.654,-0.0078125,0.03125,852.487,0
     0,0,0,0,0,0,0,0,0,-434.414,-413.539,-0.0078125,0.03125,852.507,0
     0,0,0,0,0,0,0,0,0,-258.669,-322.066,-0.0078125,0.03125,852.527,0
     0,0,0,0,0,0,0,0,0,-325.314,-562.651,-0.0078125,0.03125,852.547,0
     0,0,0,0,0,0,0,0,0,-338.983,-494.23,-0.0078125,0.03125,852.567,0
     0,0,0,0,0,0,0,0,0,-359.318,-424.286,-0.0078125,0.03125,852.596,0
     0,0,0,0,0,0,0,0,0,-299.643,-418.98,-0.0078125,0.03125,852.607,0
     0,0,0,0,0,0,0,0,0,-267.903,-417.293,-0.0078125,0.03125,852.633,0
     0,0,0,0,0,0,0,0,0,-244.311,-422.039,-0.0078125,0.03125,852.647,0
     0,0,0,0,0,0,0,0,0,-310.4,-475.624,-0.0078125,0.03125,852.667,0
     0,0,0,0,0,0,0,0,0,-284.277,-469.616,-0.0078125,0.03125,852.687,0
     0,0,0,0,0,0,0,0,0,-321.321,-505.255,-0.0078125,0.03125,852.707,0
     0,0,0,0,0,0,0,0,0,-307.026,-466.114,-0.0078125,0.03125,852.727,0
     0,0,0,0,0,0,0,0,0,-310.998,-492.708,-0.0078125,0.03125,852.746,0
     0,0,0,0,0,0,0,0,0,-323.384,-451.08,-0.0078125,0.03125,852.766,0
     0,0,0,0,0,0,0,0,0,-320.051,-409.14,-0.0078125,0.03125,852.788,0
     0,0,0,0,0,0,0,0,0,-230.595,-303.591,-0.0078125,0.03125,852.806,0
     0,0,0,0,0,0,0,0,0,-112.855,-272.32,-0.0078125,0.03125,852.826,0
     0,0,0,0,0,0,0,0,0,-65.5038,-220.281,-0.0078125,0.03125,852.847,0
     0,0,0,0,0,0,0,0,0,-27.7331,-169.086,-0.0078125,0.03125,852.867,0
     0,0,0,0,0,0,0,0,0,-21.0992,-121.475,-0.0078125,0.03125,852.887,0
     0,0,0,0,0,0,0,0,0,-21.1648,-138.795,-0.0078125,0.03125,852.907,0
     0,0,0,0,0,0,0,0,0,-21.1648,-106.946,-0.0078125,0.03125,852.927,0
     0,0,0,0,0,0,0,0,0,23.5155,-72.671,-0.0078125,0.03125,852.947,0
     0,0,0,0,0,0,0,0,0,36.3418,-44.0201,-0.0078125,0.03125,852.967,0
     0,0,0,0,0,0,0,0,0,46.3047,-42.7265,-0.0078125,0.03125,852.987,0
     0,0,0,0,0,0,0,0,0,34.0148,-25.1602,-0.0078125,0.03125,853.032,0
     0,0,0,0,0,0,0,0,0,34.0148,-25.1602,-0.0078125,0.03125,853.035,0
     0,0,0,0,0,0,0,0,0,27.9422,-21.6544,-0.0078125,0.03125,853.047,0
     0,0,0,0,0,0,0,0,0,27.9422,-19.6701,-0.0078125,0.03125,853.067,0
     0,0,0,0,0,0,0,0,0,27.9422,-17.2817,-0.0078125,0.03125,853.087,0
     0,0,0,0,0,0,0,0,0,27.9422,-17.2817,-0.0078125,0.03125,853.114,0
     0,0,0,0,0,0,0,0,0,27.9422,-17.2817,-0.0078125,0.03125,853.127,0
     0,0,0,0,0,0,0,0,0,27.9422,-17.2817,-0.0078125,0.03125,853.147,0
     0,0,0,0,0,0,0,0,0,27.9422,-17.2817,-0.0078125,0.03125,853.167,0
     0,0,0,0,0,0,0,0,0,27.9422,-17.2817,-0.0078125,0.03125,853.187,0
     0,0,0,0,0,0,0,0,0,27.9422,-17.2817,-0.0078125,0.03125,853.206,0
     0,0,0,0,0,0,0,0,0,27.9422,-17.2817,-0.0078125,0.03125,853.226,0
     0,0,0,0,0,0,0,0,0,27.9422,-17.2817,-0.0078125,0.03125,853.246,0
     0,0,0,0,0,0,0,0,0,27.9422,-17.2817,-0.0078125,0.03125,853.266,0
     0,0,0,0,0,0,0,0,0,27.9422,-17.2817,-0.0078125,0.03125,853.286,0
     0,0,0,0,0,0,0,0,0,27.9422,-17.2817,-0.0078125,0.03125,853.308,0
     0,0,0,0,0,0,0,0,0,27.9422,-17.2817,-0.0078125,0.03125,853.327,0
     0,0,0,0,0,0,0,0,0,27.9422,-17.2817,-0.0078125,0.03125,853.347,0
     0,0,0,0,0,0,0,0,0,27.9422,-17.2817,-0.0078125,0.03125,853.367,0
     0,0,0,0,0,0,0,0,0,27.9422,-17.2817,-0.0078125,0.03125,853.391,0
     0,0,0,0,0,0,0,0,0,27.9422,-17.2817,-0.0078125,0.03125,853.406,0
     0,0,0,0,0,0,0,0,0,27.9422,-17.2817,-0.0078125,0.03125,853.426,0
     0,0,0,0,0,0,0,0,0,27.9422,-17.2817,-0.0078125,0.03125,853.447,0
     0,0,0,0,0,0,0,0,0,0,-17.2817,-0.0078125,0.03125,853.467,0
     0,0,0,0,0,0,0,0,0,0,-17.2817,-0.0078125,0.03125,853.487,0
     0,0,0,0,0,0,0,0,0,0,0,-0.0078125,0.03125,853.506,0
     0,0,0,0,0,0,0,0,0,0,0,-0.0078125,0.03125,853.528,0
     0,0,0,0,0,0,0,0,0,0,0,-0.0078125,0.03125,853.557,0
     0,0,0,0,0,0,0,0,0,0,0,-0.0078125,0.03125,853.566,0
     0,0,0,0,0,0,0,0,0,0,0,-0.0078125,0.03125,853.587,0
     0,0,0,0,0,0,0,0,0,0,0,-0.0078125,0.03125,853.606,0
     0,0,0,0,0,0,0,0,0,0,0,-0.0078125,0.03125,853.628,0
     0,0,0,0,0,0,0,0,0,0,0,-0.0078125,0.03125,853.647,0
     0,0,0,0,0,0,0,0,0,0,0,-0.0078125,0.03125,853.667,0
     0,0,0,0,0,0,0,0,0,0,-218.333,-0.0078125,0.03125,853.686,0
     0,0,0,0,0,0,0,0,0,0,-356.697,-0.0078125,0.03125,853.707,0
     0,0,0,0,0,0,0,0,0,26.4482,-377.958,-0.0078125,0.03125,853.727,0
     0,0,0,0,0,0,0,0,0,99.8303,-528.583,-0.0078125,0.03125,853.747,0
     0,0,0,0,0,0,0,0,0,142.192,-551.678,-0.0078125,0.03125,853.767,0
     0,0,0,0,0,0,0,0,0,180.814,-559.581,-0.0078125,0.03125,853.787,0
     0,0,0,0,0,0,0,0,0,196.427,-771.159,-0.0078125,0.03125,853.807,0
     0,0,0,0,0,0,0,0,0,203.374,-578.369,-0.0078125,0.03125,853.827,0
     0,0,0,0,0,0,0,0,0,235.827,-587.475,-0.0078125,0.03125,853.847,0
     0,0,0,0,0,0,0,0,0,255.278,-798.786,-0.0078125,0.03125,853.867,0
     0,0,0,0,0,0,0,0,0,255.853,-838.469,-0.0078125,0.03125,853.886,0
     0,0,0,0,0,0,0,0,0,299.715,-803.859,-0.0078125,0.03125,853.907,0
     0,0,0,0,0,0,0,0,0,346.482,-846.561,-0.0078125,0.03125,853.945,0
     0,0,0,0,0,0,0,0,0,373.315,-802.311,-0.0078125,0.03125,853.948,0
     0,0,0,0,0,0,0,0,0,316.927,-972.905,-0.0078125,0.03125,853.967,0
     0,0,0,0,0,0,0,0,0,356.043,-925.497,-0.0078125,0.03125,853.987,0
     0,0,0,0,0,0,0,0,0,335.306,-893.935,-0.0078125,0.03125,854.007,0
     0,0,0,0,0,0,0,0,0,343.265,-835.352,-0.0078125,0.03125,854.027,0
     0,0,0,0,0,0,0,0,0,335.357,-896.499,-0.0078125,0.03125,854.047,0
     0,0,0,0,0,0,0,0,0,347.935,-791.139,-0.0078125,0.03125,854.067,0
     0,0,0,0,0,0,0,0,0,352.659,-943.931,-0.0078125,0.03125,854.087,0
     0,0,0,0,0,0,0,0,0,325.298,-912.909,-0.0078125,0.03125,854.107,0
     0,0,0,0,0,0,0,0,0,363.908,-888.731,-0.0078125,0.03125,854.127,0
     0,0,0,0,0,0,0,0,0,400.665,-1008.06,-0.0078125,0.03125,854.146,0
     0,0,0,0,0,0,0,0,0,413.035,-916.128,-0.0078125,0.03125,854.168,0
     0,0,0,0,0,0,0,0,0,339.986,-847.422,-0.0078125,0.03125,854.196,0
     0,0,0,0,0,0,0,0,0,394.407,-1048.27,-0.0078125,0.03125,854.209,0
     0,0,0,0,0,0,0,0,0,418.051,-1130.45,-0.0078125,0.03125,854.226,0
     0,0,0,0,0,0,0,0,0,392.234,-1048.88,-0.0078125,0.03125,854.247,0
     0,0,0,0,0,0,0,0,0,403.551,-1013.99,-0.0078125,0.03125,854.267,0
     0,0,0,0,0,0,0,0,0,350.846,-1130.33,-0.0078125,0.03125,854.287,0
     0,0,0,0,0,0,0,0,0,406.934,-1146.66,-0.0078125,0.03125,854.307,0
     0,0,0,0,0,0,0,0,0,368.514,-783.853,-0.0078125,0.03125,854.327,0
     0,0,0,0,0,0,0,0,0,361.611,-940.734,-0.0078125,0.03125,854.355,0
     0,0,0,0,0,0,0,0,0,389.082,-939.761,-0.0078125,0.03125,854.367,0
     0,0,0,0,0,0,0,0,0,411.015,-958.405,-0.0078125,0.03125,854.387,0
     0,0,0,0,0,0,0,0,0,246.898,-985.853,-0.0078125,0.03125,854.418,0
     0,0,0,0,0,0,0,0,0,321.435,-1130.77,-0.0078125,0.03125,854.426,0
     0,0,0,0,0,0,0,0,0,405.861,-922.169,-0.0078125,0.03125,854.446,0
     0,0,0,0,0,0,0,0,0,375.869,-1016.21,-0.0078125,0.03125,854.466,0
     0,0,0,0,0,0,0,0,0,372.773,-1006.75,-0.0078125,0.03125,854.487,0
     0,0,0,0,0,0,0,0,0,412.856,-1172.06,-0.0078125,0.03125,854.507,0
     0,0,0,0,0,0,0,0,0,339.801,-1063.66,-0.0078125,0.03125,854.528,0
     0,0,0,0,0,0,0,0,0,344.489,-1071.98,-0.0078125,0.03125,854.547,0
     0,0,0,0,0,0,0,0,0,362.97,-1295.84,-0.0078125,0.03125,854.567,0
     0,0,0,0,0,0,0,0,0,412.167,-1121.33,-0.0078125,0.03125,854.587,0
     0,0,0,0,0,0,0,0,0,402.512,-1113.83,-0.0078125,0.03125,854.607,0
     0,0,0,0,0,0,0,0,0,444.533,-891.027,-0.0078125,0.03125,854.627,0
     0,0,0,0,0,0,0,0,0,391.673,-1141.36,-0.0078125,0.03125,854.647,0
     0,0,0,0,0,0,0,0,0,398.947,-1184.27,-0.0078125,0.03125,854.667,0
     0,0,0,0,0,0,0,0,0,397.575,-1099.87,-0.0078125,0.03125,854.687,0
     0,0,0,0,0,0,0,0,0,384.63,-1035.68,-0.0078125,0.03125,854.707,0
     0,0,0,0,0,0,0,0,0,416.658,-946.342,-0.0078125,0.03125,854.727,0
     0,0,0,0,0,0,0,0,0,430.422,-995.768,-0.0078125,0.03125,854.746,0
     0,0,0,0,0,0,0,0,0,436.872,-1162.32,-0.0078125,0.03125,854.766,0
     0,0,0,0,0,0,0,0,0,401.067,-1159.82,-0.0078125,0.03125,854.787,0
     0,0,0,0,0,0,0,0,0,391.573,-987.264,-0.0078125,0.03125,854.806,0
     0,0,0,0,0,0,0,0,0,417.214,-871.65,-0.0078125,0.03125,854.827,0
     0,0,0,0,0,0,0,0,0,489.081,-1104.12,-0.0078125,0.03125,854.847,0
     0,0,0,0,0,0,0,0,0,390.274,-1220.41,-0.0078125,0.03125,854.867,0
     0,0,0,0,0,0,0,0,0,428.936,-1152.6,-0.0078125,0.03125,854.887,0
     0,0,0,0,0,0,0,0,0,450.126,-1186.24,-0.0078125,0.03125,854.907,0
     0,0,0,0,0,0,0,0,0,441.005,-994.283,-0.0078125,0.03125,854.927,0
     0,0,0,0,0,0,0,0,0,391.152,-1057.19,-0.0078125,0.03125,854.947,0
     0,0,0,0,0,0,0,0,0,437.158,-1121.08,-0.0078125,0.03125,854.966,0
     0,0,0,0,0,0,0,0,0,409.291,-968.335,-0.0078125,0.03125,854.987,0
     0,0,0,0,0,0,0,0,0,392.549,-1073.42,-0.0078125,0.03125,855.007,0
     0,0,0,0,0,0,0,0,0,441.921,-1071.75,-0.0078125,0.03125,855.027,0
     0,0,0,0,0,0,0,0,0,403.177,-1025.85,-0.0078125,0.03125,855.047,0
     0,0,0,0,0,0,0,0,0,438.645,-845.13,-0.0078125,0.03125,855.066,0
     0,0,0,0,0,0,0,0,0,405.195,-925.84,-0.0078125,0.03125,855.087,0
     0,0,0,0,0,0,0,0,0,422.342,-1033.65,-0.0078125,0.03125,855.107,0
     0,0,0,0,0,0,0,0,0,402.431,-1092.9,-0.0078125,0.03125,855.127,0
     0,0,0,0,0,0,0,0,0,423.54,-910.457,-0.0078125,0.03125,855.147,0
     0,0,0,0,0,0,0,0,0,416.19,-1015.33,-0.0078125,0.03125,855.167,0
     0,0,0,0,0,0,0,0,0,386.1,-1157.74,-0.0078125,0.03125,855.187,0
     0,0,0,0,0,0,0,0,0,422.896,-1071.52,-0.0078125,0.03125,855.207,0
     0,0,0,0,0,0,0,0,0,421.079,-1145.74,-0.0078125,0.03125,855.227,0
     0,0,0,0,0,0,0,0,0,430.265,-1087.67,-0.0078125,0.03125,855.248,0
     0,0,0,0,0,0,0,0,0,426.658,-976.229,-0.0078125,0.03125,855.268,0
     0,0,0,0,0,0,0,0,0,421.941,-1102.9,-0.0078125,0.03125,855.287,0
     0,0,0,0,0,0,0,0,0,367.471,-771.605,-0.0078125,0.03125,855.307,0
     0,0,0,0,0,0,0,0,0,357.06,-1195.81,-0.0078125,0.03125,855.326,0
     0,0,0,0,0,0,0,0,0,421.079,-1154.93,-0.0078125,0.03125,855.346,0
     0,0,0,0,0,0,0,0,0,363.22,-1053.02,-0.0078125,0.03125,855.366,0
     0,0,0,0,0,0,0,0,0,397.022,-1151.68,-0.0078125,0.03125,855.386,0
     0,0,0,0,0,0,0,0,0,434.301,-931.663,-0.0078125,0.03125,855.406,0
     0,0,0,0,0,0,0,0,0,416.493,-1035.3,-0.0078125,0.03125,855.426,0
     0,0,0,0,0,0,0,0,0,477.669,-1034.18,-0.0078125,0.03125,855.447,0
     0,0,0,0,0,0,0,0,0,398.931,-1179.66,-0.0078125,0.03125,855.467,0
     0,0,0,0,0,0,0,0,0,437.072,-1203.3,-0.0078125,0.03125,855.487,0
     0,0,0,0,0,0,0,0,0,445.097,-1013.53,-0.0078125,0.03125,855.507,0
     0,0,0,0,0,0,0,0,0,395.844,-1249.77,-0.0078125,0.03125,855.527,0
     0,0,0,0,0,0,0,0,0,444.158,-675.151,-0.0078125,0.03125,855.547,0
     0,0,0,0,0,0,0,0,0,403.722,-1079.56,-0.0078125,0.03125,855.567,0
     0,0,0,0,0,0,0,0,0,433.915,-1161.04,-0.0078125,0.03125,855.587,0
     0,0,0,0,0,0,0,0,0,498.504,-999.95,-0.0078125,0.03125,855.606,0
     0,0,0,0,0,0,0,0,0,406.174,-1207.66,-0.0078125,0.03125,855.626,0
     0,0,0,0,0,0,0,0,0,427.159,-1222.2,-0.0078125,0.03125,855.646,0
     0,0,0,0,0,0,0,0,0,404.441,-993.937,-0.0078125,0.03125,855.667,0
     0,0,0,0,0,0,0,0,0,426.557,-1262.55,-0.0078125,0.03125,855.687,0
     0,0,0,0,0,0,0,0,0,397.062,-1157.74,-0.0078125,0.03125,855.707,0
     0,0,0,0,0,0,0,0,0,429.019,-1132.82,-0.0078125,0.03125,855.727,0
     0,0,0,0,0,0,0,0,0,411.709,-1066.55,-0.0078125,0.03125,855.746,0
     0,0,0,0,0,0,0,0,0,409.828,-849.041,-0.0078125,0.03125,855.766,0
     0,0,0,0,0,0,0,0,0,414.422,-889.442,-0.0078125,0.03125,855.788,0
     0,0,0,0,0,0,0,0,0,399.162,-1196.89,-0.0078125,0.03125,855.807,0
     0,0,0,0,0,0,0,0,0,469.859,-1065.64,-0.0078125,0.03125,855.827,0
     0,0,0,0,0,0,0,0,0,447.497,-1139.67,-0.0078125,0.03125,855.848,0
     0,0,0,0,0,0,0,0,0,464.587,-1286.5,-0.0078125,0.03125,855.869,0
     0,0,0,0,0,0,0,0,0,522.794,-930.016,-0.0078125,0.03125,855.887,0
     0,0,0,0,0,0,0,0,0,404.196,-1008.67,-0.0078125,0.03125,855.907,0
     0,0,0,0,0,0,0,0,0,469.748,-1081.2,-0.0078125,0.03125,855.927,0
     0,0,0,0,0,0,0,0,0,421.861,-1176.82,-0.0078125,0.03125,855.947,0
     0,0,0,0,0,0,0,0,0,469.77,-1078.23,-0.0078125,0.03125,855.967,0
     0,0,0,0,0,0,0,0,0,401.163,-918.611,-0.0078125,0.03125,855.987,0
     0,0,0,0,0,0,0,0,0,403.527,-866.288,-0.0078125,0.03125,856.007,0
     0,0,0,0,0,0,0,0,0,440.306,-1047.01,-0.0078125,0.03125,856.027,0
     0,0,0,0,0,0,0,0,0,430.256,-1004.37,-0.0078125,0.03125,856.047,0
     0,0,0,0,0,0,0,0,0,396.361,-1054.24,-0.0078125,0.03125,856.067,0
     0,0,0,0,0,0,0,0,0,462.107,-821.22,-0.0078125,0.03125,856.087,0
     0,0,0,0,0,0,0,0,0,394.594,-860.733,-0.0078125,0.03125,856.106,0
     0,0,0,0,0,0,0,0,0,394.633,-1112.22,-0.0078125,0.03125,856.126,0
     0,0,0,0,0,0,0,0,0,426.467,-1050.75,-0.0078125,0.03125,856.179,0
     0,0,0,0,0,0,0,0,0,410.576,-1246.49,-0.0078125,0.03125,856.182,0
     0,0,0,0,0,0,0,0,0,435.426,-1132.89,-0.0078125,0.03125,856.188,0
     0,0,0,0,0,0,0,0,0,479.294,-1079.51,-0.0078125,0.03125,856.207,0
     0,0,0,0,0,0,0,0,0,423.155,-1112.29,-0.0078125,0.03125,856.227,0
     0,0,0,0,0,0,0,0,0,428.082,-913.117,-0.0078125,0.03125,856.246,0
     0,0,0,0,0,0,0,0,0,398.494,-1124.42,-0.0078125,0.03125,856.267,0
     0,0,0,0,0,0,0,0,0,380.735,-1177.93,-0.0078125,0.03125,856.287,0
     0,0,0,0,0,0,0,0,0,392.488,-1121.96,-0.0078125,0.03125,856.307,0
     0,0,0,0,0,0,0,0,0,376.761,-1023.96,-0.0078125,0.03125,856.327,0
     0,0,0,0,0,0,0,0,0,418.576,-954.153,-0.0078125,0.03125,856.347,0
     0,0,0,0,0,0,0,0,0,397.678,-811.491,-0.0078125,0.03125,856.374,0
     0,0,0,0,0,0,0,0,0,407.963,-1000.6,-0.0078125,0.03125,856.41,0
     0,0,0,0,0,0,0,0,0,372.668,-1008.73,-0.0078125,0.03125,856.426,0
     0,0,0,0,0,0,0,0,0,406.587,-1045.15,-0.0078125,0.03125,856.446,0
     0,0,0,0,0,0,0,0,0,390.663,-1186.1,-0.0078125,0.03125,856.466,0
     0,0,0,0,0,0,0,0,0,388.734,-1086.19,-0.0078125,0.03125,856.486,0
     0,0,0,0,0,0,0,0,0,426.612,-1053.63,-0.0078125,0.03125,856.506,0
     0,0,0,0,0,0,0,0,0,360.075,-1085.36,-0.0078125,0.03125,856.526,0
     0,0,0,0,0,0,0,0,0,382.373,-1195.24,-0.0078125,0.03125,856.546,0
     0,0,0,0,0,0,0,0,0,417.223,-1303.19,-0.0078125,0.03125,856.566,0
     0,0,0,0,0,0,0,0,0,420.566,-1037.78,-0.0078125,0.03125,856.588,0
     0,0,0,0,0,0,0,0,0,379.068,-1133.53,-0.0078125,0.03125,856.607,0
     0,0,0,0,0,0,0,0,0,446.319,-1122.21,-0.0078125,0.03125,856.627,0
     0,0,0,0,0,0,0,0,0,428.982,-1030.34,-0.0078125,0.03125,856.647,0
     0,0,0,0,0,0,0,0,0,423.352,-1014.92,-0.0078125,0.03125,856.667,0
     0,0,0,0,0,0,0,0,0,450.572,-1082.9,-0.0078125,0.03125,856.686,0
     0,0,0,0,0,0,0,0,0,448.39,-1173.23,-0.0078125,0.03125,856.706,0
     0,0,0,0,0,0,0,0,0,385.06,-960.661,-0.0078125,0.03125,856.728,0
     0,0,0,0,0,0,0,0,0,454.225,-1009.59,-0.0078125,0.03125,856.747,0
     0,0,0,0,0,0,0,0,0,396.456,-1091.64,-0.0078125,0.03125,856.767,0
     0,0,0,0,0,0,0,0,0,475.941,-1105.52,-0.0078125,0.03125,856.787,0
     0,0,0,0,0,0,0,0,0,428.789,-1050.37,-0.0078125,0.03125,856.807,0
     0,0,0,0,0,0,0,0,0,434.113,-1054.57,-0.0078125,0.03125,856.828,0
     0,0,0,0,0,0,0,0,0,412.252,-1056.8,-0.0078125,0.03125,856.856,0
     0,0,0,0,0,0,0,0,0,461.542,-980.296,-0.0078125,0.03125,856.868,0
     0,0,0,0,0,0,0,0,0,438.991,-993.443,-0.0078125,0.03125,856.887,0
     0,0,0,0,0,0,0,0,0,420.168,-1217.06,-0.0078125,0.03125,856.907,0
     0,0,0,0,0,0,0,0,0,395.202,-1181.2,-0.0078125,0.03125,856.927,0
     0,0,0,0,0,0,0,0,0,455.259,-1158.41,-0.0078125,0.03125,856.947,0
     0,0,0,0,0,0,0,0,0,403.201,-1006.09,-0.0078125,0.03125,856.967,0
     0,0,0,0,0,0,0,0,0,435.578,-1271.86,-0.0078125,0.03125,856.987,0
     0,0,0,0,0,0,0,0,0,420.893,-1205.91,-0.0078125,0.03125,857.007,0
     0,0,0,0,0,0,0,0,0,521.145,-1143.97,-0.0078125,0.03125,857.027,0
     0,0,0,0,0,0,0,0,0,414.783,-967.352,-0.0078125,0.03125,857.047,0
     0,0,0,0,0,0,0,0,0,536.999,-1167.07,-0.0078125,0.03125,857.067,0
     0,0,0,0,0,0,0,0,0,433.943,-1048.49,-0.0078125,0.03125,857.087,0
     0,0,0,0,0,0,0,0,0,369.065,-955.612,-0.0078125,0.03125,857.11,0
     0,0,0,0,0,0,0,0,0,578.068,-967.492,-0.0078125,0.03125,857.126,0
     0,0,0,0,0,0,0,0,0,460.32,-1061.01,-0.0078125,0.03125,857.146,0
     0,0,0,0,0,0,0,0,0,413.839,-1095.65,-0.0078125,0.03125,857.167,0
     0,0,0,0,0,0,0,0,0,394.446,-1028.33,-0.0078125,0.03125,857.187,0
     0,0,0,0,0,0,0,0,0,370.021,-1026.38,-0.0078125,0.03125,857.206,0
     0,0,0,0,0,0,0,0,0,392.226,-1065.42,-0.0078125,0.03125,857.226,0
     0,0,0,0,0,0,0,0,0,384.497,-1116.07,-0.0078125,0.03125,857.246,0
     0,0,0,0,0,0,0,0,0,389.484,-1150.48,-0.0078125,0.03125,857.266,0
     0,0,0,0,0,0,0,0,0,356.011,-1099.93,-0.0078125,0.03125,857.295,0
     0,0,0,0,0,0,0,0,0,393.43,-1062.19,-0.0078125,0.03125,857.306,0
     0,0,0,0,0,0,0,0,0,400.28,-1290.91,-0.0078125,0.03125,857.327,0
     0,0,0,0,0,0,0,0,0,364.584,-1160.09,-0.0078125,0.03125,857.347,0
     0,0,0,0,0,0,0,0,0,364.365,-1117.32,-0.0078125,0.03125,857.367,0
     0,0,0,0,0,0,0,0,0,395.179,-1082.66,-0.0078125,0.03125,857.387,0
     0,0,0,0,0,0,0,0,0,389.234,-1081.31,-0.0078125,0.03125,857.407,0
     0,0,0,0,0,0,0,0,0,339.859,-1216.32,-0.0078125,0.03125,857.427,0
     0,0,0,0,0,0,0,0,0,397.078,-1034.07,-0.0078125,0.03125,857.446,0
     0,0,0,0,0,0,0,0,0,368.399,-1128.92,-0.0078125,0.03125,857.466,0
     0,0,0,0,0,0,0,0,0,423.37,-1148.3,-0.0078125,0.03125,857.487,0
     0,0,0,0,0,0,0,0,0,418.936,-1113.9,-0.0078125,0.03125,857.506,0
     0,0,0,0,0,0,0,0,0,368.779,-930.449,-0.0078125,0.03125,857.527,0
     0,0,0,0,0,0,0,0,0,420.991,-1121.14,-0.0078125,0.03125,857.547,0
     0,0,0,0,0,0,0,0,0,327.772,-1185.96,-0.0078125,0.03125,857.567,0
     0,0,0,0,0,0,0,0,0,402.156,-1033.48,-0.0078125,0.03125,857.587,0
     0,0,0,0,0,0,0,0,0,374,-1070.26,-0.0078125,0.03125,857.607,0
     0,0,0,0,0,0,0,0,0,381.177,-1107.97,-0.0078125,0.03125,857.627,0
     0,0,0,0,0,0,0,0,0,384.29,-1075.5,-0.0078125,0.03125,857.647,0
     0,0,0,0,0,0,0,0,0,382.768,-862.999,-0.0078125,0.03125,857.667,0
     0,0,0,0,0,0,0,0,0,379.91,-1142.27,-0.0078125,0.03125,857.693,0
     0,0,0,0,0,0,0,0,0,398.113,-680.851,-0.0078125,0.03125,857.707,0
     0,0,0,0,0,0,0,0,0,420.371,-1441.96,-0.0078125,0.03125,857.727,0
     0,0,0,0,0,0,0,0,0,382.46,-1056.36,-0.0078125,0.03125,857.746,0
     0,0,0,0,0,0,0,0,0,430.914,-1118.32,-0.0078125,0.03125,857.766,0
     0,0,0,0,0,0,0,0,0,419.27,-1062.3,-0.0078125,0.03125,857.787,0
     0,0,0,0,0,0,0,0,0,402.682,-1053.3,-0.0078125,0.03125,857.807,0
     0,0,0,0,0,0,0,0,0,433.06,-1113.15,-0.0078125,0.03125,857.827,0
     0,0,0,0,0,0,0,0,0,457.938,-1086.01,-0.0078125,0.03125,857.847,0
     0,0,0,0,0,0,0,0,0,389.363,-946.253,-0.0078125,0.03125,857.867,0
     0,0,0,0,0,0,0,0,0,445.593,-945.537,-0.0078125,0.03125,857.887,0
     0,0,0,0,0,0,0,0,0,399.944,-1204.24,-0.0078125,0.03125,857.907,0
     0,0,0,0,0,0,0,0,0,482.16,-897.747,-0.0078125,0.03125,857.926,0
     0,0,0,0,0,0,0,0,0,503.525,-754.745,-0.0078125,0.03125,857.947,0
     0,0,0,0,0,0,0,0,0,354.755,-1114.58,-0.0078125,0.03125,857.966,0
     0,0,0,0,0,0,0,0,0,390.579,-1021.4,-0.0078125,0.03125,857.987,0
     0,0,0,0,0,0,0,0,0,372.703,-1288.66,-0.0078125,0.03125,858.007,0
     0,0,0,0,0,0,0,0,0,342.877,-876.463,-0.0078125,0.03125,858.027,0
     0,0,0,0,0,0,0,0,0,391.466,-1240.46,-0.0078125,0.03125,858.047,0
     0,0,0,0,0,0,0,0,0,390.069,-1112.04,-0.0078125,0.03125,858.067,0
     0,0,0,0,0,0,0,0,0,320.077,-1096.73,-0.0078125,0.03125,858.087,0
     0,0,0,0,0,0,0,0,0,360.855,-1207.58,-0.0078125,0.03125,858.107,0
     0,0,0,0,0,0,0,0,0,385.981,-1122.21,-0.0078125,0.03125,858.139,0
     0,0,0,0,0,0,0,0,0,380.235,-1042.86,-0.0078125,0.03125,858.148,0
     0,0,0,0,0,0,0,0,0,410.029,-1026.33,-0.0078125,0.03125,858.166,0
     0,0,0,0,0,0,0,0,0,356.544,-1197.53,-0.0078125,0.03125,858.187,0
     0,0,0,0,0,0,0,0,0,457.75,-1099.51,-0.0078125,0.03125,858.207,0
     0,0,0,0,0,0,0,0,0,366.059,-912.117,-0.0078125,0.03125,858.227,0
     0,0,0,0,0,0,0,0,0,419.138,-970.026,-0.0078125,0.03125,858.269,0
     0,0,0,0,0,0,0,0,0,407.025,-1050.25,-0.0078125,0.03125,858.272,0
     0,0,0,0,0,0,0,0,0,374.693,-894.214,-0.0078125,0.03125,858.287,0
     0,0,0,0,0,0,0,0,0,361.696,-1231.38,-0.0078125,0.03125,858.307,0
     0,0,0,0,0,0,0,0,0,376.011,-1115.57,-0.0078125,0.03125,858.327,0
     0,0,0,0,0,0,0,0,0,333.929,-1154.73,-0.0078125,0.03125,858.347,0
     0,0,0,0,0,0,0,0,0,381.723,-1183.08,-0.0078125,0.03125,858.367,0
     0,0,0,0,0,0,0,0,0,406.545,-1332.98,-0.0078125,0.03125,858.387,0
     0,0,0,0,0,0,0,0,0,443.194,-912.784,-0.0078125,0.03125,858.41,0
     0,0,0,0,0,0,0,0,0,449.004,-1073.94,-0.0078125,0.03125,858.432,0
     0,0,0,0,0,0,0,0,0,392.449,-1146.92,-0.0078125,0.03125,858.468,0
     0,0,0,0,0,0,0,0,0,378.566,-1070.89,-0.0078125,0.03125,858.489,0
     0,0,0,0,0,0,0,0,0,452.519,-1083.48,-0.0078125,0.03125,858.507,0
     0,0,0,0,0,0,0,0,0,483.969,-1279.51,-0.0078125,0.03125,858.527,0
     0,0,0,0,0,0,0,0,0,422.422,-1261.83,-0.0078125,0.03125,858.547,0
     0,0,0,0,0,0,0,0,0,407.672,-999.6,-0.0078125,0.03125,858.566,0
     0,0,0,0,0,0,0,0,0,479.375,-1069.18,-0.0078125,0.03125,858.586,0
     0,0,0,0,0,0,0,0,0,416.311,-1055.58,-0.0078125,0.03125,858.607,0
     0,0,0,0,0,0,0,0,0,393.12,-1108.89,-0.0078125,0.03125,858.626,0
     0,0,0,0,0,0,0,0,0,471.676,-864.006,-0.0078125,0.03125,858.647,0
     0,0,0,0,0,0,0,0,0,407.448,-1136.95,-0.0078125,0.03125,858.666,0
     0,0,0,0,0,0,0,0,0,396.849,-884.017,-0.0078125,0.03125,858.687,0
     0,0,0,0,0,0,0,0,0,441.521,-1179.52,-0.0078125,0.03125,858.707,0
     0,0,0,0,0,0,0,0,0,369.542,-1034.07,-0.0078125,0.03125,858.727,0
     0,0,0,0,0,0,0,0,0,381.781,-1108.4,-0.0078125,0.03125,858.747,0
     0,0,0,0,0,0,0,0,0,427.524,-1124.86,-0.0078125,0.03125,858.767,0
     0,0,0,0,0,0,0,0,0,439.001,-1202.5,-0.0078125,0.03125,858.787,0
     0,0,0,0,0,0,0,0,0,396.542,-1128.03,-0.0078125,0.03125,858.807,0
     0,0,0,0,0,0,0,0,0,392.218,-1221.22,-0.0078125,0.03125,858.827,0
     0,0,0,0,0,0,0,0,0,466.277,-1202.94,-0.0078125,0.03125,858.847,0
     0,0,0,0,0,0,0,0,0,383.443,-1118.01,-0.0078125,0.03125,858.867,0
     0,0,0,0,0,0,0,0,0,446.429,-1081.31,-0.0078125,0.03125,858.886,0
     0,0,0,0,0,0,0,0,0,375.608,-1104.67,-0.0078125,0.03125,858.907,0
     0,0,0,0,0,0,0,0,0,382.519,-1223.17,-0.0078125,0.03125,858.927,0
     0,0,0,0,0,0,0,0,0,374.883,-968.054,-0.0078125,0.03125,858.947,0
     0,0,0,0,0,0,0,0,0,517.451,-1229.41,-0.0078125,0.03125,858.968,0
     0,0,0,0,0,0,0,0,0,484.461,-947.912,-0.0078125,0.03125,858.986,0
     0,0,0,0,0,0,0,0,0,465.994,-796.654,-0.0078125,0.03125,859.007,0
     0,0,0,0,0,0,0,0,0,436.586,-1026.8,-0.0078125,0.03125,859.027,0
     0,0,0,0,0,0,0,0,0,500.163,-1166.73,-0.0078125,0.03125,859.05,0
     0,0,0,0,0,0,0,0,0,420.672,-1002.41,-0.0078125,0.03125,859.068,0
     0,0,0,0,0,0,0,0,0,455.519,-1048.77,-0.0078125,0.03125,859.087,0
     0,0,0,0,0,0,0,0,0,408.547,-1127.33,-0.0078125,0.03125,859.107,0
     0,0,0,0,0,0,0,0,0,430.117,-1160.16,-0.0078125,0.03125,859.126,0
     0,0,0,0,0,0,0,0,0,436.081,-1121.14,-0.0078125,0.03125,859.147,0
     0,0,0,0,0,0,0,0,0,418.305,-988.631,-0.0078125,0.03125,859.168,0
     0,0,0,0,0,0,0,0,0,394.953,-1041.88,-0.0078125,0.03125,859.186,0
     0,0,0,0,0,0,0,0,0,386.69,-1235.79,-0.0078125,0.03125,859.207,0
     0,0,0,0,0,0,0,0,0,361.265,-1071.01,-0.0078125,0.03125,859.227,0
     0,0,0,0,0,0,0,0,0,336.876,-1098.96,-0.0078125,0.03125,859.247,0
     0,0,0,0,0,0,0,0,0,409.584,-1177.58,-0.0078125,0.03125,859.267,0
     0,0,0,0,0,0,0,0,0,369.563,-1149.29,-0.0078125,0.03125,859.287,0
     0,0,0,0,0,0,0,0,0,354.667,-1143.71,-0.0078125,0.03125,859.306,0
     0,0,0,0,0,0,0,0,0,411.514,-911.411,-0.0078125,0.03125,859.326,0
     0,0,0,0,0,0,0,0,0,410.72,-977.326,-0.0078125,0.03125,859.347,0
     0,0,0,0,0,0,0,0,0,411.963,-1131.41,-0.0078125,0.03125,859.366,0
     0,0,0,0,0,0,0,0,0,377.537,-1059.38,-0.0078125,0.03125,859.387,0
     0,0,0,0,0,0,0,0,0,374.651,-1146.53,-0.0078125,0.03125,859.407,0
     0,0,0,0,0,0,0,0,0,354.912,-1046.24,-0.0078125,0.03125,859.427,0
     0,0,0,0,0,0,0,0,0,438.078,-797.798,-0.0078125,0.03125,859.447,0
     0,0,0,0,0,0,0,0,0,365.617,-1005.99,-0.0078125,0.03125,859.467,0
     0,0,0,0,0,0,0,0,0,413.146,-1096.19,-0.0078125,0.03125,859.486,0
     0,0,0,0,0,0,0,0,0,339.345,-1231.07,-0.0078125,0.03125,859.506,0
     0,0,0,0,0,0,0,0,0,366.26,-1148.57,-0.0078125,0.03125,859.527,0
     0,0,0,0,0,0,0,0,0,391.343,-1076.72,-0.0078125,0.03125,859.547,0
     0,0,0,0,0,0,0,0,0,393.6,-1082.25,-0.0078125,0.03125,859.567,0
     0,0,0,0,0,0,0,0,0,383.546,-846.131,-0.0078125,0.03125,859.587,0
     0,0,0,0,0,0,0,0,0,421.461,-1349.35,-0.0078125,0.03125,859.607,0
     0,0,0,0,0,0,0,0,0,387.965,-1128.99,-0.0078125,0.03125,859.627,0
     0,0,0,0,0,0,0,0,0,360.406,-1198.39,-0.0078125,0.03125,859.647,0
     0,0,0,0,0,0,0,0,0,371.437,-999.3,-0.0078125,0.03125,859.667,0
     0,0,0,0,0,0,0,0,0,360.01,-1216.03,-0.0078125,0.03125,859.687,0
     0,0,0,0,0,0,0,0,0,340.582,-1183.85,-0.0078125,0.03125,859.707,0
     0,0,0,0,0,0,0,0,0,361.128,-972.479,-0.0078125,0.03125,859.727,0
     0,0,0,0,0,0,0,0,0,395.444,-1001.05,-0.0078125,0.03125,859.746,0
     0,0,0,0,0,0,0,0,0,362.181,-1155.94,-0.0078125,0.03125,859.769,0
     0,0,0,0,0,0,0,0,0,361.572,-1148.63,-0.0078125,0.03125,859.787,0
     0,0,0,0,0,0,0,0,0,406.827,-1010.71,-0.0078125,0.03125,859.807,0
     0,0,0,0,0,0,0,0,0,389.173,-1183.29,-0.0078125,0.03125,859.827,0
     0,0,0,0,0,0,0,0,0,381.978,-1065.42,-0.0078125,0.03125,859.847,0
     0,0,0,0,0,0,0,0,0,393.205,-1242.47,-0.0078125,0.03125,859.867,0
     0,0,0,0,0,0,0,0,0,390.023,-1170.89,-0.0078125,0.03125,859.888,0
     0,0,0,0,0,0,0,0,0,322.409,-1060.39,-0.0078125,0.03125,859.906,0
     0,0,0,0,0,0,0,0,0,408.405,-984.155,-0.0078125,0.03125,859.927,0
     0,0,0,0,0,0,0,0,0,404.924,-1254.47,-0.0078125,0.03125,859.948,0
     0,0,0,0,0,0,0,0,0,476.644,-1209.92,-0.0078125,0.03125,859.983,0
     0,0,0,0,0,0,0,0,0,460.003,-1086.9,-0.0078125,0.03125,859.989,0
     0,0,0,0,0,0,0,0,0,566.46,-1191.4,-0.0078125,0.03125,860.008,0
     0,0,0,0,0,0,0,0,0,530.87,-1004.12,-0.0078125,0.03125,860.027,0
     0,0,0,0,0,0,0,0,0,499.326,-1038.85,-0.0078125,0.03125,860.047,0
     0,0,0,0,0,0,0,0,0,282.139,-1324.59,-0.0078125,0.03125,860.081,0
     0,0,0,0,0,0,0,0,0,646.517,-1097.76,-0.0078125,0.03125,860.088,0
     0,0,0,0,0,0,0,0,0,553.787,-1216.99,-0.0078125,0.03125,860.108,0
     0,0,0,0,0,0,0,0,0,475.285,-1064.4,-0.0078125,0.03125,860.142,0
     0,0,0,0,0,0,0,0,0,510.113,-1155.74,-0.0078125,0.03125,860.147,0
     0,0,0,0,0,0,0,0,0,484.402,-1031.19,-0.0078125,0.03125,860.167,0
     0,0,0,0,0,0,0,0,0,416.528,-1107.85,-0.0078125,0.03125,860.187,0
     0,0,0,0,0,0,0,0,0,568.553,-1085.84,-0.0078125,0.03125,860.208,0
     0,0,0,0,0,0,0,0,0,511.692,-965.391,-0.0078125,0.03125,860.228,0
     0,0,0,0,0,0,0,0,0,528.835,-977.183,-0.0078125,0.03125,860.246,0
     0,0,0,0,0,0,0,0,0,459.738,-1253.92,-0.0078125,0.03125,860.267,0
     0,0,0,0,0,0,0,0,0,494.083,-1276.41,-0.0078125,0.03125,860.287,0
     0,0,0,0,0,0,0,0,0,398.398,-1009.23,-0.0078125,0.03125,860.307,0
     0,0,0,0,0,0,0,0,0,462.738,-1145.48,-0.0078125,0.03125,860.327,0
     0,0,0,0,0,0,0,0,0,465.192,-1238.85,-0.0078125,0.03125,860.347,0
     0,0,0,0,0,0,0,0,0,485.625,-1025.75,-0.0078125,0.03125,860.366,0
     0,0,0,0,0,0,0,0,0,457.959,-1021.71,-0.0078125,0.03125,860.387,0
     0,0,0,0,0,0,0,0,0,504.286,-1088.2,-0.0078125,0.03125,860.406,0
     0,0,0,0,0,0,0,0,0,450.745,-1129.43,-0.0078125,0.03125,860.427,0
     0,0,0,0,0,0,0,0,0,421.221,-1002.76,-0.0078125,0.03125,860.447,0
     0,0,0,0,0,0,0,0,0,421.372,-937.954,-0.0078125,0.03125,860.467,0
     0,0,0,0,0,0,0,0,0,458.379,-1138.89,-0.0078125,0.03125,860.487,0
     0,0,0,0,0,0,0,0,0,471.554,-836.54,-0.0078125,0.03125,860.509,0
     0,0,0,0,0,0,0,0,0,439.271,-1172.47,-0.0078125,0.03125,860.527,0
     0,0,0,0,0,0,0,0,0,428.266,-1124.67,-0.0078125,0.03125,860.547,0
     0,0,0,0,0,0,0,0,0,445.732,-1099.08,-0.0078125,0.03125,860.569,0
     0,0,0,0,0,0,0,0,0,418.008,-1184.13,-0.0078125,0.03125,860.604,0
     0,0,0,0,0,0,0,0,0,439.734,-913.993,-0.0078125,0.03125,860.624,0
     0,0,0,0,0,0,0,0,0,448.3,-1073.59,-0.0078125,0.03125,860.628,0
     0,0,0,0,0,0,0,0,0,397.757,-1047.5,-0.0078125,0.03125,860.647,0
     0,0,0,0,0,0,0,0,0,464.425,-1214.33,-0.0078125,0.03125,860.667,0
     0,0,0,0,0,0,0,0,0,395.812,-1081.31,-0.0078125,0.03125,860.686,0
     0,0,0,0,0,0,0,0,0,432.302,-986.388,-0.0078125,0.03125,860.707,0
     0,0,0,0,0,0,0,0,0,371.485,-948.857,-0.0078125,0.03125,860.726,0
     0,0,0,0,0,0,0,0,0,436.31,-740.905,-0.0078125,0.03125,860.747,0
     0,0,0,0,0,0,0,0,0,425.84,-1316.22,-0.0078125,0.03125,860.767,0
     0,0,0,0,0,0,0,0,0,490.822,-1065.19,-0.0078125,0.03125,860.787,0
     0,0,0,0,0,0,0,0,0,437.493,-975.895,-0.0078125,0.03125,860.807,0
     0,0,0,0,0,0,0,0,0,485.378,-1068.26,-0.0078125,0.03125,860.827,0
     0,0,0,0,0,0,0,0,0,376.364,-1105.58,-0.0078125,0.03125,860.847,0
     0,0,0,0,0,0,0,0,0,426.703,-1006.69,-0.0078125,0.03125,860.881,0
     0,0,0,0,0,0,0,0,0,426.539,-1082.25,-0.0078125,0.03125,860.907,0
     0,0,0,0,0,0,0,0,0,438.866,-1207.36,-0.0078125,0.03125,860.909,0
     0,0,0,0,0,0,0,0,0,393.02,-1065.3,-0.0078125,0.03125,860.927,0
     0,0,0,0,0,0,0,0,0,505.051,-944.109,-0.0078125,0.03125,860.947,0
     0,0,0,0,0,0,0,0,0,394.376,-1076.77,-0.0078125,0.03125,860.966,0
     0,0,0,0,0,0,0,0,0,452.438,-1139.08,-0.0078125,0.03125,860.987,0
     0,0,0,0,0,0,0,0,0,432.648,-1167.82,-0.0078125,0.03125,861.006,0
     0,0,0,0,0,0,0,0,0,421.923,-1155.74,-0.0078125,0.03125,861.027,0
     0,0,0,0,0,0,0,0,0,382.387,-1032.42,-0.0078125,0.03125,861.047,0
     0,0,0,0,0,0,0,0,0,412.278,-1139.67,-0.0078125,0.03125,861.067,0
     0,0,0,0,0,0,0,0,0,332.917,-1090.69,-0.0078125,0.03125,861.087,0
     0,0,0,0,0,0,0,0,0,414.628,-1103.39,-0.0078125,0.03125,861.107,0
     0,0,0,0,0,0,0,0,0,390.999,-1128.99,-0.0078125,0.03125,861.127,0
     0,0,0,0,0,0,0,0,0,403.869,-1098.9,-0.0078125,0.03125,861.146,0
     0,0,0,0,0,0,0,0,0,391.405,-1239.23,-0.0078125,0.03125,861.167,0
     0,0,0,0,0,0,0,0,0,367.235,-1093.43,-0.0078125,0.03125,861.187,0
     0,0,0,0,0,0,0,0,0,454.215,-1205.84,-0.0078125,0.03125,861.207,0
     0,0,0,0,0,0,0,0,0,309.55,-869.943,-0.0078125,0.03125,861.226,0
     0,0,0,0,0,0,0,0,0,421.861,-1110.25,-0.0078125,0.03125,861.247,0
     0,0,0,0,0,0,0,0,0,365.384,-1167.27,-0.0078125,0.03125,861.267,0
     0,0,0,0,0,0,0,0,0,352.864,-1060.9,-0.0078125,0.03125,861.287,0
     0,0,0,0,0,0,0,0,0,381.949,-1029.18,-0.0078125,0.03125,861.307,0
     0,0,0,0,0,0,0,0,0,396.102,-1118.63,-0.0078125,0.03125,861.327,0
     0,0,0,0,0,0,0,0,0,429.092,-890.313,-0.0078125,0.03125,861.347,0
     0,0,0,0,0,0,0,0,0,410.458,-1060.05,-0.0078125,0.03125,861.366,0
     0,0,0,0,0,0,0,0,0,415.87,-1231.45,-0.0078125,0.03125,861.388,0
     0,0,0,0,0,0,0,0,0,457.844,-1094.75,-0.0078125,0.03125,861.406,0
     0,0,0,0,0,0,0,0,0,349.926,-986.729,-0.0078125,0.03125,861.43,0
     0,0,0,0,0,0,0,0,0,365.791,-998.851,-0.0078125,0.03125,861.447,0
     0,0,0,0,0,0,0,0,0,386.227,-921.15,-0.0078125,0.03125,861.468,0
     0,0,0,0,0,0,0,0,0,363.425,-1172.88,-0.0078125,0.03125,861.487,0
     0,0,0,0,0,0,0,0,0,305.255,-1158.61,-0.0078125,0.03125,861.507,0
     0,0,0,0,0,0,0,0,0,382.38,-1231.45,-0.0078125,0.03125,861.526,0
     0,0,0,0,0,0,0,0,0,317.818,-1178.76,-0.0078125,0.03125,861.547,0
     0,0,0,0,0,0,0,0,0,364.04,-1015.74,-0.0078125,0.03125,861.566,0
     0,0,0,0,0,0,0,0,0,308.842,-963.67,-0.0078125,0.03125,861.587,0
     0,0,0,0,0,0,0,0,0,346.051,-1024.75,-0.0078125,0.03125,861.607,0
     0,0,0,0,0,0,0,0,0,480.019,-1231.53,-0.0078125,0.03125,861.627,0
     0,0,0,0,0,0,0,0,0,358.224,-1091.35,-0.0078125,0.03125,861.647,0
     0,0,0,0,0,0,0,0,0,397.156,-845.988,-0.0078125,0.03125,861.667,0
     0,0,0,0,0,0,0,0,0,395.351,-1063.72,-0.0078125,0.03125,861.689,0
     0,0,0,0,0,0,0,0,0,302.76,-882.223,-0.0078125,0.03125,861.708,0
     0,0,0,0,0,0,0,0,0,475.443,-646.037,-0.0078125,0.03125,861.726,0
     0,0,0,0,0,0,0,0,0,553.113,-600.384,-0.0078125,0.03125,861.746,0
     0,0,0,0,0,0,0,0,0,479.203,-529.493,-0.0078125,0.03125,861.767,0
     0,0,0,0,0,0,0,0,0,523.341,-409.5,-0.0078125,0.03125,861.787,0
     0,0,0,0,0,0,0,0,0,573.362,-393.43,-0.0078125,0.03125,861.806,0
     0,0,0,0,0,0,0,0,0,442.497,-329.37,-0.0078125,0.03125,861.827,0
     0,0,0,0,0,0,0,0,0,452.172,-344.632,-0.0078125,0.03125,861.847,0
     0,0,0,0,0,0,0,0,0,316.937,-362.641,-0.0078125,0.03125,861.868,0
     0,0,0,0,0,0,0,0,0,328.046,-317.229,-0.0078125,0.03125,861.89,0
     0,0,0,0,0,0,0,0,0,329.533,-279.107,-0.0078125,0.03125,861.907,0
     0,0,0,0,0,0,0,0,0,242.875,-269.418,-0.0078125,0.03125,861.947,0
     0,0,0,0,0,0,0,0,0,236.981,-267.856,-0.0078125,0.03125,861.95,0
     0,0,0,0,0,0,0,0,0,206.432,-306.941,-0.0078125,0.03125,861.967,0
     0,0,0,0,0,0,0,0,0,175.058,-223.434,-0.0078125,0.03125,861.987,0
     0,0,0,0,0,0,0,0,0,166.753,-191.241,-0.0078125,0.03125,862.007,0
     0,0,0,0,0,0,0,0,0,159.042,-168.18,-0.0078125,0.03125,862.027,0
     0,0,0,0,0,0,0,0,0,158.115,-176.594,-0.0078125,0.03125,862.048,0
     0,0,0,0,0,0,0,0,0,128.414,-150.57,-0.0078125,0.03125,862.067,0
     0,0,0,0,0,0,0,0,0,111.19,-151.265,-0.0078125,0.03125,862.086,0
     0,0,0,0,0,0,0,0,0,78.6801,-120.459,-0.0078125,0.03125,862.107,0
     0,0,0,0,0,0,0,0,0,66.9559,-103.355,-0.0078125,0.03125,862.127,0
     0,0,0,0,0,0,0,0,0,63.2037,-86.8942,-0.0078125,0.03125,862.147,0
     0,0,0,0,0,0,0,0,0,71.8553,-74.7949,-0.0078125,0.03125,862.167,0
     0,0,0,0,0,0,0,0,0,69.3409,-63.2571,-0.0078125,0.03125,862.187,0
     0,0,0,0,0,0,0,0,0,60.7574,-60.8491,-0.0078125,0.03125,862.207,0
     0,0,0,0,0,0,0,0,0,47.5371,-47.7545,-0.0078125,0.03125,862.227,0
     0,0,0,0,0,0,0,0,0,34.4067,-38.4044,-0.0078125,0.03125,862.246,0
     0,0,0,0,0,0,0,0,0,25.2179,-27.1014,-0.0078125,0.03125,862.266,0
     0,0,0,0,0,0,0,0,0,25.2179,-20.7673,-0.0078125,0.03125,862.287,0
     0,0,0,0,0,0,0,0,0,25.2179,-20.7673,-0.0078125,0.03125,862.307,0
     0,0,0,0,0,0,0,0,0,25.2179,-20.7673,-0.0078125,0.03125,862.327,0
     0,0,0,0,0,0,0,0,0,25.2179,-20.7673,-0.0078125,0.03125,862.347,0
     0,0,0,0,0,0,0,0,0,25.2179,-20.7673,-0.0078125,0.03125,862.367,0
     0,0,0,0,0,0,0,0,0,25.2179,-20.7673,-0.0078125,0.03125,862.386,0
     0,0,0,0,0,0,0,0,0,2.97609,-6.4371,-0.0078125,0.03125,862.406,0
     0,0,0,0,0,0,0,0,0,0,-6.4371,-0.0078125,0.03125,862.427,0
     0,0,0,0,0,0,0,0,0,0,-6.4371,-0.0078125,0.03125,862.446,0
     0,0,0,0,0,0,0,0,0,0,-6.4371,-0.0078125,0.03125,862.467,0
     0,0,0,0,0,0,0,0,0,0,-6.4371,-0.0078125,0.03125,862.487,0
     0,0,0,0,0,0,0,0,0,0,-6.4371,-0.0078125,0.03125,862.507,0
     0,0,0,0,0,0,0,0,0,0,-6.4371,-0.0078125,0.03125,862.527,0
     0,0,0,0,0,0,0,0,0,0,-6.4371,-0.0078125,0.03125,862.547,0
     0,0,0,0,0,0,0,0,0,0,-6.4371,-0.0078125,0.03125,862.567,0
     0,0,0,0,0,0,0,0,0,0,-6.4371,-0.0078125,0.03125,862.586,0
     0,0,0,0,0,0,0,0,0,0,-6.4371,-0.0078125,0.03125,862.608,0
     0,0,0,0,0,0,0,0,0,0,-6.4371,-0.0078125,0.03125,862.627,0
     0,0,0,0,0,0,0,0,0,0,-6.4371,-0.0078125,0.03125,862.647,0
     0,0,0,0,0,0,0,0,0,0,-6.4371,-0.0078125,0.03125,862.667,0
     0,0,0,0,0,0,0,0,0,0,-6.4371,-0.0078125,0.03125,862.687,0
     0,0,0,0,0,0,0,0,0,0,-6.4371,-0.0078125,0.03125,862.707,0
     0,0,0,0,0,0,0,0,0,0,-6.4371,-0.0078125,0.03125,862.726,0
     0,0,0,0,0,0,0,0,0,0,-6.4371,-0.0078125,0.03125,862.746,0
     0,0,0,0,0,0,0,0,0,0,-6.4371,-0.0078125,0.03125,862.767,0
     0,0,0,0,0,0,0,0,0,0,-6.4371,-0.0078125,0.03125,862.787,0
     0,0,0,0,0,0,0,0,0,0,0,-0.0078125,0.03125,862.807,0
     0,0,0,0,0,0,0,0,0,0,0,-0.0078125,0.03125,862.827,0
     0,0,0,0,0,0,0,0,0,0,0,-0.0078125,0.03125,862.846,0
     0,0,0,0,0,0,0,0,0,0,0,-0.0078125,0.03125,862.867,0
     0,0,0,0,0,0,0,0,0,0,0,-0.0078125,0.03125,862.887,0
     0,0,0,0,0,0,0,0,0,0,0,-0.0078125,0.03125,862.907,0
     0,0,0,0,0,0,0,0,0,0,0,-0.0078125,0.03125,862.927,0
     0,0,0,0,0,0,0,0,0,0,0,-0.0078125,0.03125,862.947,0
     0,0,0,0,0,0,0,0,0,0,0,-0.0078125,0.03125,862.967,0
     0,0,0,0,0,0,0,0,0,0,0,-0.0078125,0.03125,862.987,0
     0,0,0,0,0,0,0,0,0,0,0,-0.0078125,0.03125,863.007,0
     0,0,0,0,0,0,0,0,0,0,0,-0.0078125,0.03125,863.027,0
     0,0,0,0,0,0,0,0,0,0,0,-0.0078125,0.03125,863.047,0
     0,0,0,0,0,0,0,0,0,0,0,-0.0078125,0.03125,863.067,0
     0,0,0,0,0,0,0,0,0,0,0,-0.0078125,0.03125,863.087,0
     0,0,0,0,0,0,0,0,0,0,0,-0.0078125,0.03125,863.108,0
     0,0,0,0,0,0,0,0,0,0,0,-0.0078125,0.03125,863.127,0
     0,0,0,0,0,0,0,0,0,0,0,-0.0078125,0.03125,863.147,0
     0,0,0,0,0,0,0,0,0,0,0,-0.0078125,0.03125,863.167,0
     0,0,0,0,0,0,0,0,0,0,0,-0.0078125,0.03125,863.187,0
     0,0,0,0,0,0,0,0,0,0,0,-0.0078125,0.03125,863.207,0
     0,0,0,0,0,0,0,0,0,0,0,-0.0078125,0.03125,863.227,0
     0,0,0,0,0,0,0,0,0,0,0,-0.0078125,0.03125,863.246,0
     0,0,0,0,0,0,0,0,0,0,0,-0.0078125,0.03125,863.266,0
     0,0,0,0,0,0,0,0,0,0,0,-0.0078125,0.03125,863.287,0
     0,0,0,0,0,0,0,0,0,0,0,-0.0078125,0.03125,863.307,0
     0,0,0,0,0,0,0,0,0,0,0,-0.0078125,0.03125,863.327,0
     0,0,0,0,0,0,0,0,0,0,0,-0.0078125,0.03125,863.347,0
     0,0,0,0,0,0,0,0,0,0,0,-0.0078125,0.03125,863.366,0
     0,0,0,0,0,0,0,0,0,0,0,-0.0078125,0.03125,863.388,0
     0,0,0,0,0,0,0,0,0,0,0,-0.0078125,0.03125,863.407,0
     0,0,0,0,0,0,0,0,0,0,0,-0.0078125,0.03125,863.426,0
     0,0,0,0,0,0,0,0,0,0,0,-0.0078125,0.03125,863.447,0
     0,0,0,0,0,0,0,0,0,0,0,-0.0078125,0.03125,863.466,0
     0,0,0,0,0,0,0,0,0,0,0,-0.0078125,0.03125,863.486,0
     0,0,0,0,0,0,0,0,0,0,0,-0.0078125,0.03125,863.506,0
     0,0,0,0,0,0,0,0,0,0,0,-0.0078125,0.03125,863.527,0
     0,0,0,0,0,0,0,0,0,0,0,-0.0078125,0.03125,863.547,0
     0,0,0,0,0,0,0,0,0,0,0,-0.0078125,0.03125,863.567,0
