accel_x,accel_y,accel_z,gyro_x,gyro_y,gyro_z,x,y,z,left_encoder_rate,right_encoder_rate,left_input,right_input,fpga time,navx time
     0,0,0,0,0,0,0,0,0,0,0,-0.0078125,-0.00787402,186.13,0
     0,0,0,0,0,0,0,0,0,0,0,-0.0078125,-0.00787402,186.146,0
     0,0,0,0,0,0,0,0,0,0,0,-0.0078125,-0.00787402,186.166,0
     0,0,0,0,0,0,0,0,0,0,0,-0.0078125,-0.00787402,186.186,0
     0,0,0,0,0,0,0,0,0,0,0,-0.0078125,-0.00787402,186.21,0
     0,0,0,0,0,0,0,0,0,0,0,-0.0078125,-0.00787402,186.227,0
     0,0,0,0,0,0,0,0,0,0,0,-0.0078125,-0.00787402,186.258,0
     0,0,0,0,0,0,0,0,0,0,0,-0.0078125,-0.00787402,186.267,0
     0,0,0,0,0,0,0,0,0,0,0,-0.0078125,-0.00787402,186.286,0
     0,0,0,0,0,0,0,0,0,0,0,-0.0078125,-0.00787402,186.306,0
     0,0,0,0,0,0,0,0,0,0,0,-0.0078125,-0.00787402,186.326,0
     0,0,0,0,0,0,0,0,0,0,0,-0.0078125,-0.00787402,186.346,0
     0,0,0,0,0,0,0,0,0,0,0,-0.0078125,-0.00787402,186.366,0
     0,0,0,0,0,0,0,0,0,0,0,-0.0078125,-0.00787402,186.404,0
     0,0,0,0,0,0,0,0,0,0,0,-0.0078125,-0.00787402,186.43,0
     0,0,0,0,0,0,0,0,0,0,0,-0.0078125,-0.00787402,186.433,0
     0,0,0,0,0,0,0,0,0,0,0,-0.0078125,-0.00787402,186.447,0
     0,0,0,0,0,0,0,0,0,0,0,-0.0078125,-0.00787402,186.468,0
     0,0,0,0,0,0,0,0,0,0,0,-0.0078125,-0.00787402,186.486,0
     0,0,0,0,0,0,0,0,0,0,0,-0.0078125,-0.00787402,186.506,0
     0,0,0,0,0,0,0,0,0,0,0,-0.0078125,-0.00787402,186.526,0
     0,0,0,0,0,0,0,0,0,0,0,-0.0078125,-0.00787402,186.546,0
     0,0,0,0,0,0,0,0,0,0,0,-0.0078125,-0.00787402,186.565,0
     0,0,0,0,0,0,0,0,0,0,0,-0.0078125,-0.00787402,186.586,0
     0,0,0,0,0,0,0,0,0,0,0,-0.0078125,-0.00787402,186.606,0
     0,0,0,0,0,0,0,0,0,0,0,-0.0078125,-0.00787402,186.627,0
     0,0,0,0,0,0,0,0,0,0,0,-0.0078125,-0.00787402,186.646,0
     0,0,0,0,0,0,0,0,0,0,0,-0.0078125,-0.00787402,186.666,0
     0,0,0,0,0,0,0,0,0,0,0,-0.0078125,-0.00787402,186.687,0
     0,0,0,0,0,0,0,0,0,0,0,-0.0078125,-0.00787402,186.705,0
     0,0,0,0,0,0,0,0,0,0,0,-0.0078125,-0.00787402,186.725,0
     0,0,0,0,0,0,0,0,0,0,0,-0.0078125,-0.00787402,186.745,0
     0,0,0,0,0,0,0,0,0,0,0,-0.0078125,-0.00787402,186.766,0
     0,0,0,0,0,0,0,0,0,0,0,-0.0078125,-0.00787402,186.8,0
     0,0,0,0,0,0,0,0,0,0,0,-0.0078125,-0.00787402,186.806,0
     0,0,0,0,0,0,0,0,0,0,0,-0.0078125,-0.00787402,186.826,0
     0,0,0,0,0,0,0,0,0,0,0,-0.0078125,-0.00787402,186.847,0
     0,0,0,0,0,0,0,0,0,0,0,-0.0078125,-0.00787402,186.866,0
     0,0,0,0,0,0,0,0,0,0,0,-0.0078125,-0.00787402,186.888,0
     0,0,0,0,0,0,0,0,0,0,0,-0.0078125,-0.00787402,186.906,0
     0,0,0,0,0,0,0,0,0,0,0,-0.0078125,-0.00787402,186.926,0
     0,0,0,0,0,0,0,0,0,0,0,-0.0078125,-0.00787402,186.946,0
     0,0,0,0,0,0,0,0,0,0,0,-0.0078125,-0.00787402,186.965,0
     0,0,0,0,0,0,0,0,0,0,0,-0.0078125,-0.00787402,186.985,0
     0,0,0,0,0,0,0,0,0,0,0,-0.0078125,-0.00787402,187.005,0
     0,0,0,0,0,0,0,0,0,0,0,-0.0078125,-0.00787402,187.025,0
     0,0,0,0,0,0,0,0,0,0,0,-0.0078125,-0.00787402,187.047,0
     0,0,0,0,0,0,0,0,0,0,0,-0.0078125,-0.00787402,187.066,0
     0,0,0,0,0,0,0,0,0,0,0,-0.0078125,-0.00787402,187.087,0
     0,0,0,0,0,0,0,0,0,0,0,-0.0078125,-0.00787402,187.107,0
     0,0,0,0,0,0,0,0,0,0,0,-0.0078125,-0.00787402,187.126,0
     0,0,0,0,0,0,0,0,0,0,0,-0.0078125,-0.00787402,187.146,0
     0,0,0,0,0,0,0,0,0,0,0,-0.0078125,-0.00787402,187.166,0
     0,0,0,0,0,0,0,0,0,0,0,-0.0078125,-0.00787402,187.186,0
     0,0,0,0,0,0,0,0,0,0,0,-0.0078125,-0.00787402,187.206,0
     0,0,0,0,0,0,0,0,0,0,0,-0.0078125,-0.00787402,187.226,0
     0,0,0,0,0,0,0,0,0,0,0,-0.0078125,-0.00787402,187.245,0
     0,0,0,0,0,0,0,0,0,0,0,-0.0078125,-0.00787402,187.265,0
     0,0,0,0,0,0,0,0,0,0,0,-0.0078125,-0.00787402,187.286,0
     0,0,0,0,0,0,0,0,0,0,0,-0.0078125,-0.00787402,187.306,0
     0,0,0,0,0,0,0,0,0,0,0,-0.0078125,-0.00787402,187.327,0
     0,0,0,0,0,0,0,0,0,0,0,-0.0078125,-0.00787402,187.348,0
     0,0,0,0,0,0,0,0,0,0,0,-0.03125,-0.00787402,187.366,0
     0,0,0,0,0,0,0,0,0,0,0,-0.09375,-0.00787402,187.387,0
     0,0,0,0,0,0,0,0,0,0,0,-0.15625,0.109375,187.407,0
     0,0,0,0,0,0,0,0,0,0,0,-0.28125,0.296875,187.426,0
     0,0,0,0,0,0,0,0,0,27.4396,-53.8723,-0.375,0.445312,187.447,0
     0,0,0,0,0,0,0,0,0,61.1355,-95.3089,-0.5,0.617188,187.466,0
     0,0,0,0,0,0,0,0,0,128.642,-206.635,-0.554688,0.695312,187.486,0
     0,0,0,0,0,0,0,0,0,218.802,-376.046,-0.59375,0.71875,187.506,0
     0,0,0,0,0,0,0,0,0,336.31,-338.811,-0.601562,0.726562,187.526,0
     0,0,0,0,0,0,0,0,0,312.808,-446.937,-0.609375,0.757812,187.546,0
     0,0,0,0,0,0,0,0,0,393.507,-530.687,-0.625,0.789062,187.565,0
     0,0,0,0,0,0,0,0,0,414.448,-551.086,-0.632812,0.8125,187.585,0
     0,0,0,0,0,0,0,0,0,526.87,-545.39,-0.632812,0.820312,187.605,0
     0,0,0,0,0,0,0,0,0,549.224,-595.664,-0.632812,0.828125,187.626,0
     0,0,0,0,0,0,0,0,0,594.248,-792.33,-0.632812,0.828125,187.646,0
     0,0,0,0,0,0,0,0,0,721.293,-710.732,-0.632812,0.835938,187.666,0
     0,0,0,0,0,0,0,0,0,661.179,-787.96,-0.632812,0.835938,187.703,0
     0,0,0,0,0,0,0,0,0,692.281,-800.512,-0.554688,0.835938,187.718,0
     0,0,0,0,0,0,0,0,0,753.608,-875.887,-0.453125,0.84375,187.726,0
     0,0,0,0,0,0,0,0,0,689.655,-902.079,-0.234375,0.882812,187.746,0
     0,0,0,0,0,0,0,0,0,726.375,-946.208,-0.09375,0.914062,187.766,0
     0,0,0,0,0,0,0,0,0,451.08,-1066.61,-0.0078125,0.960938,187.785,0
     0,0,0,0,0,0,0,0,0,668.114,-979.72,-0.0078125,0.984375,187.806,0
     0,0,0,0,0,0,0,0,0,714.669,-1029.81,-0.0078125,0.992188,187.826,0
     0,0,0,0,0,0,0,0,0,706.489,-1137.72,-0.0078125,0.992188,187.846,0
     0,0,0,0,0,0,0,0,0,765.169,-1049.7,-0.0078125,1,187.866,0
     0,0,0,0,0,0,0,0,0,775.434,-957.075,-0.0078125,1,187.886,0
     0,0,0,0,0,0,0,0,0,803.568,-934.798,-0.0078125,1,187.906,0
     0,0,0,0,0,0,0,0,0,879.933,-1232.89,0.00787402,1,187.926,0
     0,0,0,0,0,0,0,0,0,764.643,-1198.9,0.023622,1,187.946,0
     0,0,0,0,0,0,0,0,0,952.29,-1208.39,0.0629921,1,187.979,0
     0,0,0,0,0,0,0,0,0,920.641,-1179.45,0.125984,1,187.986,0
     0,0,0,0,0,0,0,0,0,687.002,-1254.86,0.181102,1,188.006,0
     0,0,0,0,0,0,0,0,0,500.939,-1094.99,0.259843,1,188.026,0
     0,0,0,0,0,0,0,0,0,314.026,-1183.78,0.338583,1,188.046,0
     0,0,0,0,0,0,0,0,0,200.624,-1248.91,0.370079,1,188.066,0
     0,0,0,0,0,0,0,0,0,117.431,-1075.73,0.401575,1,188.087,0
     0,0,0,0,0,0,0,0,0,59.7836,-1272.35,0.409449,1,188.106,0
     0,0,0,0,0,0,0,0,0,59.7836,-754.375,0.440945,1,188.126,0
     0,0,0,0,0,0,0,0,0,0,-1512.06,0.519685,1,188.147,0
     0,0,0,0,0,0,0,0,0,0,-1060.39,0.582677,1,188.166,0
     0,0,0,0,0,0,0,0,0,-5.77123,-1148.11,0.661417,1,188.189,0
     0,0,0,0,0,0,0,0,0,-112.109,-1101.14,0.708661,1,188.206,0
     0,0,0,0,0,0,0,0,0,-173.049,-821.591,0.724409,1,188.226,0
     0,0,0,0,0,0,0,0,0,-212.152,-941.974,0.724409,1,188.246,0
     0,0,0,0,0,0,0,0,0,-297.212,-1031.67,0.724409,1,188.266,0
     0,0,0,0,0,0,0,0,0,-322.305,-986.388,0.732283,1,188.286,0
     0,0,0,0,0,0,0,0,0,-336.112,-1050.48,0.732283,1,188.306,0
     0,0,0,0,0,0,0,0,0,-467.181,-965.391,0.732283,1,188.325,0
     0,0,0,0,0,0,0,0,0,-438.991,-944.733,0.732283,1,188.345,0
     0,0,0,0,0,0,0,0,0,-443.853,-966.37,0.732283,1,188.365,0
     0,0,0,0,0,0,0,0,0,-476.247,-916.59,0.732283,1,188.386,0
     0,0,0,0,0,0,0,0,0,-411.59,-938.35,0.732283,1,188.406,0
     0,0,0,0,0,0,0,0,0,-511.496,-1006.69,0.732283,1,188.426,0
     0,0,0,0,0,0,0,0,0,-501.077,-1079.74,0.732283,1,188.446,0
     0,0,0,0,0,0,0,0,0,-452.786,-1025.85,0.732283,1,188.465,0
     0,0,0,0,0,0,0,0,0,-593.155,-927.687,0.732283,1,188.486,0
     0,0,0,0,0,0,0,0,0,-554.232,-934.579,0.732283,1,188.506,0
     0,0,0,0,0,0,0,0,0,-587.872,-919.709,0.732283,1,188.526,0
     0,0,0,0,0,0,0,0,0,-579.811,-1053.57,0.732283,1,188.546,0
     0,0,0,0,0,0,0,0,0,-563.428,-1006.95,0.732283,1,188.566,0
     0,0,0,0,0,0,0,0,0,-518.215,-975.372,0.732283,1,188.586,0
     0,0,0,0,0,0,0,0,0,-501.995,-1062.13,0.732283,1,188.605,0
     0,0,0,0,0,0,0,0,0,-500.488,-1020.62,0.732283,1,188.625,0
     0,0,0,0,0,0,0,0,0,-527.371,-830.323,0.732283,1,188.645,0
     0,0,0,0,0,0,0,0,0,-530.828,-936.812,0.732283,1,188.665,0
     0,0,0,0,0,0,0,0,0,-481.267,-1186.17,0.732283,1,188.687,0
     0,0,0,0,0,0,0,0,0,-469.66,-1165.84,0.732283,1,188.705,0
     0,0,0,0,0,0,0,0,0,-607.81,-1101.2,0.732283,1,188.726,0
     0,0,0,0,0,0,0,0,0,-569.411,-939.188,0.732283,1,188.746,0
     0,0,0,0,0,0,0,0,0,-699.081,-1396.75,0.732283,1,188.766,0
     0,0,0,0,0,0,0,0,0,-576.568,-1015.8,0.732283,1,188.786,0
     0,0,0,0,0,0,0,0,0,-639.529,-1191.26,0.732283,1,188.806,0
     0,0,0,0,0,0,0,0,0,-598.982,-1009.64,0.732283,1,188.826,0
     0,0,0,0,0,0,0,0,0,-659.152,-989.511,0.740157,1,188.847,0
     0,0,0,0,0,0,0,0,0,-536.884,-1067.81,0.779528,1,188.866,0
     0,0,0,0,0,0,0,0,0,-655.072,-740.823,0.826772,1,188.887,0
     0,0,0,0,0,0,0,0,0,-624.278,-1391.01,0.858268,1,188.905,0
     0,0,0,0,0,0,0,0,0,-512.216,-1117.94,0.889764,1,188.925,0
     0,0,0,0,0,0,0,0,0,-672.699,-1026.54,0.889764,1,188.946,0
     0,0,0,0,0,0,0,0,0,-551.511,-1169.32,0.897638,1,188.966,0
     0,0,0,0,0,0,0,0,0,-595.398,-961.492,0.897638,1,188.986,0
     0,0,0,0,0,0,0,0,0,-579.979,-875.887,0.897638,1,189.006,0
     0,0,0,0,0,0,0,0,0,-592.68,-1047.45,0.897638,1,189.026,0
     0,0,0,0,0,0,0,0,0,-415.101,-955.429,0.897638,1,189.046,0
     0,0,0,0,0,0,0,0,0,-515.305,-1049.54,0.897638,1,189.067,0
     0,0,0,0,0,0,0,0,0,-654.557,-971.062,0.897638,1,189.087,0
     0,0,0,0,0,0,0,0,0,-711.845,-931.836,0.897638,1,189.107,0
     0,0,0,0,0,0,0,0,0,-624.766,-771.01,0.897638,1,189.126,0
     0,0,0,0,0,0,0,0,0,-611.322,-746.269,0.897638,1,189.146,0
     0,0,0,0,0,0,0,0,0,-672.54,-1176.12,0.897638,1,189.166,0
     0,0,0,0,0,0,0,0,0,-767.578,-981.884,0.897638,1,189.187,0
     0,0,0,0,0,0,0,0,0,-708.341,-987.996,0.897638,1,189.206,0
     0,0,0,0,0,0,0,0,0,-603.701,-975.61,0.755906,1,189.225,0
     0,0,0,0,0,0,0,0,0,-644.039,-1013.58,0.622047,1,189.246,0
     0,0,0,0,0,0,0,0,0,-530.912,-1012.4,0.425197,1,189.267,0
     0,0,0,0,0,0,0,0,0,-454.731,-1101.2,0.173228,1,189.289,0
     0,0,0,0,0,0,0,0,0,-261.315,-967.726,0.015748,0.851562,189.306,0
     0,0,0,0,0,0,0,0,0,-114.945,-1065.08,-0.0078125,0.757812,189.325,0
     0,0,0,0,0,0,0,0,0,-82.6795,-855.139,-0.0078125,0.625,189.346,0
     0,0,0,0,0,0,0,0,0,14.7174,-956.251,-0.0078125,0.539062,189.366,0
     0,0,0,0,0,0,0,0,0,84.8083,-870.057,-0.0078125,0.515625,189.386,0
     0,0,0,0,0,0,0,0,0,110.234,-857.118,-0.0078125,0.515625,189.405,0
     0,0,0,0,0,0,0,0,0,137.642,-693.553,-0.0078125,0.507812,189.426,0
     0,0,0,0,0,0,0,0,0,142.992,-744.768,-0.0078125,0.5,189.446,0
     0,0,0,0,0,0,0,0,0,180.39,-741.73,-0.0078125,0.476562,189.467,0
     0,0,0,0,0,0,0,0,0,185.758,-631.872,-0.0078125,0.453125,189.486,0
     0,0,0,0,0,0,0,0,0,214.583,-697.229,-0.0078125,0.445312,189.506,0
     0,0,0,0,0,0,0,0,0,219.829,-746.742,-0.0078125,0.4375,189.527,0
     0,0,0,0,0,0,0,0,0,237.31,-692.089,-0.0078125,0.429688,189.546,0
     0,0,0,0,0,0,0,0,0,253.283,-630.895,-0.0078125,0.421875,189.566,0
     0,0,0,0,0,0,0,0,0,273.358,-633.413,-0.0078125,0.421875,189.612,0
     0,0,0,0,0,0,0,0,0,309.124,-662.778,-0.0078125,0.421875,189.625,0
     0,0,0,0,0,0,0,0,0,286.381,-553.465,-0.0078125,0.421875,189.646,0
     0,0,0,0,0,0,0,0,0,302.151,-567.489,-0.0078125,0.421875,189.665,0
     0,0,0,0,0,0,0,0,0,332.701,-604.887,-0.0078125,0.421875,189.685,0
     0,0,0,0,0,0,0,0,0,293.832,-541.199,-0.0078125,0.421875,189.705,0
     0,0,0,0,0,0,0,0,0,315.03,-543.124,-0.0078125,0.421875,189.725,0
     0,0,0,0,0,0,0,0,0,377.929,-502.917,-0.0078125,0.421875,189.746,0
     0,0,0,0,0,0,0,0,0,406.38,-482.66,-0.0078125,0.421875,189.765,0
     0,0,0,0,0,0,0,0,0,374.097,-485.708,-0.0078125,0.484375,189.785,0
     0,0,0,0,0,0,0,0,0,421.079,-451.152,-0.0078125,0.523438,189.806,0
     0,0,0,0,0,0,0,0,0,403.983,-347.011,-0.0078125,0.554688,189.826,0
     0,0,0,0,0,0,0,0,0,440.083,-526.233,-0.0078125,0.585938,189.846,0
     0,0,0,0,0,0,0,0,0,392.889,-523.163,-0.0078125,0.601562,189.866,0
     0,0,0,0,0,0,0,0,0,465.03,-552.99,-0.0078125,0.601562,189.886,0
     0,0,0,0,0,0,0,0,0,481.893,-569.444,-0.0078125,0.609375,189.906,0
     0,0,0,0,0,0,0,0,0,498.331,-512.755,-0.0078125,0.609375,189.929,0
     0,0,0,0,0,0,0,0,0,592.189,-657.419,-0.0078125,0.609375,189.946,0
     0,0,0,0,0,0,0,0,0,536.97,-632.771,-0.0078125,0.609375,189.968,0
     0,0,0,0,0,0,0,0,0,597.514,-609.18,-0.0078125,0.609375,189.985,0
     0,0,0,0,0,0,0,0,0,541.272,-517.679,-0.0078125,0.53125,190.006,0
     0,0,0,0,0,0,0,0,0,558.207,-647.375,-0.0078125,0.375,190.025,0
     0,0,0,0,0,0,0,0,0,619.176,-599.934,-0.0078125,0.171875,190.046,0
     0,0,0,0,0,0,0,0,0,555.648,-629.564,-0.0078125,0.0703125,190.066,0
     0,0,0,0,0,0,0,0,0,578.469,-589.327,-0.0078125,0.0078125,190.087,0
     0,0,0,0,0,0,0,0,0,620.444,-417.938,-0.0078125,0.0078125,190.107,0
     0,0,0,0,0,0,0,0,0,466.799,-523.04,-0.0078125,0.0078125,190.126,0
     0,0,0,0,0,0,0,0,0,428.165,-486.677,-0.0078125,0.0078125,190.146,0
     0,0,0,0,0,0,0,0,0,496.339,-449.438,-0.0078125,0.0078125,190.166,0
     0,0,0,0,0,0,0,0,0,463.79,-382.497,-0.0078125,0.0078125,190.186,0
     0,0,0,0,0,0,0,0,0,504.083,-442.155,-0.0078125,0.0078125,190.206,0
     0,0,0,0,0,0,0,0,0,500.225,-464.306,-0.0078125,0.0078125,190.226,0
     0,0,0,0,0,0,0,0,0,478.893,-423.576,-0.0078125,0.0078125,190.246,0
     0,0,0,0,0,0,0,0,0,371.416,-420.734,-0.0078125,0.0078125,190.266,0
     0,0,0,0,0,0,0,0,0,405.762,-363.782,-0.0078125,0.0078125,190.286,0
     0,0,0,0,0,0,0,0,0,369.829,-416.086,-0.0078125,0.0078125,190.306,0
     0,0,0,0,0,0,0,0,0,388.976,-290.364,-0.0078125,0.0078125,190.326,0
     0,0,0,0,0,0,0,0,0,390.678,-319.939,-0.0078125,0.0078125,190.346,0
     0,0,0,0,0,0,0,0,0,346.362,-377.081,-0.0078125,0.0078125,190.366,0
     0,0,0,0,0,0,0,0,0,343.938,-303.334,-0.0078125,0.0078125,190.386,0
     0,0,0,0,0,0,0,0,0,282.103,-346.753,-0.0078125,0.0078125,190.406,0
     0,0,0,0,0,0,0,0,0,325.765,-314.139,-0.0078125,0.0078125,190.427,0
     0,0,0,0,0,0,0,0,0,294.607,-277.627,-0.0078125,0.0078125,190.446,0
     0,0,0,0,0,0,0,0,0,285.303,-280.998,-0.0078125,0.0078125,190.466,0
     0,0,0,0,0,0,0,0,0,282.869,-305.998,-0.0078125,0.0078125,190.486,0
     0,0,0,0,0,0,0,0,0,244.612,-226.398,-0.0078125,0.0078125,190.508,0
     0,0,0,0,0,0,0,0,0,228.154,-250.3,-0.0078125,0.0078125,190.526,0
     0,0,0,0,0,0,0,0,0,262.202,-230.742,-0.0078125,0.0078125,190.546,0
     0,0,0,0,0,0,0,0,0,225.861,-206.215,-0.0078125,0.0078125,190.566,0
     0,0,0,0,0,0,0,0,0,208.455,-197.278,-0.0078125,0.0078125,190.603,0
     0,0,0,0,0,0,0,0,0,202.727,-203.737,-0.0078125,0.0078125,190.606,0
     0,0,0,0,0,0,0,0,0,166.774,-173.081,-0.0078125,0.0078125,190.626,0
     0,0,0,0,0,0,0,0,0,164.206,-165.363,-0.0078125,0.0078125,190.646,0
     0,0,0,0,0,0,0,0,0,160.064,-140.149,-0.0078125,0.0078125,190.665,0
     0,0,0,0,0,0,0,0,0,142.838,-129.372,0.102362,-0.0787402,190.687,0
     0,0,0,0,0,0,0,0,0,117.773,-98.2608,0.212598,-0.165354,190.706,0
     0,0,0,0,0,0,0,0,0,71.4235,-87.3687,0.409449,-0.307087,190.726,0
     0,0,0,0,0,0,0,0,0,0,-87.3687,0.598425,-0.385827,190.748,0
     0,0,0,0,0,0,0,0,0,-55.4482,0,0.700787,-0.456693,190.766,0
     0,0,0,0,0,0,0,0,0,-198.888,134.451,0.818898,-0.574803,190.786,0
     0,0,0,0,0,0,0,0,0,-276.323,210.997,0.88189,-0.716535,190.806,0
     0,0,0,0,0,0,0,0,0,-350.527,358.012,0.889764,-0.811024,190.826,0
     0,0,0,0,0,0,0,0,0,-476.304,397.204,0.897638,-0.937008,190.846,0
     0,0,0,0,0,0,0,0,0,-451.386,547.795,0.897638,-0.96063,190.866,0
     0,0,0,0,0,0,0,0,0,-634.136,545.033,0.897638,-0.968504,190.886,0
     0,0,0,0,0,0,0,0,0,-626.449,650.576,0.897638,-0.976378,190.907,0
     0,0,0,0,0,0,0,0,0,-733.595,747.719,0.897638,-0.992126,190.926,0
     0,0,0,0,0,0,0,0,0,-732.064,815.494,0.897638,-0.992126,190.946,0
     0,0,0,0,0,0,0,0,0,-788.426,591.436,0.897638,-0.992126,190.966,0
     0,0,0,0,0,0,0,0,0,-819.874,852.261,0.897638,-0.992126,190.986,0
     0,0,0,0,0,0,0,0,0,-892.817,1032.74,0.897638,-0.992126,191.006,0
     0,0,0,0,0,0,0,0,0,-933.184,1013.99,0.897638,-0.992126,191.025,0
     0,0,0,0,0,0,0,0,0,-992.901,1168.36,0.826772,-0.992126,191.047,0
     0,0,0,0,0,0,0,0,0,-1112.78,966.651,0.653543,-0.992126,191.084,0
     0,0,0,0,0,0,0,0,0,-994.58,1009.74,0.653543,-0.992126,191.087,0
     0,0,0,0,0,0,0,0,0,-1005.63,1209.48,0.338583,-0.992126,191.106,0
     0,0,0,0,0,0,0,0,0,-1013.84,1016.11,0.0314961,-0.992126,191.126,0
     0,0,0,0,0,0,0,0,0,-945.984,1295.67,-0.015625,-0.992126,191.146,0
     0,0,0,0,0,0,0,0,0,-662.581,1192.61,-0.148438,-0.992126,191.166,0
     0,0,0,0,0,0,0,0,0,-613.309,1511.72,-0.3125,-0.992126,191.186,0
     0,0,0,0,0,0,0,0,0,-551.146,1117.94,-0.640625,-0.992126,191.206,0
     0,0,0,0,0,0,0,0,0,-278.338,1177.65,-0.8125,-0.992126,191.226,0
     0,0,0,0,0,0,0,0,0,-142.37,1072.16,-0.960938,-0.992126,191.246,0
     0,0,0,0,0,0,0,0,0,178.096,1215.14,-0.992188,-0.992126,191.265,0
     0,0,0,0,0,0,0,0,0,271.972,1006.8,-1,-0.992126,191.285,0
     0,0,0,0,0,0,0,0,0,405.556,1010.46,-1,-0.992126,191.306,0
     0,0,0,0,0,0,0,0,0,461.074,920.514,-1,-1,191.326,0
     0,0,0,0,0,0,0,0,0,502.525,938.086,-1,-1,191.346,0
     0,0,0,0,0,0,0,0,0,521.363,1110.49,-1,-1,191.366,0
     0,0,0,0,0,0,0,0,0,470.965,952.381,-1,-1,191.386,0
     0,0,0,0,0,0,0,0,0,498.231,881.484,-1,-1,191.406,0
     0,0,0,0,0,0,0,0,0,445.236,783.945,-1,-1,191.432,0
     0,0,0,0,0,0,0,0,0,423.307,833.16,-1,-1,191.445,0
     0,0,0,0,0,0,0,0,0,485.625,867.34,-1,-1,191.465,0
     0,0,0,0,0,0,0,0,0,693.722,948.632,-1,-1,191.486,0
     0,0,0,0,0,0,0,0,0,536.409,741.922,-1,-1,191.506,0
     0,0,0,0,0,0,0,0,0,605.07,920.006,-1,-1,191.526,0
     0,0,0,0,0,0,0,0,0,728.677,730.353,-1,-1,191.546,0
     0,0,0,0,0,0,0,0,0,763.709,706.514,-1,-1,191.565,0
     0,0,0,0,0,0,0,0,0,792.236,796.052,-1,-1,191.589,0
     0,0,0,0,0,0,0,0,0,819.639,769.053,-1,-1,191.607,0
     0,0,0,0,0,0,0,0,0,815.86,692.401,-1,-1,191.626,0
     0,0,0,0,0,0,0,0,0,745.045,809.782,-1,-1,191.645,0
     0,0,0,0,0,0,0,0,0,989.658,849.041,-1,-0.889764,191.667,0
     0,0,0,0,0,0,0,0,0,917.473,871.764,-1,-0.661417,191.685,0
     0,0,0,0,0,0,0,0,0,824.436,709.799,-1,-0.409449,191.725,0
     0,0,0,0,0,0,0,0,0,972.101,409.584,-1,-0.0866142,191.749,0
     0,0,0,0,0,0,0,0,0,916.128,339.593,-1,0.0078125,191.766,0
     0,0,0,0,0,0,0,0,0,864.454,219.908,-1,0.0078125,191.786,0
     0,0,0,0,0,0,0,0,0,1034.5,180.615,-1,0.0078125,191.806,0
     0,0,0,0,0,0,0,0,0,1101.14,146.05,-1,0.0234375,191.826,0
     0,0,0,0,0,0,0,0,0,1032.26,72.7461,-1,0.09375,191.846,0
     0,0,0,0,0,0,0,0,0,1129.94,72.7461,-1,0.195312,191.866,0
     0,0,0,0,0,0,0,0,0,1114.21,-114.423,-1,0.40625,191.892,0
     0,0,0,0,0,0,0,0,0,1214.99,-208.466,-1,0.554688,191.907,0
     0,0,0,0,0,0,0,0,0,1137.07,-193.892,-1,0.71875,191.926,0
     0,0,0,0,0,0,0,0,0,1130.77,-570.581,-1,0.78125,191.946,0
     0,0,0,0,0,0,0,0,0,1161.24,-484.215,-1,0.789062,191.966,0
     0,0,0,0,0,0,0,0,0,1150.75,-599.125,-1,0.789062,191.988,0
     0,0,0,0,0,0,0,0,0,1347.35,-703.977,-1,0.789062,192.006,0
     0,0,0,0,0,0,0,0,0,1183.5,-803.955,-1,0.789062,192.026,0
     0,0,0,0,0,0,0,0,0,1287.5,-897.545,-1,0.789062,192.047,0
     0,0,0,0,0,0,0,0,0,1214.03,-1001.5,-1,0.726562,192.066,0
     0,0,0,0,0,0,0,0,0,1246.57,-992.014,-1,0.695312,192.086,0
     0,0,0,0,0,0,0,0,0,1051.86,-874.393,-1,0.570312,192.106,0
     0,0,0,0,0,0,0,0,0,1112.78,-978.33,-1,0.335938,192.126,0
     0,0,0,0,0,0,0,0,0,1164.21,-1030.61,-1,0.117188,192.146,0
     0,0,0,0,0,0,0,0,0,1179.45,-676.75,-1,0.03125,192.167,0
     0,0,0,0,0,0,0,0,0,1406.57,-594.407,-1,0.0078125,192.186,0
     0,0,0,0,0,0,0,0,0,1161.24,-691.874,-1,0.0078125,192.206,0
     0,0,0,0,0,0,0,0,0,1314.23,-909.67,-1,0.0078125,192.227,0
     0,0,0,0,0,0,0,0,0,1255.41,-797.671,-1,-0,192.246,0
     0,0,0,0,0,0,0,0,0,1255.41,-817.628,-1,-0.0944882,192.266,0
     0,0,0,0,0,0,0,0,0,1288.49,-653.488,-1,-0.283465,192.286,0
     0,0,0,0,0,0,0,0,0,1334.76,-407.756,-1,-0.283465,192.306,0
     0,0,0,0,0,0,0,0,0,1297.27,-141.753,-1,-0.417323,192.326,0
     0,0,0,0,0,0,0,0,0,1282.71,-103.286,-1,-0.519685,192.346,0
     0,0,0,0,0,0,0,0,0,1114.45,14.7628,-1,-0.535433,192.366,0
     0,0,0,0,0,0,0,0,0,1268.55,122.73,-1,-0.535433,192.386,0
     0,0,0,0,0,0,0,0,0,1178,191.712,-1,-0.417323,192.406,0
     0,0,0,0,0,0,0,0,0,1221.52,113.874,-1,-0.330709,192.425,0
     0,0,0,0,0,0,0,0,0,1145.15,63.8032,-1,-0.19685,192.446,0
     0,0,0,0,0,0,0,0,0,1281.89,63.8032,-1,-0.125984,192.465,0
     0,0,0,0,0,0,0,0,0,1282.79,63.8032,-1,-0.0472441,192.485,0
     0,0,0,0,0,0,0,0,0,1193.39,-52.4983,-1,-0.00787402,192.507,0
     0,0,0,0,0,0,0,0,0,1043.19,-251.975,-1,0.0078125,192.526,0
     0,0,0,0,0,0,0,0,0,1046.13,-363.808,-1,0.0078125,192.546,0
     0,0,0,0,0,0,0,0,0,1088.61,-481.07,-1,0.0078125,192.566,0
     0,0,0,0,0,0,0,0,0,1002.1,-435.455,-1,0.0078125,192.586,0
     0,0,0,0,0,0,0,0,0,1023.86,-512.742,-1,0.0078125,192.606,0
     0,0,0,0,0,0,0,0,0,1229.79,-649.372,-1,0.0078125,192.626,0
     0,0,0,0,0,0,0,0,0,1112.59,-583.107,-1,0.0078125,192.646,0
     0,0,0,0,0,0,0,0,0,1110.25,-572.05,-1,0.0078125,192.666,0
     0,0,0,0,0,0,0,0,0,1251.88,-625.763,-1,0.0078125,192.686,0
     0,0,0,0,0,0,0,0,0,1170,-680.272,-1,0.0078125,192.706,0
     0,0,0,0,0,0,0,0,0,1142.86,-726.058,-1,0.0078125,192.726,0
     0,0,0,0,0,0,0,0,0,1243.16,-711.744,-1,0.0078125,192.746,0
     0,0,0,0,0,0,0,0,0,1291.32,-747.384,-1,0.0078125,192.766,0
     0,0,0,0,0,0,0,0,0,1251.25,-769.112,-1,0.0078125,192.786,0
     0,0,0,0,0,0,0,0,0,1147.71,-701.09,-1,0.0078125,192.806,0
     0,0,0,0,0,0,0,0,0,1194.53,-786.906,-1,0.0078125,192.826,0
     0,0,0,0,0,0,0,0,0,1205.18,-576.17,-1,0.0078125,192.846,0
     0,0,0,0,0,0,0,0,0,1155.27,-1024.17,-1,0.0078125,192.866,0
     0,0,0,0,0,0,0,0,0,1160.5,-833.056,-1,0.0078125,192.885,0
     0,0,0,0,0,0,0,0,0,1174.12,-875.388,-1,0.0078125,192.906,0
     0,0,0,0,0,0,0,0,0,1235.56,-863.968,-1,0.0078125,192.926,0
     0,0,0,0,0,0,0,0,0,1211.61,-947.284,-1,0.0078125,192.946,0
     0,0,0,0,0,0,0,0,0,1170.34,-819.874,-1,0.0078125,192.966,0
     0,0,0,0,0,0,0,0,0,1264.7,-860.104,-1,0.0078125,192.986,0
     0,0,0,0,0,0,0,0,0,1145.15,-893.296,-1,0.0078125,193.007,0
     0,0,0,0,0,0,0,0,0,1143.97,-936.9,-1,0.0078125,193.025,0
     0,0,0,0,0,0,0,0,0,1322.66,-880.824,-1,0.0078125,193.047,0
     0,0,0,0,0,0,0,0,0,1181.33,-939.011,-1,0.0078125,193.066,0
     0,0,0,0,0,0,0,0,0,1305.4,-1060,-1,0.0078125,193.086,0
     0,0,0,0,0,0,0,0,0,1239,-1132.05,-1,0.0078125,193.107,0
     0,0,0,0,0,0,0,0,0,1252.58,-673.923,-1,0.0078125,193.125,0
     0,0,0,0,0,0,0,0,0,1243.16,-1095.29,-1,0.0078125,193.145,0
     0,0,0,0,0,0,0,0,0,1352.54,-1038.96,-1,0.0078125,193.166,0
     0,0,0,0,0,0,0,0,0,1327.67,-1002.2,-1,-0.0708661,193.187,0
     0,0,0,0,0,0,0,0,0,1275.35,-823.045,-1,-0.141732,193.206,0
     0,0,0,0,0,0,0,0,0,1189.27,-489.428,-1,-0.173228,193.226,0
     0,0,0,0,0,0,0,0,0,1331.56,-335.452,-1,-0.173228,193.246,0
     0,0,0,0,0,0,0,0,0,1316.83,-194.882,-1,-0.173228,193.266,0
     0,0,0,0,0,0,0,0,0,1240.77,-157.229,-1,-0.173228,193.292,0
     0,0,0,0,0,0,0,0,0,1351.81,-128.583,-1,-0.173228,193.312,0
     0,0,0,0,0,0,0,0,0,1374.38,-110.455,-1,-0.173228,193.326,0
     0,0,0,0,0,0,0,0,0,1161.51,-83.8571,-1,-0.173228,193.346,0
     0,0,0,0,0,0,0,0,0,1305.14,-65.262,-1,-0.173228,193.366,0
     0,0,0,0,0,0,0,0,0,1339.58,-75.4193,-1,-0.181102,193.386,0
     0,0,0,0,0,0,0,0,0,1363.79,-44.9803,-1,-0.181102,193.406,0
     0,0,0,0,0,0,0,0,0,1149.1,-36.9852,-1,-0.181102,193.426,0
     0,0,0,0,0,0,0,0,0,1146.2,-80.1918,-1,-0.181102,193.446,0
     0,0,0,0,0,0,0,0,0,1248.99,-71.8079,-1,-0.181102,193.466,0
     0,0,0,0,0,0,0,0,0,1216.03,-71.0374,-1,-0.188976,193.486,0
     0,0,0,0,0,0,0,0,0,1163.81,-83.0917,-1,-0.188976,193.506,0
     0,0,0,0,0,0,0,0,0,1246.49,-67.2791,-1,-0.188976,193.526,0
     0,0,0,0,0,0,0,0,0,1178.55,-102.915,-1,-0.188976,193.546,0
     0,0,0,0,0,0,0,0,0,1093.37,-110.195,-1,-0.188976,193.566,0
     0,0,0,0,0,0,0,0,0,1089.32,-81.6023,-1,-0.188976,193.587,0
     0,0,0,0,0,0,0,0,0,1011.22,-59.8684,-1,-0.188976,193.606,0
     0,0,0,0,0,0,0,0,0,1207.07,-81.4535,-1,-0.188976,193.626,0
     0,0,0,0,0,0,0,0,0,1028.01,-55.484,-1,-0.0629921,193.647,0
     0,0,0,0,0,0,0,0,0,1115.95,-156.831,-1,-0.023622,193.69,0
     0,0,0,0,0,0,0,0,0,1136.11,-203.143,-1,0.0078125,193.707,0
     0,0,0,0,0,0,0,0,0,1045.64,-274.99,-1,0.0078125,193.726,0
     0,0,0,0,0,0,0,0,0,1117.94,-323.536,-1,0.0078125,193.746,0
     0,0,0,0,0,0,0,0,0,1142.99,-319.576,-1,0.0078125,193.765,0
     0,0,0,0,0,0,0,0,0,1076.66,-373.455,-1,0.0078125,193.785,0
     0,0,0,0,0,0,0,0,0,1147.12,-281.33,-1,0.0078125,193.806,0
     0,0,0,0,0,0,0,0,0,1144.23,-367.742,-1,0.0078125,193.836,0
     0,0,0,0,0,0,0,0,0,1042.7,-372.898,-1,0.0078125,193.849,0
     0,0,0,0,0,0,0,0,0,1126.7,-323.243,-1,0.0078125,193.866,0
     0,0,0,0,0,0,0,0,0,1229.79,-405.186,-1,0.0078125,193.886,0
     0,0,0,0,0,0,0,0,0,1182.45,-419.059,-1,0.0078125,193.906,0
     0,0,0,0,0,0,0,0,0,1193.25,-428.954,-1,0.0078125,193.926,0
     0,0,0,0,0,0,0,0,0,1160.77,-576.07,-1,0.0078125,193.947,0
     0,0,0,0,0,0,0,0,0,1166.11,-473.754,-1,0.0078125,193.966,0
     0,0,0,0,0,0,0,0,0,1195.53,-330.699,-1,0.0078125,193.993,0
     0,0,0,0,0,0,0,0,0,1173.92,-549.466,-1,0.0078125,194.006,0
     0,0,0,0,0,0,0,0,0,1196.74,-642.343,-1,0.0078125,194.026,0
     0,0,0,0,0,0,0,0,0,1144.75,-629.386,-1,0.0078125,194.046,0
     0,0,0,0,0,0,0,0,0,1122.59,-581.615,-1,0.0078125,194.065,0
     0,0,0,0,0,0,0,0,0,1147.45,-637.633,-1,0.0078125,194.086,0
     0,0,0,0,0,0,0,0,0,1114.27,-669.344,-1,0.0078125,194.105,0
     0,0,0,0,0,0,0,0,0,1290.49,-718.83,-1,0.0078125,194.126,0
     0,0,0,0,0,0,0,0,0,1216.18,-725.689,-1,0.0078125,194.146,0
     0,0,0,0,0,0,0,0,0,1085.54,-656.944,-1,0.0078125,194.166,0
     0,0,0,0,0,0,0,0,0,1190.76,-744.546,-1,0.0078125,194.186,0
     0,0,0,0,0,0,0,0,0,1216.99,-783.147,-1,0.0078125,194.206,0
     0,0,0,0,0,0,0,0,0,1201.85,-816.993,-1,0.0078125,194.238,0
     0,0,0,0,0,0,0,0,0,1144.49,-929.887,-1,0.0078125,194.246,0
     0,0,0,0,0,0,0,0,0,1015.9,-864.118,-1,0.0078125,194.265,0
     0,0,0,0,0,0,0,0,0,1252.74,-839.525,-1,0.0078125,194.297,0
     0,0,0,0,0,0,0,0,0,1163.2,-795.007,-1,0.0078125,194.308,0
     0,0,0,0,0,0,0,0,0,1339.58,-961.261,-1,0.0078125,194.326,0
     0,0,0,0,0,0,0,0,0,1057.03,-625.939,-1,0.0078125,194.346,0
     0,0,0,0,0,0,0,0,0,1155.8,-1016.67,-1,0.0078125,194.367,0
     0,0,0,0,0,0,0,0,0,1339.5,-843.704,-1,0.0078125,194.386,0
     0,0,0,0,0,0,0,0,0,1333.6,-996.165,-1,0.0078125,194.406,0
     0,0,0,0,0,0,0,0,0,1265.98,-987.801,-1,0.0078125,194.426,0
     0,0,0,0,0,0,0,0,0,1255.89,-983.526,-1,0.0078125,194.446,0
     0,0,0,0,0,0,0,0,0,1350.26,-1099.14,-1,0.0078125,194.468,0
     0,0,0,0,0,0,0,0,0,1232.29,-1145.54,-1,0.0078125,194.486,0
     0,0,0,0,0,0,0,0,0,1263.1,-983.671,-1,0.0078125,194.505,0
     0,0,0,0,0,0,0,0,0,1323.45,-1060.22,-1,0.0078125,194.525,0
     0,0,0,0,0,0,0,0,0,1306.93,-872.068,-1,0.0078125,194.545,0
     0,0,0,0,0,0,0,0,0,1345.8,-1014.71,-1,0.0078125,194.565,0
     0,0,0,0,0,0,0,0,0,1296.76,-1257.55,-1,0.0078125,194.585,0
     0,0,0,0,0,0,0,0,0,1320.04,-657.7,-1,0.0078125,194.605,0
     0,0,0,0,0,0,0,0,0,1308.39,-1255.02,-1,0.0078125,194.626,0
     0,0,0,0,0,0,0,0,0,1358.97,-1243.86,-1,0.0078125,194.647,0
     0,0,0,0,0,0,0,0,0,1222.12,-1109.57,-1,-0.0629921,194.666,0
     0,0,0,0,0,0,0,0,0,1123.78,-837.346,-1,-0.173228,194.686,0
     0,0,0,0,0,0,0,0,0,1264.86,-575.871,-1,-0.267717,194.707,0
     0,0,0,0,0,0,0,0,0,1250.23,-348.05,-1,-0.299213,194.725,0
     0,0,0,0,0,0,0,0,0,1279.59,-101.315,-1,-0.314961,194.761,0
     0,0,0,0,0,0,0,0,0,1275.1,-117.953,-1,-0.314961,194.767,0
     0,0,0,0,0,0,0,0,0,1420.35,-93.3058,-1,-0.322835,194.785,0
     0,0,0,0,0,0,0,0,0,1214.26,-93.3058,-1,-0.322835,194.806,0
     0,0,0,0,0,0,0,0,0,1353.18,-93.3058,-1,-0.322835,194.825,0
     0,0,0,0,0,0,0,0,0,1249.61,-93.3058,-1,-0.322835,194.847,0
     0,0,0,0,0,0,0,0,0,1202.07,-5.38315,-1,-0.322835,194.866,0
     0,0,0,0,0,0,0,0,0,1067.24,-5.38315,-1,-0.322835,194.886,0
     0,0,0,0,0,0,0,0,0,1141.49,-5.38315,-1,-0.322835,194.906,0
     0,0,0,0,0,0,0,0,0,1155.54,-5.38315,-1,-0.322835,194.926,0
     0,0,0,0,0,0,0,0,0,1134.94,-5.38315,-1,-0.401575,194.946,0
     0,0,0,0,0,0,0,0,0,1096.49,-5.38315,-1,-0.456693,194.966,0
     0,0,0,0,0,0,0,0,0,1090.1,4.67016,-1,-0.519685,194.985,0
     0,0,0,0,0,0,0,0,0,977.135,115.58,-1,-0.527559,195.007,0
     0,0,0,0,0,0,0,0,0,1055.52,126.882,-1,-0.448819,195.025,0
     0,0,0,0,0,0,0,0,0,1143.97,159.502,-1,-0.259843,195.045,0
     0,0,0,0,0,0,0,0,0,1033.59,156.827,-0.921875,-0.133858,195.065,0
     0,0,0,0,0,0,0,0,0,1067.92,119.836,-0.671875,-0.00787402,195.085,0
     0,0,0,0,0,0,0,0,0,929.973,-16.3815,-0.304688,0.0078125,195.106,0
     0,0,0,0,0,0,0,0,0,874.776,-220.032,-0.0078125,0.0078125,195.129,0
     0,0,0,0,0,0,0,0,0,829.566,-294.95,-0.0078125,0.0078125,195.146,0
     0,0,0,0,0,0,0,0,0,678.495,-386.22,-0.0078125,0.0078125,195.166,0
     0,0,0,0,0,0,0,0,0,697.472,-395.054,-0.0078125,0.0078125,195.189,0
     0,0,0,0,0,0,0,0,0,696.646,-461.318,-0.0078125,0.0078125,195.206,0
     0,0,0,0,0,0,0,0,0,661.288,-392.341,-0.0078125,0.0078125,195.226,0
     0,0,0,0,0,0,0,0,0,525.072,-417.502,-0.0078125,0.0078125,195.245,0
     0,0,0,0,0,0,0,0,0,614.723,-408.305,-0.0078125,0.0078125,195.265,0
     0,0,0,0,0,0,0,0,0,578.269,-481.916,-0.0078125,0.0078125,195.286,0
     0,0,0,0,0,0,0,0,0,484.402,-427.734,-0.0078125,0.0078125,195.305,0
     0,0,0,0,0,0,0,0,0,428.623,-553.495,-0.0078125,0.0078125,195.326,0
     0,0,0,0,0,0,0,0,0,459.58,-459.559,-0.0078125,0.0078125,195.35,0
     0,0,0,0,0,0,0,0,0,443.125,-408.355,-0.0078125,0.0078125,195.386,0
     0,0,0,0,0,0,0,0,0,433.614,-406.05,-0.0078125,0.0078125,195.408,0
     0,0,0,0,0,0,0,0,0,375.46,-397.891,-0.0078125,0.0078125,195.425,0
     0,0,0,0,0,0,0,0,0,317.249,-354.396,-0.0078125,0.0078125,195.446,0
     0,0,0,0,0,0,0,0,0,343.483,-335.739,-0.0703125,0.0078125,195.466,0
     0,0,0,0,0,0,0,0,0,331.95,-353.507,-0.140625,0.0078125,195.486,0
     0,0,0,0,0,0,0,0,0,300.765,-207.14,-0.242188,0.0078125,195.506,0
     0,0,0,0,0,0,0,0,0,314.08,-288.88,-0.28125,0.0078125,195.526,0
     0,0,0,0,0,0,0,0,0,312.037,-257.602,-0.296875,0.0078125,195.546,0
     0,0,0,0,0,0,0,0,0,298.797,-279.482,-0.3125,0.0078125,195.566,0
     0,0,0,0,0,0,0,0,0,350.711,-214.65,-0.320312,0.0078125,195.59,0
     0,0,0,0,0,0,0,0,0,302.183,-232.264,-0.328125,0.0078125,195.614,0
     0,0,0,0,0,0,0,0,0,257.659,-239.659,-0.335938,0.0078125,195.626,0
     0,0,0,0,0,0,0,0,0,275.122,-245.972,-0.335938,0.0078125,195.646,0
     0,0,0,0,0,0,0,0,0,285.804,-247.249,-0.34375,0.0078125,195.666,0
     0,0,0,0,0,0,0,0,0,286.549,-261.114,-0.34375,0.0078125,195.686,0
     0,0,0,0,0,0,0,0,0,311.468,-285.14,-0.351562,0.0078125,195.706,0
     0,0,0,0,0,0,0,0,0,287.604,-282.65,-0.351562,0.0078125,195.742,0
     0,0,0,0,0,0,0,0,0,300.58,-316.827,-0.351562,0.0078125,195.747,0
     0,0,0,0,0,0,0,0,0,298.815,-284.224,-0.351562,0.0078125,195.765,0
     0,0,0,0,0,0,0,0,0,275.824,-300.661,-0.351562,0.0078125,195.785,0
     0,0,0,0,0,0,0,0,0,296.323,-267.03,-0.351562,0.0078125,195.806,0
     0,0,0,0,0,0,0,0,0,317.395,-327.874,-0.351562,0.0078125,195.826,0
     0,0,0,0,0,0,0,0,0,297.539,-277.419,-0.351562,0.0078125,195.846,0
     0,0,0,0,0,0,0,0,0,316.401,-285.152,-0.351562,0.0078125,195.866,0
     0,0,0,0,0,0,0,0,0,358.449,-327.049,-0.351562,0.0078125,195.886,0
     0,0,0,0,0,0,0,0,0,316.301,-294.083,-0.351562,0.0078125,195.91,0
     0,0,0,0,0,0,0,0,0,349.785,-342.677,-0.351562,0.0078125,195.926,0
     0,0,0,0,0,0,0,0,0,332.718,-304.053,-0.351562,0.0078125,195.946,0
     0,0,0,0,0,0,0,0,0,310.342,-283.266,-0.351562,0.0078125,195.966,0
     0,0,0,0,0,0,0,0,0,385.981,-314.411,-0.351562,0.0078125,195.986,0
     0,0,0,0,0,0,0,0,0,351.339,-367.208,-0.351562,0.0078125,196.007,0
     0,0,0,0,0,0,0,0,0,343.595,-350.048,-0.351562,0.0078125,196.026,0
     0,0,0,0,0,0,0,0,0,378.143,-377.273,-0.351562,0.0078125,196.046,0
     0,0,0,0,0,0,0,0,0,340.855,-338.834,-0.351562,0.0078125,196.065,0
     0,0,0,0,0,0,0,0,0,339.905,-399.952,-0.351562,0.0078125,196.085,0
     0,0,0,0,0,0,0,0,0,344.234,-341.215,-0.351562,0.0078125,196.106,0
     0,0,0,0,0,0,0,0,0,373.532,-341.163,-0.351562,0.0078125,196.126,0
     0,0,0,0,0,0,0,0,0,384.978,-365.303,-0.351562,0.0078125,196.146,0
     0,0,0,0,0,0,0,0,0,393.059,-338.983,-0.351562,0.0078125,196.166,0
     0,0,0,0,0,0,0,0,0,357.795,-394.781,-0.351562,0.0078125,196.186,0
     0,0,0,0,0,0,0,0,0,346.129,-352.088,-0.351562,0.0078125,196.206,0
     0,0,0,0,0,0,0,0,0,383.178,-359.887,-0.289062,0.0078125,196.226,0
     0,0,0,0,0,0,0,0,0,360.601,-340.431,-0.234375,0.0078125,196.246,0
     0,0,0,0,0,0,0,0,0,325.648,-313.234,-0.117188,0.0078125,196.266,0
     0,0,0,0,0,0,0,0,0,332.325,-353.532,-0.03125,0.0078125,196.286,0
     0,0,0,0,0,0,0,0,0,346.392,-336.095,-0.0078125,0.0078125,196.306,0
     0,0,0,0,0,0,0,0,0,300.282,-317.138,-0.0078125,0.0078125,196.326,0
     0,0,0,0,0,0,0,0,0,311.318,-243.721,-0.0078125,0.0078125,196.346,0
     0,0,0,0,0,0,0,0,0,234.052,-308.599,-0.0078125,0.0078125,196.365,0
     0,0,0,0,0,0,0,0,0,242.63,-302.668,-0.0078125,0.0078125,196.385,0
     0,0,0,0,0,0,0,0,0,265.926,-296.226,-0.0078125,0.0078125,196.405,0
     0,0,0,0,0,0,0,0,0,236.3,-228.642,-0.0078125,0.0078125,196.425,0
     0,0,0,0,0,0,0,0,0,236.625,-238.214,-0.0078125,0.0078125,196.445,0
     0,0,0,0,0,0,0,0,0,216.036,-230.856,-0.0078125,0.0078125,196.465,0
     0,0,0,0,0,0,0,0,0,196.05,-208.156,-0.0078125,0.0078125,196.488,0
     0,0,0,0,0,0,0,0,0,191.525,-195.53,-0.0078125,0.0078125,196.507,0
     0,0,0,0,0,0,0,0,0,175.425,-174.814,-0.0078125,0.0078125,196.526,0
     0,0,0,0,0,0,0,0,0,156.719,-180.041,-0.0078125,0.0078125,196.546,0
     0,0,0,0,0,0,0,0,0,147.219,-164.07,-0.0078125,0.0078125,196.566,0
     0,0,0,0,0,0,0,0,0,142.745,-145.783,-0.0078125,0.0078125,196.586,0
     0,0,0,0,0,0,0,0,0,132.703,-119.451,-0.0078125,0.0078125,196.606,0
     0,0,0,0,0,0,0,0,0,116.76,-121.505,-0.0078125,0.0078125,196.626,0
     0,0,0,0,0,0,0,0,0,103,-115.727,-0.0078125,0.0078125,196.646,0
     0,0,0,0,0,0,0,0,0,94.4666,-102.064,-0.0078125,0.0078125,196.666,0
     0,0,0,0,0,0,0,0,0,83.9708,-96.3591,-0.0078125,0.0078125,196.685,0
     0,0,0,0,0,0,0,0,0,70.6452,-77.5086,-0.0078125,0.0078125,196.706,0
     0,0,0,0,0,0,0,0,0,61.3791,-55.9953,-0.0078125,0.0078125,196.725,0
     0,0,0,0,0,0,0,0,0,52.1298,-52.2027,-0.0078125,0.0078125,196.746,0
     0,0,0,0,0,0,0,0,0,39.0601,-41.7484,-0.0078125,0.0078125,196.765,0
     0,0,0,0,0,0,0,0,0,32.5886,-36.336,-0.0078125,0.0078125,196.786,0
     0,0,0,0,0,0,0,0,0,23.4078,-30.1169,-0.0078125,0.0078125,196.806,0
     0,0,0,0,0,0,0,0,0,23.4078,-22.7018,0,0.0078125,196.826,0
     0,0,0,0,0,0,0,0,0,23.4078,-22.7018,0.023622,0.0078125,196.846,0
     0,0,0,0,0,0,0,0,0,23.4078,-22.7018,0.0787402,0.0078125,196.867,0
     0,0,0,0,0,0,0,0,0,23.4078,-22.7018,0.149606,-0.0629921,196.886,0
     0,0,0,0,0,0,0,0,0,0,-22.7018,0.267717,-0.149606,196.906,0
     0,0,0,0,0,0,0,0,0,-66.2195,-22.7018,0.370079,-0.322835,196.926,0
     0,0,0,0,0,0,0,0,0,-63.3421,137.375,0.511811,-0.488189,196.946,0
     0,0,0,0,0,0,0,0,0,-116.255,188.856,0.637795,-0.574803,196.966,0
     0,0,0,0,0,0,0,0,0,-245.673,251.699,0.700787,-0.685039,196.985,0
     0,0,0,0,0,0,0,0,0,-299.056,293.358,0.818898,-0.748031,197.006,0
     0,0,0,0,0,0,0,0,0,-390.038,411.599,0.897638,-0.858268,197.025,0
     0,0,0,0,0,0,0,0,0,-522.575,408.53,0.976378,-0.92126,197.045,0
     0,0,0,0,0,0,0,0,0,-600.492,542.844,1,-0.984252,197.067,0
     0,0,0,0,0,0,0,0,0,-632.251,807.494,1,-1,197.086,0
     0,0,0,0,0,0,0,0,0,-731.475,654.772,1,-1,197.106,0
     0,0,0,0,0,0,0,0,0,-737.49,606.042,1,-1,197.126,0
     0,0,0,0,0,0,0,0,0,-926.913,849.582,1,-1,197.146,0
     0,0,0,0,0,0,0,0,0,-938.923,948.767,1,-1,197.166,0
     0,0,0,0,0,0,0,0,0,-938.13,955.795,1,-0.889764,197.19,0
     0,0,0,0,0,0,0,0,0,-992.507,884.447,1,-0.669291,197.207,0
     0,0,0,0,0,0,0,0,0,-1032.68,907.894,1,-0.417323,197.226,0
     0,0,0,0,0,0,0,0,0,-1107.54,939.938,1,-0.023622,197.246,0
     0,0,0,0,0,0,0,0,0,-1312.94,901.266,1,0.0078125,197.267,0
     0,0,0,0,0,0,0,0,0,-1184.69,1053.19,1,0.0078125,197.285,0
     0,0,0,0,0,0,0,0,0,-1213.96,1004.57,1,0.0078125,197.306,0
     0,0,0,0,0,0,0,0,0,-1136.49,1011.68,1,0.0078125,197.326,0
     0,0,0,0,0,0,0,0,0,-1115.01,944.376,1,0.0078125,197.349,0
     0,0,0,0,0,0,0,0,0,-1250.39,911.577,1,0.03125,197.385,0
     0,0,0,0,0,0,0,0,0,-1069.8,739.481,1,0.03125,197.388,0
     0,0,0,0,0,0,0,0,0,-1103.2,774.024,1,0.09375,197.41,0
     0,0,0,0,0,0,0,0,0,-1136.23,519.332,0.929134,0.328125,197.426,0
     0,0,0,0,0,0,0,0,0,-1152.41,362.878,0.913386,0.4375,197.446,0
     0,0,0,0,0,0,0,0,0,-1028.49,250.815,0.897638,0.585938,197.466,0
     0,0,0,0,0,0,0,0,0,-997.606,72.9177,0.88189,0.695312,197.486,0
     0,0,0,0,0,0,0,0,0,-1077.12,-107.081,0.88189,0.804688,197.506,0
     0,0,0,0,0,0,0,0,0,-1034.55,-305.283,0.88189,0.859375,197.533,0
     0,0,0,0,0,0,0,0,0,-972.384,-461.99,0.88189,0.921875,197.572,0
     0,0,0,0,0,0,0,0,0,-985.319,-432.891,0.88189,0.921875,197.575,0
     0,0,0,0,0,0,0,0,0,-909.298,-467.585,0.866142,0.9375,197.586,0
     0,0,0,0,0,0,0,0,0,-1036.65,-383.186,0.677165,0.960938,197.612,0
     0,0,0,0,0,0,0,0,0,-908.595,-429.793,0.496063,0.976562,197.629,0
     0,0,0,0,0,0,0,0,0,-791.985,-511.653,0.330709,0.992188,197.647,0
     0,0,0,0,0,0,0,0,0,-713.343,-491.063,0.220472,1,197.667,0
     0,0,0,0,0,0,0,0,0,-679.602,-611.06,0.125984,1,197.687,0
     0,0,0,0,0,0,0,0,0,-566.187,-702.149,0.023622,1,197.707,0
     0,0,0,0,0,0,0,0,0,-453.33,-668.628,-0.0078125,1,197.726,0
     0,0,0,0,0,0,0,0,0,-454.102,-727.882,-0.0078125,1,197.746,0
     0,0,0,0,0,0,0,0,0,-378.222,-732.306,-0.0078125,1,197.767,0
     0,0,0,0,0,0,0,0,0,-245.86,-806.192,-0.0078125,1,197.785,0
     0,0,0,0,0,0,0,0,0,-332.541,-751.512,-0.0078125,1,197.806,0
     0,0,0,0,0,0,0,0,0,-356.138,-932.227,-0.015625,1,197.826,0
     0,0,0,0,0,0,0,0,0,-113.869,-956.846,-0.046875,1,197.846,0
     0,0,0,0,0,0,0,0,0,-82.3045,-1151.28,-0.09375,1,197.867,0
     0,0,0,0,0,0,0,0,0,-28.5335,-1033.54,-0.164062,1,197.886,0
     0,0,0,0,0,0,0,0,0,0,-886.486,-0.21875,1,197.906,0
     0,0,0,0,0,0,0,0,0,156.847,-642.281,-0.304688,1,197.937,0
     0,0,0,0,0,0,0,0,0,170.24,-1105.95,-0.367188,1,197.946,0
     0,0,0,0,0,0,0,0,0,244.654,-1159.49,-0.390625,1,197.966,0
     0,0,0,0,0,0,0,0,0,297.362,-1132.25,-0.445312,1,197.986,0
     0,0,0,0,0,0,0,0,0,421.097,-976.562,-0.507812,1,198.006,0
     0,0,0,0,0,0,0,0,0,467.836,-1286.34,-0.648438,1,198.031,0
     0,0,0,0,0,0,0,0,0,595.15,-1271.37,-0.75,0.890625,198.046,0
     0,0,0,0,0,0,0,0,0,642.055,-1035.52,-0.851562,0.773438,198.066,0
     0,0,0,0,0,0,0,0,0,683.55,-1100.96,-0.882812,0.703125,198.087,0
     0,0,0,0,0,0,0,0,0,704.473,-1148.9,-0.929688,0.617188,198.106,0
     0,0,0,0,0,0,0,0,0,967.773,-1090.57,-0.96875,0.578125,198.127,0
     0,0,0,0,0,0,0,0,0,953.516,-985.125,-0.984375,0.554688,198.145,0
     0,0,0,0,0,0,0,0,0,981.884,-978.474,-1,0.539062,198.165,0
     0,0,0,0,0,0,0,0,0,975.705,-800,-1,0.539062,198.186,0
     0,0,0,0,0,0,0,0,0,1107.85,-920.81,-1,0.539062,198.206,0
     0,0,0,0,0,0,0,0,0,1023.17,-949.758,-1,0.539062,198.226,0
     0,0,0,0,0,0,0,0,0,1034.5,-1011.38,-1,0.539062,198.246,0
     0,0,0,0,0,0,0,0,0,1148.7,-951.52,-1,0.539062,198.266,0
     0,0,0,0,0,0,0,0,0,1262.23,-1129.37,-1,0.53125,198.286,0
     0,0,0,0,0,0,0,0,0,1142.33,-965.531,-1,0.53125,198.307,0
     0,0,0,0,0,0,0,0,0,1147.45,-879.894,-1,0.53125,198.326,0
     0,0,0,0,0,0,0,0,0,1336.36,-1018.43,-1,0.53125,198.346,0
     0,0,0,0,0,0,0,0,0,1177.79,-1173.43,-1,0.53125,198.366,0
     0,0,0,0,0,0,0,0,0,1175.02,-1040.69,-1,0.53125,198.386,0
     0,0,0,0,0,0,0,0,0,1137.27,-985.95,-1,0.53125,198.406,0
     0,0,0,0,0,0,0,0,0,1341.65,-932.097,-1,0.53125,198.429,0
     0,0,0,0,0,0,0,0,0,1127.21,-1084.89,-1,0.53125,198.467,0
     0,0,0,0,0,0,0,0,0,1376.46,-1075.79,-1,0.53125,198.472,0
     0,0,0,0,0,0,0,0,0,1293.41,-1142.99,-1,0.53125,198.495,0
     0,0,0,0,0,0,0,0,0,1213.44,-941.575,-1,0.53125,198.524,0
     0,0,0,0,0,0,0,0,0,1222.94,-1081.78,-1,0.53125,198.527,0
     0,0,0,0,0,0,0,0,0,1269.76,-980.248,-1,0.53125,198.546,0
     0,0,0,0,0,0,0,0,0,1234.8,-1108.22,-1,0.53125,198.566,0
     0,0,0,0,0,0,0,0,0,1324.06,-1160.83,-1,0.53125,198.586,0
     0,0,0,0,0,0,0,0,0,1230.92,-1016.16,-1,0.53125,198.606,0
     0,0,0,0,0,0,0,0,0,1158.28,-1100.65,-1,0.515625,198.626,0
     0,0,0,0,0,0,0,0,0,1258.26,-1092.6,-1,0.492188,198.646,0
     0,0,0,0,0,0,0,0,0,1171.23,-1087.07,-1,0.453125,198.666,0
     0,0,0,0,0,0,0,0,0,1273.8,-1067.41,-1,0.429688,198.686,0
     0,0,0,0,0,0,0,0,0,1273.16,-1065.87,-1,0.398438,198.706,0
     0,0,0,0,0,0,0,0,0,1421.97,-1238.16,-1,0.367188,198.726,0
     0,0,0,0,0,0,0,0,0,1207.66,-935.848,-1,0.34375,198.746,0
     0,0,0,0,0,0,0,0,0,1404,-866.176,-1,0.34375,198.766,0
     0,0,0,0,0,0,0,0,0,1310.1,-935.06,-1,0.34375,198.786,0
     0,0,0,0,0,0,0,0,0,1296.51,-857.192,-1,0.335938,198.806,0
     0,0,0,0,0,0,0,0,0,1356.21,-896.338,-1,0.28125,198.826,0
     0,0,0,0,0,0,0,0,0,1356.48,-694.083,-1,0.21875,198.857,0
     0,0,0,0,0,0,0,0,0,1470.26,-905.428,-1,0.171875,198.867,0
     0,0,0,0,0,0,0,0,0,1292.91,-776.79,-1,0.117188,198.886,0
     0,0,0,0,0,0,0,0,0,1260.4,-677.209,-1,0.0859375,198.905,0
     0,0,0,0,0,0,0,0,0,1267.35,-582.326,-1,0.046875,198.925,0
     0,0,0,0,0,0,0,0,0,1326.44,-646.6,-1,0.03125,198.946,0
     0,0,0,0,0,0,0,0,0,1172.88,-501.882,-1,0.015625,198.966,0
     0,0,0,0,0,0,0,0,0,1326.35,-357.022,-1,0.0078125,198.986,0
     0,0,0,0,0,0,0,0,0,1347.35,-710.555,-1,0.0078125,199.006,0
     0,0,0,0,0,0,0,0,0,1413.43,-665.934,-1,0.0078125,199.026,0
     0,0,0,0,0,0,0,0,0,1052.02,-805.088,-1,0.0078125,199.046,0
     0,0,0,0,0,0,0,0,0,1102.48,-700.943,-1,0.0078125,199.066,0
     0,0,0,0,0,0,0,0,0,1330.76,-810.636,-1,0.0078125,199.086,0
     0,0,0,0,0,0,0,0,0,1274.53,-893.815,-1,0.0078125,199.106,0
     0,0,0,0,0,0,0,0,0,1256.68,-976.801,-1,0.0078125,199.129,0
     0,0,0,0,0,0,0,0,0,1141.55,-843.455,-1,0.0078125,199.147,0
     0,0,0,0,0,0,0,0,0,1252.43,-899.361,-1,0.0078125,199.166,0
     0,0,0,0,0,0,0,0,0,1166.73,-909.339,-1,0.0078125,199.185,0
     0,0,0,0,0,0,0,0,0,1354.55,-823.791,-1,0.0078125,199.206,0
     0,0,0,0,0,0,0,0,0,1331.74,-908.513,-1,0.0078125,199.225,0
     0,0,0,0,0,0,0,0,0,1151.68,-956.251,-1,0.078125,199.245,0
     0,0,0,0,0,0,0,0,0,1211.9,-944.332,-1,0.117188,199.265,0
     0,0,0,0,0,0,0,0,0,1232.06,-503.512,-1,0.148438,199.286,0
     0,0,0,0,0,0,0,0,0,1197.1,-858.701,-1,0.15625,199.321,0
     0,0,0,0,0,0,0,0,0,1137.46,-569.298,-1,0.179688,199.353,0
     0,0,0,0,0,0,0,0,0,1147.25,-567.537,-1,0.179688,199.357,0
     0,0,0,0,0,0,0,0,0,1261.59,-623.5,-1,0.195312,199.366,0
     0,0,0,0,0,0,0,0,0,1346.8,-723.301,-1,0.234375,199.386,0
     0,0,0,0,0,0,0,0,0,1217.43,-539.665,-1,0.25,199.406,0
     0,0,0,0,0,0,0,0,0,1276.49,-758.927,-1,0.25,199.443,0
     0,0,0,0,0,0,0,0,0,1108.89,-578.336,-1,0.25,199.446,0
     0,0,0,0,0,0,0,0,0,1173.98,-723.223,-1,0.25,199.467,0
     0,0,0,0,0,0,0,0,0,1193.89,-591.961,-1,0.25,199.489,0
     0,0,0,0,0,0,0,0,0,1143.25,-465.864,-1,0.171875,199.505,0
     0,0,0,0,0,0,0,0,0,1341.92,-675.813,-1,0.140625,199.526,0
     0,0,0,0,0,0,0,0,0,1040.53,-613.685,-1,0.117188,199.546,0
     0,0,0,0,0,0,0,0,0,1190.05,-514.443,-1,0.109375,199.566,0
     0,0,0,0,0,0,0,0,0,1196.24,-615.139,-1,0.109375,199.586,0
     0,0,0,0,0,0,0,0,0,1277.71,-526.926,-1,0.109375,199.611,0
     0,0,0,0,0,0,0,0,0,1232.06,-542.829,-1,0.109375,199.626,0
     0,0,0,0,0,0,0,0,0,1139.93,-579.139,-1,0.109375,199.646,0
     0,0,0,0,0,0,0,0,0,1214.26,-510.543,-1,0.109375,199.666,0
     0,0,0,0,0,0,0,0,0,1038.21,-525.831,-1,0.109375,199.686,0
     0,0,0,0,0,0,0,0,0,1043.62,-556.096,-1,0.109375,199.706,0
     0,0,0,0,0,0,0,0,0,1239.23,-448.632,-1,0.109375,199.726,0
     0,0,0,0,0,0,0,0,0,1135.52,-467.727,-1,0.109375,199.746,0
     0,0,0,0,0,0,0,0,0,1251.33,-464.608,-1,0.109375,199.766,0
     0,0,0,0,0,0,0,0,0,1132.89,-527.621,-1,0.109375,199.785,0
     0,0,0,0,0,0,0,0,0,1343.91,-528.43,-1,0.109375,199.806,0
     0,0,0,0,0,0,0,0,0,1317.78,-545.331,-1,0.101562,199.826,0
     0,0,0,0,0,0,0,0,0,1190.12,-491.654,-1,0.101562,199.846,0
     0,0,0,0,0,0,0,0,0,1163.4,-347.222,-1,0.101562,199.866,0
     0,0,0,0,0,0,0,0,0,1072.27,-466.548,-1,0.101562,199.886,0
     0,0,0,0,0,0,0,0,0,1161.24,-454.153,-1,0.101562,199.906,0
     0,0,0,0,0,0,0,0,0,1187.58,-467.181,-1,0.101562,199.926,0
     0,0,0,0,0,0,0,0,0,1172.68,-472.769,-1,0.101562,199.946,0
     0,0,0,0,0,0,0,0,0,1196.46,-445.534,-1,0.164062,199.966,0
     0,0,0,0,0,0,0,0,0,1200.19,-545.956,-1,0.164062,199.986,0
     0,0,0,0,0,0,0,0,0,1158.55,-500.538,-1,0.242188,200.006,0
     0,0,0,0,0,0,0,0,0,1246.11,-519.103,-1,0.320312,200.026,0
     0,0,0,0,0,0,0,0,0,1099.57,-559.284,-1,0.414062,200.046,0
     0,0,0,0,0,0,0,0,0,1044.77,-664.982,-1,0.445312,200.066,0
     0,0,0,0,0,0,0,0,0,1186.59,-755.173,-1,0.46875,200.086,0
     0,0,0,0,0,0,0,0,0,1096.13,-781.036,-1,0.46875,200.105,0
     0,0,0,0,0,0,0,0,0,1054.85,-741.152,-1,0.484375,200.126,0
     0,0,0,0,0,0,0,0,0,1209.77,-712.555,-1,0.523438,200.145,0
     0,0,0,0,0,0,0,0,0,1099.69,-793.871,-1,0.5625,200.165,0
     0,0,0,0,0,0,0,0,0,1105.46,-642.901,-1,0.609375,200.185,0
     0,0,0,0,0,0,0,0,0,1330.41,-1162.99,-1,0.640625,200.206,0
     0,0,0,0,0,0,0,0,0,1053.24,-873.591,-1,0.65625,200.226,0
     0,0,0,0,0,0,0,0,0,1217.58,-825.151,-1,0.664062,200.246,0
     0,0,0,0,0,0,0,0,0,1228.27,-740.192,-1,0.671875,200.266,0
     0,0,0,0,0,0,0,0,0,1163.4,-987.118,-1,0.671875,200.287,0
     0,0,0,0,0,0,0,0,0,1309.33,-1229.63,-1,0.671875,200.306,0
     0,0,0,0,0,0,0,0,0,1181.47,-1139.41,-1,0.671875,200.326,0
     0,0,0,0,0,0,0,0,0,1200.19,-1289.82,-1,0.671875,200.346,0
     0,0,0,0,0,0,0,0,0,1287,-1013.07,-1,0.671875,200.366,0
     0,0,0,0,0,0,0,0,0,1162.52,-1137.85,-1,0.671875,200.386,0
     0,0,0,0,0,0,0,0,0,1149.16,-972.195,-1,0.671875,200.406,0
     0,0,0,0,0,0,0,0,0,1282.87,-1201.42,-1,0.671875,200.426,0
     0,0,0,0,0,0,0,0,0,1268.47,-1333.78,-1,0.671875,200.445,0
     0,0,0,0,0,0,0,0,0,1145.48,-1078.98,-1,0.679688,200.465,0
     0,0,0,0,0,0,0,0,0,1357.04,-1225.34,-1,0.679688,200.486,0
     0,0,0,0,0,0,0,0,0,1515.15,-1253.13,-1,0.679688,200.506,0
     0,0,0,0,0,0,0,0,0,1294.08,-1110.74,-1,0.679688,200.527,0
     0,0,0,0,0,0,0,0,0,1280.66,-1451.17,-1,0.679688,200.546,0
     0,0,0,0,0,0,0,0,0,1396.65,-1471.89,-1,0.679688,200.567,0
     0,0,0,0,0,0,0,0,0,1428.06,-1300.64,-1,0.679688,200.587,0
     0,0,0,0,0,0,0,0,0,1306.93,-1236.17,-1,0.679688,200.606,0
     0,0,0,0,0,0,0,0,0,1341.83,-1204.89,-1,0.679688,200.626,0
     0,0,0,0,0,0,0,0,0,1477.21,-864.79,-1,0.679688,200.646,0
     0,0,0,0,0,0,0,0,0,1344.18,-1047.23,-1,0.679688,200.667,0
     0,0,0,0,0,0,0,0,0,1236.93,-1261.99,-1,0.679688,200.7,0
     0,0,0,0,0,0,0,0,0,1244.56,-1294.75,-1,0.679688,200.708,0
     0,0,0,0,0,0,0,0,0,1282.63,-1357.5,-1,0.609375,200.728,0
     0,0,0,0,0,0,0,0,0,1404,-1305.91,-1,0.578125,200.745,0
     0,0,0,0,0,0,0,0,0,1482.91,-1116.32,-1,0.523438,200.767,0
     0,0,0,0,0,0,0,0,0,1338.06,-1177.51,-1,0.492188,200.786,0
     0,0,0,0,0,0,0,0,0,1340.66,-1090.63,-1,0.460938,200.806,0
     0,0,0,0,0,0,0,0,0,1416.53,-1239.77,-1,0.4375,200.827,0
     0,0,0,0,0,0,0,0,0,1488.76,-1048.38,-1,0.375,200.845,0
     0,0,0,0,0,0,0,0,0,1480.49,-913.826,-1,0.296875,200.866,0
     0,0,0,0,0,0,0,0,0,1340.48,-1028.07,-1,0.164062,200.886,0
     0,0,0,0,0,0,0,0,0,1431.84,-1086.43,-1,0.101562,200.906,0
     0,0,0,0,0,0,0,0,0,1359.25,-830.461,-1,0.0546875,200.926,0
     0,0,0,0,0,0,0,0,0,1428.98,-648.235,-1,0.0546875,200.946,0
     0,0,0,0,0,0,0,0,0,1482.03,-658.87,-1,0.046875,200.966,0
     0,0,0,0,0,0,0,0,0,1412.43,-529.143,-1,0.046875,200.986,0
     0,0,0,0,0,0,0,0,0,1396.16,-507.151,-1,0.046875,201.01,0
     0,0,0,0,0,0,0,0,0,1319.96,-429.83,-1,0.046875,201.026,0
     0,0,0,0,0,0,0,0,0,1354.19,-501.341,-1,0.046875,201.046,0
     0,0,0,0,0,0,0,0,0,1295.84,-429.719,-1,0.046875,201.066,0
     0,0,0,0,0,0,0,0,0,1241.62,-407.747,-1,0.03125,201.1,0
     0,0,0,0,0,0,0,0,0,1164.82,-446.927,-1,0.0234375,201.106,0
     0,0,0,0,0,0,0,0,0,1377.41,-521.145,-1,0.015625,201.127,0
     0,0,0,0,0,0,0,0,0,1147.71,-550.373,-1,0.0078125,201.146,0
     0,0,0,0,0,0,0,0,0,1311.48,-651.551,-1,0.0078125,201.165,0
     0,0,0,0,0,0,0,0,0,1404.59,-708.366,-1,0.0078125,201.186,0
     0,0,0,0,0,0,0,0,0,1169.45,-823.113,-1,0.0078125,201.206,0
     0,0,0,0,0,0,0,0,0,1322.93,-883.548,-1,0.0078125,201.226,0
     0,0,0,0,0,0,0,0,0,1207.15,-529.675,-1,0.0078125,201.246,0
     0,0,0,0,0,0,0,0,0,1262.79,-819.001,-1,0.0078125,201.266,0
     0,0,0,0,0,0,0,0,0,1135.27,-890.036,-1,0.0078125,201.286,0
     0,0,0,0,0,0,0,0,0,1189.13,-865.351,-1,0.0078125,201.305,0
     0,0,0,0,0,0,0,0,0,1253.29,-945.403,-1,0.0078125,201.326,0
     0,0,0,0,0,0,0,0,0,1272.75,-982.801,-1,0.0078125,201.346,0
     0,0,0,0,0,0,0,0,0,1261.43,-698.617,-1,0.0078125,201.366,0
     0,0,0,0,0,0,0,0,0,1190.33,-843.419,-1,0.0078125,201.386,0
     0,0,0,0,0,0,0,0,0,1299.12,-957.625,-1,0.0078125,201.406,0
     0,0,0,0,0,0,0,0,0,1344.09,-1061.97,-1,0.0078125,201.428,0
     0,0,0,0,0,0,0,0,0,1256.68,-1061.51,-1,0.0078125,201.446,0
     0,0,0,0,0,0,0,0,0,1183.43,-1037.67,-1,0.0078125,201.466,0
     0,0,0,0,0,0,0,0,0,1124.35,-1024.49,-1,0.0078125,201.486,0
     0,0,0,0,0,0,0,0,0,1051.41,-925.069,-1,0.0078125,201.506,0
     0,0,0,0,0,0,0,0,0,1220.33,-1152.6,-1,0.0078125,201.533,0
     0,0,0,0,0,0,0,0,0,1279.1,-1042.86,-1,0.0078125,201.546,0
     0,0,0,0,0,0,0,0,0,1243.24,-1192.18,-1,0.0078125,201.566,0
     0,0,0,0,0,0,0,0,0,1237.32,-1130.14,-1,0.0078125,201.586,0
     0,0,0,0,0,0,0,0,0,1211.53,-1141.81,-1,0.0078125,201.619,0
     0,0,0,0,0,0,0,0,0,1315.36,-1222.72,-1,0.0078125,201.626,0
     0,0,0,0,0,0,0,0,0,1225.64,-1007,-1,0.0078125,201.645,0
     0,0,0,0,0,0,0,0,0,1405.98,-1201.92,-1,0.0078125,201.666,0
     0,0,0,0,0,0,0,0,0,1202.21,-1101.99,-1,0.0078125,201.687,0
     0,0,0,0,0,0,0,0,0,1289.49,-1155.13,-1,0.0078125,201.707,0
     0,0,0,0,0,0,0,0,0,1272.51,-1172.88,-1,0.0078125,201.727,0
     0,0,0,0,0,0,0,0,0,1311.73,-1099.08,-1,0.0078125,201.746,0
     0,0,0,0,0,0,0,0,0,1337.79,-1304.55,-1,0.0078125,201.766,0
     0,0,0,0,0,0,0,0,0,1316.74,-1188.99,-1,0.0078125,201.786,0
     0,0,0,0,0,0,0,0,0,1240.23,-1263.82,-1,0.0078125,201.806,0
     0,0,0,0,0,0,0,0,0,1341.29,-1209.34,-1,0.0078125,201.826,0
     0,0,0,0,0,0,0,0,0,1305.99,-1196.46,-1,0.0078125,201.846,0
     0,0,0,0,0,0,0,0,0,1242.93,-1097.39,-1,0.0078125,201.866,0
     0,0,0,0,0,0,0,0,0,1386.96,-1175.09,-1,0.0078125,201.886,0
     0,0,0,0,0,0,0,0,0,1220.85,-1267.03,-1,0.0078125,201.906,0
     0,0,0,0,0,0,0,0,0,1276.49,-1409.24,-1,0.0078125,201.933,0
     0,0,0,0,0,0,0,0,0,1345.9,-1453.07,-1,0.0078125,201.947,0
     0,0,0,0,0,0,0,0,0,1251.41,-856.531,-1,0.0078125,201.966,0
     0,0,0,0,0,0,0,0,0,1342.1,-1110.86,-1,0.0078125,201.985,0
     0,0,0,0,0,0,0,0,0,1301.07,-1358.23,-1,0.0078125,202.006,0
     0,0,0,0,0,0,0,0,0,1418.44,-1105.83,-1,0.0078125,202.025,0
     0,0,0,0,0,0,0,0,0,1455.18,-1362.77,-1,0.0078125,202.049,0
     0,0,0,0,0,0,0,0,0,1191.04,-1361.29,-1,0.0078125,202.065,0
     0,0,0,0,0,0,0,0,0,1388.79,-1289.91,-1,0.0078125,202.085,0
     0,0,0,0,0,0,0,0,0,1293.08,-1319.7,-1,-0.015748,202.106,0
     0,0,0,0,0,0,0,0,0,1492.65,-996.016,-1,-0.11811,202.128,0
     0,0,0,0,0,0,0,0,0,1397.33,-952.925,-1,-0.220472,202.145,0
     0,0,0,0,0,0,0,0,0,1229.26,-643.335,-1,-0.362205,202.166,0
     0,0,0,0,0,0,0,0,0,1231.45,-264.054,-1,-0.448819,202.187,0
     0,0,0,0,0,0,0,0,0,1415.83,-96.1649,-1,-0.503937,202.206,0
     0,0,0,0,0,0,0,0,0,1211.09,-96.1649,-1,-0.543307,202.226,0
     0,0,0,0,0,0,0,0,0,1392.66,9.36994,-1,-0.598425,202.246,0
     0,0,0,0,0,0,0,0,0,1444.77,131.383,-1,-0.637795,202.266,0
     0,0,0,0,0,0,0,0,0,1242.47,192.35,-1,-0.661417,202.286,0
     0,0,0,0,0,0,0,0,0,1217.73,281.413,-1,-0.661417,202.306,0
     0,0,0,0,0,0,0,0,0,1195.03,346.2,-1,-0.669291,202.326,0
     0,0,0,0,0,0,0,0,0,1184.62,411.684,-1,-0.669291,202.346,0
     0,0,0,0,0,0,0,0,0,1131.41,275.099,-1,-0.669291,202.366,0
     0,0,0,0,0,0,0,0,0,1084.48,336.604,-1,-0.669291,202.386,0
     0,0,0,0,0,0,0,0,0,1114.52,372.926,-1,-0.669291,202.408,0
     0,0,0,0,0,0,0,0,0,1049.98,362.437,-1,-0.669291,202.425,0
     0,0,0,0,0,0,0,0,0,1065.53,325.622,-1,-0.669291,202.446,0
     0,0,0,0,0,0,0,0,0,1140.32,444.296,-1,-0.669291,202.471,0
     0,0,0,0,0,0,0,0,0,1032.36,352.547,-1,-0.669291,202.486,0
     0,0,0,0,0,0,0,0,0,1161.04,456.069,-1,-0.669291,202.506,0
     0,0,0,0,0,0,0,0,0,1029.23,378.465,-1,-0.669291,202.526,0
     0,0,0,0,0,0,0,0,0,1153.6,416.606,-1,-0.669291,202.546,0
     0,0,0,0,0,0,0,0,0,950.344,388.304,-1,-0.669291,202.566,0
     0,0,0,0,0,0,0,0,0,1020.88,336.99,-1,-0.669291,202.586,0
     0,0,0,0,0,0,0,0,0,1027.27,368.548,-1,-0.677165,202.606,0
     0,0,0,0,0,0,0,0,0,1014.92,367.519,-1,-0.677165,202.626,0
     0,0,0,0,0,0,0,0,0,1063.04,361.834,-1,-0.677165,202.646,0
     0,0,0,0,0,0,0,0,0,968.242,361.69,-1,-0.677165,202.666,0
     0,0,0,0,0,0,0,0,0,1035.68,398.113,-1,-0.677165,202.705,0
     0,0,0,0,0,0,0,0,0,1015.43,495.516,-1,-0.677165,202.729,0
     0,0,0,0,0,0,0,0,0,987.313,413.18,-1,-0.677165,202.746,0
     0,0,0,0,0,0,0,0,0,997.606,451.172,-1,-0.677165,202.766,0
     0,0,0,0,0,0,0,0,0,1031.89,422.654,-1,-0.677165,202.786,0
     0,0,0,0,0,0,0,0,0,1011.79,434.735,-1,-0.677165,202.806,0
     0,0,0,0,0,0,0,0,0,974.801,553.741,-1,-0.677165,202.826,0
     0,0,0,0,0,0,0,0,0,1052.58,516.609,-1,-0.677165,202.847,0
     0,0,0,0,0,0,0,0,0,983.913,584.864,-1,-0.677165,202.866,0
     0,0,0,0,0,0,0,0,0,998.851,520.17,-1,-0.677165,202.889,0
     0,0,0,0,0,0,0,0,0,1060.9,727.326,-1,-0.677165,202.912,0
     0,0,0,0,0,0,0,0,0,1041.23,644.517,-1,-0.677165,202.926,0
     0,0,0,0,0,0,0,0,0,1018.43,659.957,-1,-0.677165,202.946,0
     0,0,0,0,0,0,0,0,0,1085.07,668.181,-1,-0.677165,202.966,0
     0,0,0,0,0,0,0,0,0,1104.67,583.226,-1,-0.677165,202.987,0
     0,0,0,0,0,0,0,0,0,1056.19,560.02,-1,-0.677165,203.006,0
     0,0,0,0,0,0,0,0,0,959.049,523.149,-1,-0.677165,203.026,0
     0,0,0,0,0,0,0,0,0,979.768,578.118,-1,-0.598425,203.047,0
     0,0,0,0,0,0,0,0,0,989.071,391.489,-1,-0.448819,203.065,0
     0,0,0,0,0,0,0,0,0,1005.53,364.631,-1,-0.204724,203.086,0
     0,0,0,0,0,0,0,0,0,1073.48,229.001,-1,-0.00787402,203.106,0
     0,0,0,0,0,0,0,0,0,962.51,129.72,-1,0.0625,203.126,0
     0,0,0,0,0,0,0,0,0,984.3,-86.6345,-1,0.140625,203.146,0
     0,0,0,0,0,0,0,0,0,1076.54,-219.171,-1,0.21875,203.166,0
     0,0,0,0,0,0,0,0,0,1143.12,-324.575,-1,0.25,203.189,0
     0,0,0,0,0,0,0,0,0,1159.08,-343.2,-1,0.328125,203.221,0
     0,0,0,0,0,0,0,0,0,1032.42,-348.232,-1,0.328125,203.227,0
     0,0,0,0,0,0,0,0,0,1095.29,-405.31,-1,0.398438,203.246,0
     0,0,0,0,0,0,0,0,0,1043.24,-448.541,-1,0.5,203.266,0
     0,0,0,0,0,0,0,0,0,1116.82,-485.92,-1,0.507812,203.286,0
     0,0,0,0,0,0,0,0,0,1102.48,-595.185,-0.929688,0.53125,203.306,0
     0,0,0,0,0,0,0,0,0,1137.27,-572.082,-0.84375,0.59375,203.326,0
     0,0,0,0,0,0,0,0,0,1123.47,-704.498,-0.65625,0.648438,203.346,0
     0,0,0,0,0,0,0,0,0,1081.37,-714.107,-0.429688,0.726562,203.366,0
     0,0,0,0,0,0,0,0,0,1180.71,-546.224,-0.273438,0.78125,203.386,0
     0,0,0,0,0,0,0,0,0,928.591,-1083.19,-0.148438,0.8125,203.406,0
     0,0,0,0,0,0,0,0,0,732.145,-837.696,-0.0390625,0.859375,203.426,0
     0,0,0,0,0,0,0,0,0,752.53,-896.901,-0.0078125,0.875,203.446,0
     0,0,0,0,0,0,0,0,0,961.4,-935.716,-0.0078125,0.882812,203.466,0
     0,0,0,0,0,0,0,0,0,932.705,-1150.09,-0.0078125,0.882812,203.486,0
     0,0,0,0,0,0,0,0,0,806.062,-1090.39,-0.0078125,0.882812,203.506,0
     0,0,0,0,0,0,0,0,0,811.82,-1080.26,-0.0078125,0.882812,203.526,0
     0,0,0,0,0,0,0,0,0,873.668,-977.708,-0.0078125,0.882812,203.546,0
     0,0,0,0,0,0,0,0,0,1008.67,-1116.13,-0.0078125,0.882812,203.566,0
     0,0,0,0,0,0,0,0,0,934.187,-1277.55,-0.0078125,0.882812,203.586,0
     0,0,0,0,0,0,0,0,0,928.591,-1046.13,-0.0078125,0.882812,203.606,0
     0,0,0,0,0,0,0,0,0,1018.64,-1116.01,-0.0078125,0.882812,203.626,0
     0,0,0,0,0,0,0,0,0,1046.74,-1069.46,-0.0078125,0.882812,203.645,0
     0,0,0,0,0,0,0,0,0,1071.01,-1053.24,-0.0078125,0.882812,203.666,0
     0,0,0,0,0,0,0,0,0,957.304,-948.677,-0.0078125,0.882812,203.686,0
     0,0,0,0,0,0,0,0,0,1047.45,-1098.36,-0.0078125,0.882812,203.706,0
     0,0,0,0,0,0,0,0,0,1020.36,-1185.11,-0.0078125,0.882812,203.726,0
     0,0,0,0,0,0,0,0,0,1152.07,-1078.4,-0.0078125,0.882812,203.746,0
     0,0,0,0,0,0,0,0,0,1031.46,-1161.51,-0.0078125,0.882812,203.766,0
     0,0,0,0,0,0,0,0,0,900.333,-1301.83,-0.0078125,0.882812,203.786,0
     0,0,0,0,0,0,0,0,0,1048.49,-1221.75,-0.0078125,0.882812,203.806,0
     0,0,0,0,0,0,0,0,0,1105.95,-1354.37,-0.0078125,0.882812,203.826,0
     0,0,0,0,0,0,0,0,0,1067.92,-1116.01,-0.0078125,0.882812,203.846,0
     0,0,0,0,0,0,0,0,0,1025.22,-1058.87,-0.0078125,0.882812,203.866,0
     0,0,0,0,0,0,0,0,0,1082.37,-1240.16,-0.0078125,0.882812,203.886,0
     0,0,0,0,0,0,0,0,0,1109.94,-1221.3,-0.0078125,0.882812,203.905,0
     0,0,0,0,0,0,0,0,0,1121.45,-1298.11,-0.0078125,0.882812,203.926,0
     0,0,0,0,0,0,0,0,0,1126.19,-1009.44,-0.0078125,0.882812,203.946,0
     0,0,0,0,0,0,0,0,0,1046.96,-1197.53,-0.0078125,0.882812,203.966,0
     0,0,0,0,0,0,0,0,0,1180.57,-1131.67,-0.0078125,0.882812,203.986,0
     0,0,0,0,0,0,0,0,0,1099.2,-1097.76,-0.0078125,0.882812,204.006,0
     0,0,0,0,0,0,0,0,0,1073.36,-1146.72,-0.0078125,0.882812,204.026,0
     0,0,0,0,0,0,0,0,0,1173.36,-1220.7,-0.0078125,0.882812,204.046,0
     0,0,0,0,0,0,0,0,0,1217.21,-1080.38,-0.0078125,0.882812,204.066,0
     0,0,0,0,0,0,0,0,0,1145.74,-1277.63,-0.0078125,0.882812,204.085,0
     0,0,0,0,0,0,0,0,0,1202.5,-1239.85,-0.0078125,0.882812,204.105,0
     0,0,0,0,0,0,0,0,0,1114.08,-1267.67,0.015748,0.890625,204.125,0
     0,0,0,0,0,0,0,0,0,1138.24,-1266.14,0.015748,0.890625,204.146,0
     0,0,0,0,0,0,0,0,0,1197.25,-1276.81,0.0472441,0.90625,204.167,0
     0,0,0,0,0,0,0,0,0,905.018,-1302,0.0866142,0.929688,204.186,0
     0,0,0,0,0,0,0,0,0,643.977,-1421.26,0.110236,0.929688,204.207,0
     0,0,0,0,0,0,0,0,0,428.715,-1391.21,0.11811,0.929688,204.227,0
     0,0,0,0,0,0,0,0,0,319.163,-1130.71,0.11811,0.929688,204.246,0
     0,0,0,0,0,0,0,0,0,304.414,-1287.17,0.11811,0.929688,204.266,0
     0,0,0,0,0,0,0,0,0,131.942,-1561.28,0.11811,0.929688,204.287,0
     0,0,0,0,0,0,0,0,0,160.807,-1147.64,0.11811,0.929688,204.306,0
     0,0,0,0,0,0,0,0,0,128.381,-1154.07,0.11811,0.929688,204.327,0
     0,0,0,0,0,0,0,0,0,63.7747,-1291.07,0.11811,0.929688,204.347,0
     0,0,0,0,0,0,0,0,0,53.6695,-1101.81,0.11811,0.929688,204.366,0
     0,0,0,0,0,0,0,0,0,64.2197,-1385.43,0.11811,0.929688,204.385,0
     0,0,0,0,0,0,0,0,0,81.9091,-1193.39,0.11811,0.929688,204.405,0
     0,0,0,0,0,0,0,0,0,77.1168,-1120.2,0.11811,0.929688,204.426,0
     0,0,0,0,0,0,0,0,0,91.2355,-1192.96,0.11811,0.929688,204.445,0
     0,0,0,0,0,0,0,0,0,97.6419,-1233.43,0.11811,0.929688,204.466,0
     0,0,0,0,0,0,0,0,0,93.9254,-1340.66,0.11811,0.929688,204.486,0
     0,0,0,0,0,0,0,0,0,99.9915,-1316.74,0.11811,0.929688,204.506,0
     0,0,0,0,0,0,0,0,0,109.501,-1077.41,0.11811,0.929688,204.526,0
     0,0,0,0,0,0,0,0,0,101.963,-1184.76,0.11811,0.929688,204.547,0
     0,0,0,0,0,0,0,0,0,97.0681,-1237.47,0.11811,0.929688,204.566,0
     0,0,0,0,0,0,0,0,0,100.298,-1311.91,0.11811,0.835938,204.587,0
     0,0,0,0,0,0,0,0,0,96.1737,-1288.33,0.0393701,0.773438,204.606,0
     0,0,0,0,0,0,0,0,0,148.647,-1042.05,0.00787402,0.632812,204.626,0
     0,0,0,0,0,0,0,0,0,225.596,-946.656,-0.0078125,0.53125,204.646,0
     0,0,0,0,0,0,0,0,0,378.351,-831.221,-0.0078125,0.382812,204.666,0
     0,0,0,0,0,0,0,0,0,530.307,-929.67,-0.0078125,0.304688,204.686,0
     0,0,0,0,0,0,0,0,0,537.346,-731.904,-0.0078125,0.289062,204.714,0
     0,0,0,0,0,0,0,0,0,491.316,-725.9,-0.0078125,0.289062,204.726,0
     0,0,0,0,0,0,0,0,0,551.405,-537.996,-0.0078125,0.289062,204.746,0
     0,0,0,0,0,0,0,0,0,519.009,-719.011,-0.0078125,0.289062,204.766,0
     0,0,0,0,0,0,0,0,0,539.142,-603.61,-0.0078125,0.28125,204.786,0
     0,0,0,0,0,0,0,0,0,497.401,-586.751,-0.0078125,0.21875,204.805,0
     0,0,0,0,0,0,0,0,0,554.831,-540.015,-0.0078125,0.109375,204.826,0
     0,0,0,0,0,0,0,0,0,533.063,-460.183,-0.0078125,0.0234375,204.846,0
     0,0,0,0,0,0,0,0,0,499.825,-442.136,-0.0078125,0.0078125,204.866,0
     0,0,0,0,0,0,0,0,0,505.37,-506.073,-0.0078125,0.0078125,204.898,0
     0,0,0,0,0,0,0,0,0,437.254,-486.997,-0.0234375,0.0078125,204.906,0
     0,0,0,0,0,0,0,0,0,434.075,-490.148,-0.09375,0.0078125,204.926,0
     0,0,0,0,0,0,0,0,0,482.521,-414.448,-0.21875,0.0078125,204.947,0
     0,0,0,0,0,0,0,0,0,355.284,-446.449,-0.296875,0.0078125,204.967,0
     0,0,0,0,0,0,0,0,0,427.917,-361.187,-0.351562,0.0078125,204.987,0
     0,0,0,0,0,0,0,0,0,380.8,-478.046,-0.359375,0.0078125,205.007,0
     0,0,0,0,0,0,0,0,0,507.614,-330.83,-0.367188,0.0078125,205.026,0
     0,0,0,0,0,0,0,0,0,457.97,-357.507,-0.367188,0.0078125,205.047,0
     0,0,0,0,0,0,0,0,0,395.781,-385.788,-0.367188,0.0078125,205.066,0
     0,0,0,0,0,0,0,0,0,417.24,-355.897,-0.367188,0.0078125,205.085,0
     0,0,0,0,0,0,0,0,0,389.09,-453.875,-0.367188,0.0078125,205.106,0
     0,0,0,0,0,0,0,0,0,395.241,-320.451,-0.367188,0.0078125,205.126,0
     0,0,0,0,0,0,0,0,0,394.96,-382.037,-0.367188,0.0078125,205.147,0
     0,0,0,0,0,0,0,0,0,415.55,-397.685,-0.367188,0.09375,205.166,0
     0,0,0,0,0,0,0,0,0,368.216,-337.342,-0.367188,0.140625,205.186,0
     0,0,0,0,0,0,0,0,0,393.546,-379.809,-0.367188,0.171875,205.206,0
     0,0,0,0,0,0,0,0,0,405.894,-363.372,-0.367188,0.1875,205.226,0
     0,0,0,0,0,0,0,0,0,380.315,-352.964,-0.367188,0.203125,205.246,0
     0,0,0,0,0,0,0,0,0,436.977,-446.668,-0.367188,0.203125,205.279,0
     0,0,0,0,0,0,0,0,0,376.896,-362.037,-0.367188,0.203125,205.3,0
     0,0,0,0,0,0,0,0,0,452.509,-373.776,-0.367188,0.203125,205.306,0
     0,0,0,0,0,0,0,0,0,419.015,-407.034,-0.367188,0.203125,205.326,0
     0,0,0,0,0,0,0,0,0,448.712,-344.009,-0.367188,0.203125,205.346,0
     0,0,0,0,0,0,0,0,0,414.645,-413.736,-0.367188,0.203125,205.373,0
     0,0,0,0,0,0,0,0,0,421.265,-472.523,-0.289062,0.203125,205.386,0
     0,0,0,0,0,0,0,0,0,437.78,-400.697,-0.273438,0.210938,205.405,0
     0,0,0,0,0,0,0,0,0,365.992,-371.271,-0.242188,0.21875,205.427,0
     0,0,0,0,0,0,0,0,0,366.744,-361.109,-0.226562,0.234375,205.446,0
     0,0,0,0,0,0,0,0,0,407.672,-389.734,-0.203125,0.25,205.466,0
     0,0,0,0,0,0,0,0,0,371.899,-353.182,-0.203125,0.273438,205.486,0
     0,0,0,0,0,0,0,0,0,372.627,-391.696,-0.203125,0.28125,205.506,0
     0,0,0,0,0,0,0,0,0,370.213,-408.572,-0.203125,0.289062,205.527,0
     0,0,0,0,0,0,0,0,0,329.305,-416.354,-0.203125,0.289062,205.545,0
     0,0,0,0,0,0,0,0,0,373.993,-343.424,-0.203125,0.296875,205.565,0
     0,0,0,0,0,0,0,0,0,327.949,-348.002,-0.203125,0.3125,205.585,0
     0,0,0,0,0,0,0,0,0,365.063,-357.488,-0.203125,0.320312,205.606,0
     0,0,0,0,0,0,0,0,0,331.466,-349.724,-0.203125,0.335938,205.626,0
     0,0,0,0,0,0,0,0,0,337.336,-385.713,-0.203125,0.351562,205.648,0
     0,0,0,0,0,0,0,0,0,352.404,-421.035,-0.203125,0.359375,205.682,0
     0,0,0,0,0,0,0,0,0,344.756,-411.641,-0.203125,0.359375,205.687,0
     0,0,0,0,0,0,0,0,0,361.559,-398.987,-0.203125,0.382812,205.706,0
     0,0,0,0,0,0,0,0,0,340.362,-366.676,-0.296875,0.398438,205.726,0
     0,0,0,0,0,0,0,0,0,393.484,-415.05,-0.335938,0.398438,205.746,0
     0,0,0,0,0,0,0,0,0,383.259,-423.783,-0.390625,0.40625,205.766,0
     0,0,0,0,0,0,0,0,0,451.437,-466.646,-0.429688,0.414062,205.786,0
     0,0,0,0,0,0,0,0,0,463.693,-423.675,-0.484375,0.414062,205.806,0
     0,0,0,0,0,0,0,0,0,532.368,-431.146,-0.492188,0.414062,205.829,0
     0,0,0,0,0,0,0,0,0,484.133,-507.382,-0.492188,0.421875,205.866,0
     0,0,0,0,0,0,0,0,0,488.77,-492.635,-0.492188,0.421875,205.87,0
     0,0,0,0,0,0,0,0,0,582.428,-563.46,-0.492188,0.421875,205.885,0
     0,0,0,0,0,0,0,0,0,585.394,-509.593,-0.492188,0.421875,205.906,0
     0,0,0,0,0,0,0,0,0,576.951,-535.131,-0.492188,0.421875,205.926,0
     0,0,0,0,0,0,0,0,0,688.302,-637.267,-0.492188,0.421875,205.947,0
     0,0,0,0,0,0,0,0,0,590.999,-640.307,-0.492188,0.421875,205.967,0
     0,0,0,0,0,0,0,0,0,637.206,-711.87,-0.492188,0.421875,205.986,0
     0,0,0,0,0,0,0,0,0,679.579,-640.307,-0.492188,0.421875,206.006,0
     0,0,0,0,0,0,0,0,0,649.14,-583.226,-0.492188,0.421875,206.026,0
     0,0,0,0,0,0,0,0,0,612.014,-535.003,-0.492188,0.4375,206.046,0
     0,0,0,0,0,0,0,0,0,658.631,-715.333,-0.492188,0.453125,206.066,0
     0,0,0,0,0,0,0,0,0,724.822,-754.432,-0.492188,0.476562,206.086,0
     0,0,0,0,0,0,0,0,0,665.978,-669.972,-0.492188,0.484375,206.106,0
     0,0,0,0,0,0,0,0,0,718.262,-678.288,-0.492188,0.507812,206.126,0
     0,0,0,0,0,0,0,0,0,682.967,-662.493,-0.5,0.546875,206.147,0
     0,0,0,0,0,0,0,0,0,668.829,-540.848,-0.515625,0.585938,206.166,0
     0,0,0,0,0,0,0,0,0,706.514,-828.638,-0.515625,0.632812,206.186,0
     0,0,0,0,0,0,0,0,0,742.005,-634.941,-0.515625,0.679688,206.236,0
     0,0,0,0,0,0,0,0,0,773.365,-874.776,-0.398438,0.695312,206.248,0
     0,0,0,0,0,0,0,0,0,860.141,-800.608,-0.0546875,0.78125,206.269,0
     0,0,0,0,0,0,0,0,0,712.682,-967.68,-0.0078125,0.789062,206.286,0
     0,0,0,0,0,0,0,0,0,602.391,-694.975,-0.0078125,0.796875,206.306,0
     0,0,0,0,0,0,0,0,0,657.678,-862.218,-0.0078125,0.796875,206.326,0
     0,0,0,0,0,0,0,0,0,824.776,-913.284,-0.0078125,0.796875,206.346,0
     0,0,0,0,0,0,0,0,0,844.238,-1008.62,-0.0078125,0.796875,206.366,0
     0,0,0,0,0,0,0,0,0,660.829,-917.053,-0.0078125,0.796875,206.386,0
     0,0,0,0,0,0,0,0,0,708.793,-981.258,-0.0078125,0.804688,206.406,0
     0,0,0,0,0,0,0,0,0,923.148,-1050.2,-0.0078125,0.804688,206.426,0
     0,0,0,0,0,0,0,0,0,792.142,-937.471,-0.0078125,0.8125,206.446,0
     0,0,0,0,0,0,0,0,0,818.331,-707.639,-0.0078125,0.820312,206.466,0
     0,0,0,0,0,0,0,0,0,830.117,-996.661,-0.0078125,0.828125,206.491,0
     0,0,0,0,0,0,0,0,0,919.16,-1048.55,-0.0078125,0.835938,206.52,0
     0,0,0,0,0,0,0,0,0,840.619,-1033.86,-0.0078125,0.835938,206.546,0
     0,0,0,0,0,0,0,0,0,825.525,-1007.51,-0.0078125,0.835938,206.549,0
     0,0,0,0,0,0,0,0,0,805.412,-1059.88,-0.0078125,0.835938,206.566,0
     0,0,0,0,0,0,0,0,0,866.701,-699.643,0.0314961,0.84375,206.586,0
     0,0,0,0,0,0,0,0,0,726.956,-1327.49,0.0472441,0.851562,206.606,0
     0,0,0,0,0,0,0,0,0,606.98,-1055.85,0.0708661,0.851562,206.626,0
     0,0,0,0,0,0,0,0,0,467.344,-1045.64,0.0866142,0.859375,206.646,0
     0,0,0,0,0,0,0,0,0,299.855,-966.837,0.102362,0.859375,206.672,0
     0,0,0,0,0,0,0,0,0,242.975,-1062.76,0.11811,0.859375,206.687,0
     0,0,0,0,0,0,0,0,0,180.205,-1130.58,0.125984,0.859375,206.726,0
     0,0,0,0,0,0,0,0,0,162.762,-1072.04,0.125984,0.859375,206.73,0
     0,0,0,0,0,0,0,0,0,140.862,-1195.39,0.125984,0.867188,206.746,0
     0,0,0,0,0,0,0,0,0,155.571,-1052.02,0.212598,0.921875,206.765,0
     0,0,0,0,0,0,0,0,0,126.074,-1108.77,0.299213,0.960938,206.786,0
     0,0,0,0,0,0,0,0,0,69.8465,-905.674,0.322835,0.984375,206.805,0
     0,0,0,0,0,0,0,0,0,69.8465,-1018.95,0.346457,0.984375,206.825,0
     0,0,0,0,0,0,0,0,0,69.8465,-1252.43,0.362205,0.984375,206.846,0
     0,0,0,0,0,0,0,0,0,69.8465,-1027.64,0.409449,0.992188,206.866,0
     0,0,0,0,0,0,0,0,0,69.8465,-1055.19,0.440945,0.992188,206.886,0
     0,0,0,0,0,0,0,0,0,69.8465,-1173.85,0.464567,1,206.906,0
     0,0,0,0,0,0,0,0,0,-8.06591,-1115.64,0.472441,1,206.926,0
     0,0,0,0,0,0,0,0,0,-71.7468,-845.988,0.472441,1,206.946,0
     0,0,0,0,0,0,0,0,0,-80.3223,-959.923,0.472441,1,206.967,0
     0,0,0,0,0,0,0,0,0,-99.8452,-1213.37,0.472441,1,206.987,0
     0,0,0,0,0,0,0,0,0,-91.9637,-1041.61,0.472441,1,207.01,0
     0,0,0,0,0,0,0,0,0,-82.8957,-952.88,0.472441,1,207.026,0
     0,0,0,0,0,0,0,0,0,-128.025,-907.482,0.401575,1,207.046,0
     0,0,0,0,0,0,0,0,0,-101.865,-1047.07,0.385827,1,207.066,0
     0,0,0,0,0,0,0,0,0,-46.229,-1079.56,0.338583,1,207.103,0
     0,0,0,0,0,0,0,0,0,-46.229,-892.18,0.338583,1,207.107,0
     0,0,0,0,0,0,0,0,0,-73.6036,-995.372,0.212598,1,207.126,0
     0,0,0,0,0,0,0,0,0,-46.3328,-914.244,0.023622,0.515625,207.146,0
     0,0,0,0,0,0,0,0,0,12.6509,-951.113,-0.0078125,0.1875,207.166,0
     0,0,0,0,0,0,0,0,0,163.405,-830.772,-0.0078125,0.0390625,207.186,0
     0,0,0,0,0,0,0,0,0,254.039,-747.272,-0.0078125,0.0078125,207.206,0
     0,0,0,0,0,0,0,0,0,297.164,-520.251,-0.0078125,0.0078125,207.226,0
     0,0,0,0,0,0,0,0,0,352.075,-619.157,-0.0078125,0.0078125,207.246,0
     0,0,0,0,0,0,0,0,0,324.902,-538.112,-0.0390625,0.0078125,207.266,0
     0,0,0,0,0,0,0,0,0,311.842,-569.703,-0.148438,0.0078125,207.287,0
     0,0,0,0,0,0,0,0,0,273.385,-521.907,-0.273438,0.0078125,207.306,0
     0,0,0,0,0,0,0,0,0,357.724,-431.527,-0.523438,0.0078125,207.326,0
     0,0,0,0,0,0,0,0,0,502.197,-334.146,-0.726562,0.0078125,207.346,0
     0,0,0,0,0,0,0,0,0,727.537,-363.974,-0.8125,0.0078125,207.366,0
     0,0,0,0,0,0,0,0,0,607.275,-312.568,-0.851562,0.0078125,207.386,0
     0,0,0,0,0,0,0,0,0,751.908,-344.276,-0.875,0.0078125,207.406,0
     0,0,0,0,0,0,0,0,0,771.099,-361.141,-0.898438,0.0078125,207.426,0
     0,0,0,0,0,0,0,0,0,698.324,-414.224,-0.898438,0.0078125,207.446,0
     0,0,0,0,0,0,0,0,0,699.815,-444.879,-0.921875,0.0078125,207.466,0
     0,0,0,0,0,0,0,0,0,725.768,-327.332,-0.9375,0.0078125,207.485,0
     0,0,0,0,0,0,0,0,0,758.725,-443.007,-0.945312,0.0078125,207.506,0
     0,0,0,0,0,0,0,0,0,790.014,-655.673,-0.945312,0.0078125,207.526,0
     0,0,0,0,0,0,0,0,0,771.843,-557.119,-0.945312,-0,207.546,0
     0,0,0,0,0,0,0,0,0,905.346,-542.535,-0.945312,-0,207.566,0
     0,0,0,0,0,0,0,0,0,1016.73,-656.362,-0.945312,-0.015748,207.586,0
     0,0,0,0,0,0,0,0,0,916.254,-697.472,-0.953125,-0.023622,207.606,0
     0,0,0,0,0,0,0,0,0,904.282,-768.61,-0.953125,-0.0314961,207.626,0
     0,0,0,0,0,0,0,0,0,915.499,-657.16,-0.960938,-0.0314961,207.646,0
     0,0,0,0,0,0,0,0,0,951.611,-676.727,-0.960938,-0.0314961,207.667,0
     0,0,0,0,0,0,0,0,0,1041.94,-755.087,-0.960938,-0.0314961,207.686,0
     0,0,0,0,0,0,0,0,0,938.174,-761.76,-0.960938,-0.0314961,207.705,0
     0,0,0,0,0,0,0,0,0,971.817,-722.335,-0.960938,-0.0314961,207.726,0
     0,0,0,0,0,0,0,0,0,953.834,-750.3,-0.960938,-0.0314961,207.746,0
     0,0,0,0,0,0,0,0,0,962.974,-713.089,-0.960938,-0.0314961,207.766,0
     0,0,0,0,0,0,0,0,0,1098.78,-817.929,-0.960938,0.0625,207.786,0
     0,0,0,0,0,0,0,0,0,1153.34,-695.144,-0.882812,0.15625,207.806,0
     0,0,0,0,0,0,0,0,0,999.9,-533.291,-0.867188,0.304688,207.826,0
     0,0,0,0,0,0,0,0,0,981.354,-599.88,-0.8125,0.382812,207.846,0
     0,0,0,0,0,0,0,0,0,1055.52,-591.261,-0.5625,0.414062,207.866,0
     0,0,0,0,0,0,0,0,0,939.761,-804.441,-0.359375,0.421875,207.886,0
     0,0,0,0,0,0,0,0,0,889.878,-1012.61,-0.078125,0.351562,207.906,0
     0,0,0,0,0,0,0,0,0,809.291,-835.387,-0.0078125,0.148438,207.926,0
     0,0,0,0,0,0,0,0,0,621.581,-801.764,-0.0078125,0.046875,207.946,0
     0,0,0,0,0,0,0,0,0,700.378,-668.74,-0.0078125,0.0078125,207.966,0
     0,0,0,0,0,0,0,0,0,784.252,-592.628,-0.0078125,0.0078125,207.986,0
     0,0,0,0,0,0,0,0,0,679.856,-639.08,-0.0078125,0.0078125,208.006,0
     0,0,0,0,0,0,0,0,0,728.014,-560.02,-0.0078125,0.0078125,208.026,0
     0,0,0,0,0,0,0,0,0,660.524,-660.611,-0.0078125,0.0078125,208.046,0
     0,0,0,0,0,0,0,0,0,606.63,-658.068,-0.0078125,0.0078125,208.066,0
     0,0,0,0,0,0,0,0,0,609.106,-509.308,-0.0078125,0.0078125,208.085,0
     0,0,0,0,0,0,0,0,0,605.437,-564.414,-0.0078125,0.0078125,208.105,0
     0,0,0,0,0,0,0,0,0,559.081,-587.717,-0.0078125,0.0078125,208.125,0
     0,0,0,0,0,0,0,0,0,594.99,-580.754,-0.0078125,0.0078125,208.149,0
     0,0,0,0,0,0,0,0,0,559.738,-632.251,-0.0078125,0.0078125,208.167,0
     0,0,0,0,0,0,0,0,0,547.046,-473.754,-0.0078125,0.0078125,208.186,0
     0,0,0,0,0,0,0,0,0,482.591,-535.834,-0.0078125,0.0078125,208.206,0
     0,0,0,0,0,0,0,0,0,581.041,-506.932,-0.0078125,0.0078125,208.226,0
     0,0,0,0,0,0,0,0,0,497.451,-469.296,-0.0078125,0.0078125,208.247,0
     0,0,0,0,0,0,0,0,0,465.17,-452.376,-0.0078125,0.0078125,208.266,0
     0,0,0,0,0,0,0,0,0,409.777,-434.084,-0.0078125,0.0078125,208.286,0
     0,0,0,0,0,0,0,0,0,465.419,-283.218,-0.0078125,0.0078125,208.306,0
     0,0,0,0,0,0,0,0,0,388.939,-444.138,-0.0078125,0.0078125,208.326,0
     0,0,0,0,0,0,0,0,0,415.041,-465.181,-0.0078125,0.0078125,208.346,0
     0,0,0,0,0,0,0,0,0,369.106,-362.832,-0.0078125,0.0078125,208.365,0
     0,0,0,0,0,0,0,0,0,420.53,-415.386,-0.0078125,0.0078125,208.387,0
     0,0,0,0,0,0,0,0,0,393.314,-390.579,-0.0078125,0.0078125,208.406,0
     0,0,0,0,0,0,0,0,0,348.809,-366.878,-0.0078125,0.0078125,208.426,0
     0,0,0,0,0,0,0,0,0,344.715,-380.091,-0.0078125,0.0078125,208.446,0
     0,0,0,0,0,0,0,0,0,310.844,-309.234,-0.0078125,0.0078125,208.466,0
     0,0,0,0,0,0,0,0,0,343.424,-318.198,-0.0078125,0.0078125,208.486,0
     0,0,0,0,0,0,0,0,0,312.881,-249.286,-0.0078125,0.0078125,208.506,0
     0,0,0,0,0,0,0,0,0,286.463,-260,-0.0078125,0.0078125,208.542,0
     0,0,0,0,0,0,0,0,0,255.001,-237.756,-0.0078125,0.0078125,208.55,0
     0,0,0,0,0,0,0,0,0,234.247,-233.869,-0.0078125,0.0078125,208.581,0
     0,0,0,0,0,0,0,0,0,213.853,-210.873,0,0.0078125,208.588,0
     0,0,0,0,0,0,0,0,0,213.652,-184.025,0.0629921,0.0078125,208.606,0
     0,0,0,0,0,0,0,0,0,198.894,-170.087,0.125984,0.0078125,208.625,0
     0,0,0,0,0,0,0,0,0,80.5189,-161.651,0.188976,0.0078125,208.646,0
     0,0,0,0,0,0,0,0,0,52.1985,-128.157,0.299213,0.0078125,208.665,0
     0,0,0,0,0,0,0,0,0,52.1985,-93.224,0.377953,0.0078125,208.686,0
     0,0,0,0,0,0,0,0,0,-23.2249,-62.5385,0.433071,0.0078125,208.707,0
     0,0,0,0,0,0,0,0,0,-135.439,-51.0848,0.448819,0.0078125,208.731,0
     0,0,0,0,0,0,0,0,0,-221.281,-51.0848,0.448819,0.0078125,208.758,0
     0,0,0,0,0,0,0,0,0,-282.845,-51.0848,0.448819,0.0078125,208.777,0
     0,0,0,0,0,0,0,0,0,-264.361,-51.0848,0.448819,0.0078125,208.791,0
     0,0,0,0,0,0,0,0,0,-283.527,-4.6001,0.448819,0.0078125,208.806,0
     0,0,0,0,0,0,0,0,0,-351.438,86.9743,0.448819,0.0078125,208.826,0
     0,0,0,0,0,0,0,0,0,-374.153,83.4258,0.448819,0.0078125,208.847,0
     0,0,0,0,0,0,0,0,0,-236.765,69.34,0.448819,0.0078125,208.866,0
     0,0,0,0,0,0,0,0,0,-322.659,133.105,0.448819,0.0078125,208.886,0
     0,0,0,0,0,0,0,0,0,-370.405,125.753,0.456693,0.0078125,208.907,0
     0,0,0,0,0,0,0,0,0,-392.711,135.653,0.456693,0.0078125,208.926,0
     0,0,0,0,0,0,0,0,0,-358.474,145.044,0.456693,0.0078125,208.946,0
     0,0,0,0,0,0,0,0,0,-389.082,160.534,0.456693,0.0078125,208.966,0
     0,0,0,0,0,0,0,0,0,-349.864,167.659,0.456693,0.0078125,208.986,0
     0,0,0,0,0,0,0,0,0,-366.401,228.006,0.385827,0.0078125,209.006,0
     0,0,0,0,0,0,0,0,0,-322.846,235.66,0.299213,0.0078125,209.026,0
     0,0,0,0,0,0,0,0,0,-342.977,222.398,0.181102,0.0078125,209.046,0
     0,0,0,0,0,0,0,0,0,-239.252,257.589,0.110236,0.0078125,209.066,0
     0,0,0,0,0,0,0,0,0,-196.744,277.208,0.0314961,0.0078125,209.086,0
     0,0,0,0,0,0,0,0,0,-217.358,265.4,0,0.0078125,209.106,0
     0,0,0,0,0,0,0,0,0,-207.879,249.206,-0.0078125,0.0078125,209.14,0
     0,0,0,0,0,0,0,0,0,-212.981,227.619,-0.0078125,0.0078125,209.147,0
     0,0,0,0,0,0,0,0,0,-148.498,208.993,-0.0078125,0.0078125,209.167,0
     0,0,0,0,0,0,0,0,0,-175.231,163.768,-0.0078125,0.0078125,209.185,0
     0,0,0,0,0,0,0,0,0,-161.031,132.696,-0.0078125,0.0078125,209.206,0
     0,0,0,0,0,0,0,0,0,-131.966,122.018,-0.0078125,0.0078125,209.247,0
     0,0,0,0,0,0,0,0,0,-95.5434,117.888,-0.0078125,0.0078125,209.266,0
     0,0,0,0,0,0,0,0,0,-85.2566,105.727,-0.0078125,0.0078125,209.286,0
     0,0,0,0,0,0,0,0,0,-87.3385,90.601,-0.0078125,0.0078125,209.306,0
     0,0,0,0,0,0,0,0,0,-78.773,68.8641,-0.0078125,0.0078125,209.326,0
     0,0,0,0,0,0,0,0,0,-64.7847,57.653,-0.0078125,0.0078125,209.346,0
     0,0,0,0,0,0,0,0,0,-55.0267,46.6167,-0.0078125,0.0078125,209.366,0
     0,0,0,0,0,0,0,0,0,-37.0105,38.18,-0.0078125,0.0078125,209.386,0
     0,0,0,0,0,0,0,0,0,-29.0703,26.7617,-0.0078125,0.0078125,209.406,0
     0,0,0,0,0,0,0,0,0,-25.1927,26.7617,-0.0078125,0.0078125,209.425,0
     0,0,0,0,0,0,0,0,0,-25.1927,26.7617,-0.0078125,0.0078125,209.446,0
     0,0,0,0,0,0,0,0,0,-25.1927,26.7617,-0.0078125,0.0078125,209.467,0
     0,0,0,0,0,0,0,0,0,-25.1927,26.7617,-0.0078125,0.0078125,209.485,0
     0,0,0,0,0,0,0,0,0,-4.75647,3.91529,-0.0078125,0.0078125,209.505,0
     0,0,0,0,0,0,0,0,0,0,3.91529,-0.0078125,0.0078125,209.526,0
     0,0,0,0,0,0,0,0,0,3.84855,0,-0.0078125,0.0078125,209.545,0
     0,0,0,0,0,0,0,0,0,7.0333,-3.1856,-0.0078125,0.0078125,209.566,0
     0,0,0,0,0,0,0,0,0,11.3032,-5.74971,-0.0078125,-0.00787402,209.587,0
     0,0,0,0,0,0,0,0,0,11.3032,-5.74971,0.102362,-0.0866142,209.607,0
     0,0,0,0,0,0,0,0,0,11.3032,-8.94238,0.212598,-0.385827,209.626,0
     0,0,0,0,0,0,0,0,0,11.3032,-4.27034,0.425197,-0.637795,209.646,0
     0,0,0,0,0,0,0,0,0,-190.66,328.488,0.574803,-0.850394,209.667,0
     0,0,0,0,0,0,0,0,0,-157.68,375.199,0.779528,-1,209.686,0
     0,0,0,0,0,0,0,0,0,-255.725,376.939,0.889764,-1,209.706,0
     0,0,0,0,0,0,0,0,0,-387.222,317.334,1,-1,209.726,0
     0,0,0,0,0,0,0,0,0,-455.529,447.297,1,-1,209.745,0
     0,0,0,0,0,0,0,0,0,-549.783,574.399,1,-1,209.766,0
     0,0,0,0,0,0,0,0,0,-598.122,648.046,1,-1,209.785,0
     0,0,0,0,0,0,0,0,0,-670.691,582.547,1,-0.818898,209.806,0
     0,0,0,0,0,0,0,0,0,-769.497,712.733,1,-0.448819,209.826,0
     0,0,0,0,0,0,0,0,0,-883.509,707.839,1,-0.19685,209.846,0
     0,0,0,0,0,0,0,0,0,-922.254,732.896,1,-0,209.868,0
     0,0,0,0,0,0,0,0,0,-966.277,598.158,1,0.0078125,209.886,0
     0,0,0,0,0,0,0,0,0,-1157.27,729.288,1,0.0078125,209.906,0
     0,0,0,0,0,0,0,0,0,-973.094,810.898,1,0.0078125,209.926,0
     0,0,0,0,0,0,0,0,0,-1017.24,715.384,1,0.0078125,209.945,0
     0,0,0,0,0,0,0,0,0,-1066.5,773.425,1,0.0078125,209.965,0
     0,0,0,0,0,0,0,0,0,-1050.31,724.585,1,0.0078125,209.985,0
     0,0,0,0,0,0,0,0,0,-1052.74,796.242,1,0.0078125,210.006,0
     0,0,0,0,0,0,0,0,0,-1119.19,989.658,1,0.046875,210.026,0
     0,0,0,0,0,0,0,0,0,-1137.92,764.321,1,0.164062,210.046,0
     0,0,0,0,0,0,0,0,0,-1167.41,288.592,1,0.453125,210.073,0
     0,0,0,0,0,0,0,0,0,-1116.45,317.405,1,0.726562,210.086,0
     0,0,0,0,0,0,0,0,0,-1079.21,110.475,1,0.820312,210.106,0
     0,0,0,0,0,0,0,0,0,-1089.62,-224.054,1,0.84375,210.126,0
     0,0,0,0,0,0,0,0,0,-1107.91,-290.736,1,0.84375,210.147,0
     0,0,0,0,0,0,0,0,0,-1055.46,-383.7,1,0.84375,210.166,0
     0,0,0,0,0,0,0,0,0,-1084.89,-340.994,1,0.851562,210.186,0
     0,0,0,0,0,0,0,0,0,-1006.59,-452.376,1,0.851562,210.206,0
     0,0,0,0,0,0,0,0,0,-1008.17,-387.935,1,0.851562,210.226,0
     0,0,0,0,0,0,0,0,0,-944.064,-428.128,1,0.851562,210.245,0
     0,0,0,0,0,0,0,0,0,-959.187,-455.446,1,0.851562,210.266,0
     0,0,0,0,0,0,0,0,0,-829.394,-541.785,1,0.851562,210.305,0
     0,0,0,0,0,0,0,0,0,-919.033,-643.874,1,0.851562,210.317,0
     0,0,0,0,0,0,0,0,0,-902.894,-547.885,1,0.851562,210.328,0
     0,0,0,0,0,0,0,0,0,-891.862,-583.158,1,0.851562,210.354,0
     0,0,0,0,0,0,0,0,0,-859.882,-705.418,1,0.851562,210.366,0
     0,0,0,0,0,0,0,0,0,-1003.31,-643.998,1,0.851562,210.386,0
     0,0,0,0,0,0,0,0,0,-1048.44,-577.434,1,0.742188,210.406,0
     0,0,0,0,0,0,0,0,0,-904.445,-753.864,1,0.679688,210.426,0
     0,0,0,0,0,0,0,0,0,-883.9,-746.185,1,0.609375,210.446,0
     0,0,0,0,0,0,0,0,0,-905.428,-468.318,1,0.476562,210.466,0
     0,0,0,0,0,0,0,0,0,-853.352,-551.45,1,0.273438,210.487,0
     0,0,0,0,0,0,0,0,0,-916.758,-430.645,1,0.148438,210.515,0
     0,0,0,0,0,0,0,0,0,-1162.32,-428.018,1,0.0234375,210.526,0
     0,0,0,0,0,0,0,0,0,-1113.28,-416.346,1,0.0078125,210.56,0
     0,0,0,0,0,0,0,0,0,-971.298,-426.721,1,0.0078125,210.566,0
     0,0,0,0,0,0,0,0,0,-1196.89,-305.101,1,0.0078125,210.586,0
     0,0,0,0,0,0,0,0,0,-1226.77,-318.046,1,-0.00787402,210.606,0
     0,0,0,0,0,0,0,0,0,-1325.82,-315.313,1,-0.0787402,210.626,0
     0,0,0,0,0,0,0,0,0,-1291.49,-216.76,1,-0.433071,210.646,0
     0,0,0,0,0,0,0,0,0,-1365.56,-96.7829,1,-0.677165,210.666,0
     0,0,0,0,0,0,0,0,0,-1108.03,-16.1891,1,-0.92126,210.686,0
     0,0,0,0,0,0,0,0,0,-1095.17,261.571,1,-1,210.706,0
     0,0,0,0,0,0,0,0,0,-1044.66,435.891,1,-1,210.726,0
     0,0,0,0,0,0,0,0,0,-909.794,535.705,1,-1,210.746,0
     0,0,0,0,0,0,0,0,0,-923.916,744.685,1,-1,210.766,0
     0,0,0,0,0,0,0,0,0,-854.372,737.463,1,-1,210.786,0
     0,0,0,0,0,0,0,0,0,-996.562,740.028,1,-1,210.807,0
     0,0,0,0,0,0,0,0,0,-933.271,921.871,1,-1,210.826,0
     0,0,0,0,0,0,0,0,0,-926.655,859.143,1,-1,210.852,0
     0,0,0,0,0,0,0,0,0,-979.432,891.107,1,-1,210.867,0
     0,0,0,0,0,0,0,0,0,-1036,1006.59,1,-1,210.886,0
     0,0,0,0,0,0,0,0,0,-1119.88,958.222,1,-1,210.906,0
     0,0,0,0,0,0,0,0,0,-1033.97,1198.75,1,-1,210.926,0
     0,0,0,0,0,0,0,0,0,-1102.72,1109.57,1,-1,210.946,0
     0,0,0,0,0,0,0,0,0,-1323.8,1194.81,1,-0.622047,210.966,0
     0,0,0,0,0,0,0,0,0,-1251.25,780.762,1,-0.244094,210.986,0
     0,0,0,0,0,0,0,0,0,-1396.84,1144.23,1,0.0078125,211.006,0
     0,0,0,0,0,0,0,0,0,-1244.71,983.333,1,0.0078125,211.026,0
     0,0,0,0,0,0,0,0,0,-1204.75,1053.35,1,0.0078125,211.049,0
     0,0,0,0,0,0,0,0,0,-1332.98,952.064,1,0.046875,211.066,0
     0,0,0,0,0,0,0,0,0,-1265.66,748.391,1,0.179688,211.086,0
     0,0,0,0,0,0,0,0,0,-1311.99,559.362,1,0.398438,211.106,0
     0,0,0,0,0,0,0,0,0,-1431.23,263.109,1,0.578125,211.126,0
     0,0,0,0,0,0,0,0,0,-1223.39,84.3928,1,0.8125,211.146,0
     0,0,0,0,0,0,0,0,0,-1221.82,0,1,0.929688,211.166,0
     0,0,0,0,0,0,0,0,0,-1011.58,-279.904,1,1,211.186,0
     0,0,0,0,0,0,0,0,0,-1133.92,-396.142,1,1,211.206,0
     0,0,0,0,0,0,0,0,0,-1017.92,-350.312,1,1,211.226,0
     0,0,0,0,0,0,0,0,0,-1103.08,-294.343,1,1,211.246,0
     0,0,0,0,0,0,0,0,0,-963.855,-286.25,1,1,211.266,0
     0,0,0,0,0,0,0,0,0,-919.371,-304.757,1,1,211.286,0
     0,0,0,0,0,0,0,0,0,-909.67,-310.907,1,1,211.306,0
     0,0,0,0,0,0,0,0,0,-917.431,-335.706,0.866142,0.921875,211.326,0
     0,0,0,0,0,0,0,0,0,-987.411,-485.119,0.614173,0.679688,211.346,0
     0,0,0,0,0,0,0,0,0,-883.314,-455.56,0.244094,0.304688,211.365,0
     0,0,0,0,0,0,0,0,0,-785.855,-421.985,-0.0078125,0.0078125,211.386,0
     0,0,0,0,0,0,0,0,0,-612.089,-387.973,-0.0078125,0.0078125,211.406,0
     0,0,0,0,0,0,0,0,0,-464.393,-317.899,-0.0078125,0.0078125,211.426,0
     0,0,0,0,0,0,0,0,0,-419.806,-390.259,-0.0078125,0.0078125,211.446,0
     0,0,0,0,0,0,0,0,0,-412.371,-350.435,-0.0078125,0.0078125,211.466,0
     0,0,0,0,0,0,0,0,0,-323.515,-266.163,-0.0078125,0.0078125,211.485,0
     0,0,0,0,0,0,0,0,0,-343.507,-239.014,-0.0078125,0.0078125,211.506,0
     0,0,0,0,0,0,0,0,0,-334.666,-185.029,-0.0078125,0.0078125,211.526,0
     0,0,0,0,0,0,0,0,0,-269.462,-150.225,-0.078125,0.0078125,211.545,0
     0,0,0,0,0,0,0,0,0,-210.108,-156.207,-0.273438,0.0078125,211.566,0
     0,0,0,0,0,0,0,0,0,-192.352,-129.071,-0.460938,0.0078125,211.586,0
     0,0,0,0,0,0,0,0,0,60.8543,-108.496,-0.726562,0.15625,211.606,0
     0,0,0,0,0,0,0,0,0,203.479,-97.7703,-0.835938,0.257812,211.626,0
     0,0,0,0,0,0,0,0,0,262.185,-203.395,-0.914062,0.367188,211.646,0
     0,0,0,0,0,0,0,0,0,371.816,-236.869,-0.9375,0.40625,211.666,0
     0,0,0,0,0,0,0,0,0,497.327,-231.16,-0.96875,0.421875,211.686,0
     0,0,0,0,0,0,0,0,0,561.073,-303.854,-0.984375,0.429688,211.706,0
     0,0,0,0,0,0,0,0,0,663.592,-355.133,-0.992188,0.453125,211.726,0
     0,0,0,0,0,0,0,0,0,673.197,-337.194,-1,0.484375,211.745,0
     0,0,0,0,0,0,0,0,0,765.169,-492.126,-1,0.515625,211.765,0
     0,0,0,0,0,0,0,0,0,792.299,-523.368,-1,0.53125,211.786,0
     0,0,0,0,0,0,0,0,0,900.374,-530.828,-1,0.539062,211.806,0
     0,0,0,0,0,0,0,0,0,815.927,-650.195,-1,0.539062,211.826,0
     0,0,0,0,0,0,0,0,0,954.107,-712.936,-1,0.539062,211.846,0
     0,0,0,0,0,0,0,0,0,886.211,-736.214,-1,0.554688,211.866,0
     0,0,0,0,0,0,0,0,0,884.603,-679.14,-1,0.570312,211.886,0
     0,0,0,0,0,0,0,0,0,919.413,-513.07,-1,0.59375,211.906,0
     0,0,0,0,0,0,0,0,0,838.891,-973.947,-1,0.601562,211.926,0
     0,0,0,0,0,0,0,0,0,998.203,-876.347,-1,0.601562,211.946,0
     0,0,0,0,0,0,0,0,0,1176.96,-965.391,-1,0.601562,211.966,0
     0,0,0,0,0,0,0,0,0,1110.56,-938.571,-0.890625,0.601562,211.987,0
     0,0,0,0,0,0,0,0,0,1085.13,-892.538,-0.890625,0.601562,212.007,0
     0,0,0,0,0,0,0,0,0,1077.7,-959.739,-0.625,0.609375,212.025,0
     0,0,0,0,0,0,0,0,0,1112.72,-836.505,-0.296875,0.617188,212.046,0
     0,0,0,0,0,0,0,0,0,1055.07,-776.277,-0.109375,0.679688,212.066,0
     0,0,0,0,0,0,0,0,0,675.174,-1038.15,-0.0078125,0.765625,212.086,0
     0,0,0,0,0,0,0,0,0,823.316,-1077.3,-0.0078125,0.90625,212.106,0
     0,0,0,0,0,0,0,0,0,894.055,-930.449,0.015748,0.96875,212.127,0
     0,0,0,0,0,0,0,0,0,846.382,-1024.17,0.0708661,1,212.147,0
     0,0,0,0,0,0,0,0,0,658.566,-1083.78,0.212598,1,212.166,0
     0,0,0,0,0,0,0,0,0,432.601,-1154.2,0.322835,1,212.186,0
     0,0,0,0,0,0,0,0,0,200.997,-875.388,0.417323,1,212.206,0
     0,0,0,0,0,0,0,0,0,95.5785,-1043.02,0.448819,1,212.227,0
     0,0,0,0,0,0,0,0,0,17.8623,-1185.68,0.448819,1,212.246,0
     0,0,0,0,0,0,0,0,0,-157.339,-1229.11,0.448819,1,212.266,0
     0,0,0,0,0,0,0,0,0,-78.8358,-1144.23,0.330709,1,212.286,0
     0,0,0,0,0,0,0,0,0,-64.19,-1188,0.220472,1,212.306,0
     0,0,0,0,0,0,0,0,0,-64.19,-1157.41,0.0787402,1,212.326,0
     0,0,0,0,0,0,0,0,0,94.7481,-1419.75,0.015748,1,212.361,0
     0,0,0,0,0,0,0,0,0,94.5233,-1247.19,0.015748,1,212.366,0
     0,0,0,0,0,0,0,0,0,249.682,-1198.11,-0.0078125,1,212.386,0
     0,0,0,0,0,0,0,0,0,307.806,-1165.7,-0.0078125,1,212.406,0
     0,0,0,0,0,0,0,0,0,371.533,-1276.08,-0.0078125,1,212.426,0
     0,0,0,0,0,0,0,0,0,444.188,-1041.61,-0.0546875,1,212.446,0
     0,0,0,0,0,0,0,0,0,421.115,-1177.72,-0.140625,1,212.466,0
     0,0,0,0,0,0,0,0,0,474.181,-1115.76,-0.320312,1,212.486,0
     0,0,0,0,0,0,0,0,0,494.805,-1209.99,-0.429688,1,212.511,0
     0,0,0,0,0,0,0,0,0,562.794,-1118.38,-0.5,1,212.526,0
     0,0,0,0,0,0,0,0,0,713.903,-1031.03,-0.515625,1,212.545,0
     0,0,0,0,0,0,0,0,0,742.363,-960.938,-0.515625,1,212.566,0
     0,0,0,0,0,0,0,0,0,701.287,-970.591,-0.515625,1,212.585,0
     0,0,0,0,0,0,0,0,0,778.695,-1148.9,-0.515625,1,212.605,0
     0,0,0,0,0,0,0,0,0,814.299,-1114.27,-0.445312,1,212.626,0
     0,0,0,0,0,0,0,0,0,814.764,-1185.26,-0.390625,1,212.645,0
     0,0,0,0,0,0,0,0,0,765.287,-1143.9,-0.304688,1,212.666,0
     0,0,0,0,0,0,0,0,0,700.182,-1277.47,-0.25,1,212.686,0
     0,0,0,0,0,0,0,0,0,734.026,-1304.89,-0.210938,1,212.706,0
     0,0,0,0,0,0,0,0,0,715.487,-951.43,-0.195312,1,212.726,0
     0,0,0,0,0,0,0,0,0,704.275,-1348.44,-0.1875,1,212.746,0
     0,0,0,0,0,0,0,0,0,575.142,-1396.55,-0.1875,0.9375,212.766,0
     0,0,0,0,0,0,0,0,0,626.92,-1235.41,-0.273438,0.914062,212.787,0
     0,0,0,0,0,0,0,0,0,619.387,-1322.31,-0.328125,0.882812,212.807,0
     0,0,0,0,0,0,0,0,0,658.523,-1029.87,-0.40625,0.859375,212.825,0
     0,0,0,0,0,0,0,0,0,704.077,-1169.25,-0.4375,0.828125,212.847,0
     0,0,0,0,0,0,0,0,0,740.631,-1264.78,-0.453125,0.8125,212.866,0
     0,0,0,0,0,0,0,0,0,778.604,-1188.57,-0.453125,0.8125,212.91,0
     0,0,0,0,0,0,0,0,0,850.557,-1196.67,-0.453125,0.8125,212.942,0
     0,0,0,0,0,0,0,0,0,798.435,-697.861,-0.453125,0.8125,212.949,0
     0,0,0,0,0,0,0,0,0,820.58,-1124.1,-0.453125,0.8125,212.966,0
     0,0,0,0,0,0,0,0,0,824.504,-1099.38,-0.453125,0.8125,212.986,0
     0,0,0,0,0,0,0,0,0,837.661,-1123.72,-0.460938,0.8125,213.006,0
     0,0,0,0,0,0,0,0,0,953.153,-1114.33,-0.46875,0.8125,213.027,0
     0,0,0,0,0,0,0,0,0,778.816,-791.797,-0.492188,0.8125,213.046,0
     0,0,0,0,0,0,0,0,0,832.362,-986.729,-0.507812,0.804688,213.066,0
     0,0,0,0,0,0,0,0,0,907.729,-1055.97,-0.507812,0.757812,213.086,0
     0,0,0,0,0,0,0,0,0,959.463,-1178.2,-0.515625,0.710938,213.108,0
     0,0,0,0,0,0,0,0,0,1047.23,-1048.22,-0.53125,0.664062,213.127,0
     0,0,0,0,0,0,0,0,0,1079.45,-1016.05,-0.546875,0.648438,213.146,0
     0,0,0,0,0,0,0,0,0,1053.91,-955.566,-0.5625,0.648438,213.165,0
     0,0,0,0,0,0,0,0,0,977.135,-968.476,-0.5625,0.648438,213.186,0
     0,0,0,0,0,0,0,0,0,1004.42,-1034.98,-0.5625,0.648438,213.206,0
     0,0,0,0,0,0,0,0,0,1006.09,-1054.46,-0.5625,0.648438,213.227,0
     0,0,0,0,0,0,0,0,0,984.834,-864.267,-0.5625,0.648438,213.253,0
     0,0,0,0,0,0,0,0,0,974.564,-982.029,-0.5625,0.648438,213.267,0
     0,0,0,0,0,0,0,0,0,999.95,-931.315,-0.5625,0.648438,213.287,0
     0,0,0,0,0,0,0,0,0,842.531,-935.497,-0.5625,0.648438,213.305,0
     0,0,0,0,0,0,0,0,0,1018.28,-953.562,-0.5625,0.648438,213.326,0
     0,0,0,0,0,0,0,0,0,926.312,-1030.98,-0.5625,0.648438,213.346,0
     0,0,0,0,0,0,0,0,0,914.119,-1015.23,-0.5625,0.648438,213.366,0
     0,0,0,0,0,0,0,0,0,876.117,-828.5,-0.5625,0.648438,213.392,0
     0,0,0,0,0,0,0,0,0,1007.2,-977.517,-0.5625,0.648438,213.406,0
     0,0,0,0,0,0,0,0,0,890.591,-897.666,-0.5625,0.648438,213.428,0
     0,0,0,0,0,0,0,0,0,921.956,-1101.44,-0.5625,0.648438,213.448,0
     0,0,0,0,0,0,0,0,0,938.438,-1080.96,-0.5625,0.648438,213.466,0
     0,0,0,0,0,0,0,0,0,962.418,-922.722,-0.5625,0.648438,213.486,0
     0,0,0,0,0,0,0,0,0,1059.21,-1028.81,-0.5625,0.648438,213.506,0
     0,0,0,0,0,0,0,0,0,1050.92,-1000.3,-0.5625,0.648438,213.526,0
     0,0,0,0,0,0,0,0,0,1013.99,-1023.49,-0.570312,0.648438,213.546,0
     0,0,0,0,0,0,0,0,0,982.849,-1024.7,-0.570312,0.648438,213.566,0
     0,0,0,0,0,0,0,0,0,907.318,-990.982,-0.570312,0.648438,213.586,0
     0,0,0,0,0,0,0,0,0,841.184,-1024.7,-0.570312,0.648438,213.606,0
     0,0,0,0,0,0,0,0,0,915.416,-902.405,-0.570312,0.648438,213.626,0
     0,0,0,0,0,0,0,0,0,1048.71,-1009.29,-0.570312,0.648438,213.646,0
     0,0,0,0,0,0,0,0,0,959.049,-878.272,-0.570312,0.648438,213.666,0
     0,0,0,0,0,0,0,0,0,930.882,-1206.42,-0.570312,0.648438,213.686,0
     0,0,0,0,0,0,0,0,0,982.56,-1056.36,-0.578125,0.648438,213.706,0
     0,0,0,0,0,0,0,0,0,983.236,-1081.9,-0.578125,0.710938,213.725,0
     0,0,0,0,0,0,0,0,0,902.364,-1089.32,-0.578125,0.710938,213.747,0
     0,0,0,0,0,0,0,0,0,898.998,-1013.58,-0.578125,0.71875,213.766,0
     0,0,0,0,0,0,0,0,0,1052.91,-1073.02,-0.578125,0.734375,213.794,0
     0,0,0,0,0,0,0,0,0,1059.94,-1084.13,-0.578125,0.765625,213.808,0
     0,0,0,0,0,0,0,0,0,1097.88,-968.523,-0.578125,0.789062,213.836,0
     0,0,0,0,0,0,0,0,0,1037.72,-1024.96,-0.578125,0.8125,213.847,0
     0,0,0,0,0,0,0,0,0,950.164,-992.31,-0.578125,0.820312,213.867,0
     0,0,0,0,0,0,0,0,0,1001.55,-1086.37,-0.578125,0.828125,213.886,0
     0,0,0,0,0,0,0,0,0,907.812,-1105.4,-0.578125,0.835938,213.906,0
     0,0,0,0,0,0,0,0,0,999.7,-1120.07,-0.578125,0.835938,213.926,0
     0,0,0,0,0,0,0,0,0,1026.06,-1085.66,-0.578125,0.835938,213.946,0
     0,0,0,0,0,0,0,0,0,1022.13,-1238.01,-0.578125,0.835938,213.966,0
     0,0,0,0,0,0,0,0,0,979.624,-1269.68,-0.578125,0.835938,213.987,0
     0,0,0,0,0,0,0,0,0,1015.54,-999.251,-0.578125,0.835938,214.005,0
     0,0,0,0,0,0,0,0,0,946.79,-1225.49,-0.578125,0.835938,214.026,0
     0,0,0,0,0,0,0,0,0,981.065,-1063.32,-0.515625,0.835938,214.05,0
     0,0,0,0,0,0,0,0,0,1005.83,-1057.7,-0.453125,0.835938,214.067,0
     0,0,0,0,0,0,0,0,0,866.138,-1177.09,-0.375,0.835938,214.086,0
     0,0,0,0,0,0,0,0,0,927.687,-1270.57,-0.203125,0.84375,214.115,0
     0,0,0,0,0,0,0,0,0,786.504,-1010.05,-0.109375,0.875,214.126,0
     0,0,0,0,0,0,0,0,0,696.282,-1296.01,-0.015625,0.914062,214.146,0
     0,0,0,0,0,0,0,0,0,807.005,-1163.81,-0.0078125,0.976562,214.166,0
     0,0,0,0,0,0,0,0,0,874.738,-1103.69,-0.0078125,0.992188,214.186,0
     0,0,0,0,0,0,0,0,0,978.282,-1168.16,-0.0078125,1,214.206,0
     0,0,0,0,0,0,0,0,0,889.838,-1112.53,-0.0078125,1,214.226,0
     0,0,0,0,0,0,0,0,0,969.932,-1357.5,-0.0078125,1,214.264,0
     0,0,0,0,0,0,0,0,0,1072.67,-1260.08,-0.0078125,1,214.271,0
     0,0,0,0,0,0,0,0,0,956.617,-1128.8,-0.0078125,1,214.297,0
     0,0,0,0,0,0,0,0,0,949.352,-1216.55,-0.0078125,1,214.307,0
     0,0,0,0,0,0,0,0,0,926.097,-1223.24,-0.0078125,1,214.326,0
     0,0,0,0,0,0,0,0,0,1009.8,-1240,0.0314961,1,214.346,0
     0,0,0,0,0,0,0,0,0,1007.91,-1169.32,0.102362,1,214.368,0
     0,0,0,0,0,0,0,0,0,630.517,-1334.04,0.259843,1,214.385,0
     0,0,0,0,0,0,0,0,0,340.913,-1262.95,0.259843,1,214.407,0
     0,0,0,0,0,0,0,0,0,264.487,-1294.41,0.661417,1,214.429,0
     0,0,0,0,0,0,0,0,0,108.619,-1224.59,0.787402,1,214.448,0
     0,0,0,0,0,0,0,0,0,-141.924,-1193.1,0.929134,1,214.466,0
     0,0,0,0,0,0,0,0,0,-235.377,-1199.76,0.984252,1,214.486,0
     0,0,0,0,0,0,0,0,0,-306.363,-937.251,1,1,214.506,0
     0,0,0,0,0,0,0,0,0,-477.795,-1110,1,1,214.526,0
     0,0,0,0,0,0,0,0,0,-496.376,-1100.96,1,1,214.546,0
     0,0,0,0,0,0,0,0,0,-568.861,-1245.49,1,1,214.566,0
     0,0,0,0,0,0,0,0,0,-672.179,-982.704,1,1,214.586,0
     0,0,0,0,0,0,0,0,0,-764.117,-1010.82,1,1,214.609,0
     0,0,0,0,0,0,0,0,0,-647.103,-1041.4,1,1,214.626,0
     0,0,0,0,0,0,0,0,0,-783.116,-1119.95,1,1,214.646,0
     0,0,0,0,0,0,0,0,0,-789.983,-1199.69,1,1,214.666,0
     0,0,0,0,0,0,0,0,0,-744.103,-1054.91,1,1,214.686,0
     0,0,0,0,0,0,0,0,0,-776.578,-964.227,1,1,214.706,0
     0,0,0,0,0,0,0,0,0,-689.37,-1080.79,1,1,214.726,0
     0,0,0,0,0,0,0,0,0,-835.247,-1090.39,1,1,214.746,0
     0,0,0,0,0,0,0,0,0,-767.607,-924.513,1,1,214.766,0
     0,0,0,0,0,0,0,0,0,-694.83,-1103.57,1,1,214.787,0
     0,0,0,0,0,0,0,0,0,-709.27,-1008.37,1,1,214.806,0
     0,0,0,0,0,0,0,0,0,-606.299,-948.407,1,1,214.826,0
     0,0,0,0,0,0,0,0,0,-624.824,-811.787,1,1,214.847,0
     0,0,0,0,0,0,0,0,0,-827.917,-850.268,1,1,214.866,0
     0,0,0,0,0,0,0,0,0,-565.707,-867.303,1,1,214.886,0
     0,0,0,0,0,0,0,0,0,-652.529,-742.17,1,1,214.906,0
     0,0,0,0,0,0,0,0,0,-844.595,-750.892,1,1,214.926,0
     0,0,0,0,0,0,0,0,0,-581.007,-939.585,1,1,214.946,0
     0,0,0,0,0,0,0,0,0,-767.961,-964.134,1,1,214.966,0
     0,0,0,0,0,0,0,0,0,-530.096,-731.529,1,1,214.986,0
     0,0,0,0,0,0,0,0,0,-715.231,-976.944,1,1,215.005,0
     0,0,0,0,0,0,0,0,0,-639.713,-819.84,1,1,215.026,0
     0,0,0,0,0,0,0,0,0,-768.079,-1049.04,1,1,215.046,0
     0,0,0,0,0,0,0,0,0,-790.639,-815.494,1,1,215.066,0
     0,0,0,0,0,0,0,0,0,-872.753,-843.348,1,1,215.086,0
     0,0,0,0,0,0,0,0,0,-743.55,-923.489,1,1,215.106,0
     0,0,0,0,0,0,0,0,0,-785.855,-890.076,1,1,215.126,0
     0,0,0,0,0,0,0,0,0,-809.651,-814.1,1,1,215.147,0
     0,0,0,0,0,0,0,0,0,-752.078,-675.95,0.92126,1,215.166,0
     0,0,0,0,0,0,0,0,0,-899.969,-1252.82,0.685039,0.929688,215.186,0
     0,0,0,0,0,0,0,0,0,-726.296,-820.816,0.307087,0.773438,215.207,0
     0,0,0,0,0,0,0,0,0,-588.824,-766.401,0.0866142,0.398438,215.226,0
     0,0,0,0,0,0,0,0,0,-402.512,-550.646,-0.015625,0.09375,215.246,0
     0,0,0,0,0,0,0,0,0,-230.534,-561.514,-0.015625,0.0078125,215.267,0
     0,0,0,0,0,0,0,0,0,-115.438,-523.478,-0.015625,0.0078125,215.286,0
     0,0,0,0,0,0,0,0,0,-66.994,-629.01,-0.015625,0.0078125,215.306,0
     0,0,0,0,0,0,0,0,0,32.8402,-480.596,-0.015625,0.0078125,215.326,0
     0,0,0,0,0,0,0,0,0,44.0588,-517.384,-0.015625,0.0078125,215.346,0
     0,0,0,0,0,0,0,0,0,29.2542,-447.507,-0.015625,0.0078125,215.366,0
     0,0,0,0,0,0,0,0,0,24.3508,-445.335,-0.015625,0.0078125,215.385,0
     0,0,0,0,0,0,0,0,0,58.3611,-434.887,-0.015625,0.0078125,215.405,0
     0,0,0,0,0,0,0,0,0,82.5897,-403.584,-0.015625,0.0078125,215.426,0
     0,0,0,0,0,0,0,0,0,89.0012,-322.69,-0.015625,0.0078125,215.446,0
     0,0,0,0,0,0,0,0,0,107.012,-296.789,-0.015625,0.0078125,215.466,0
     0,0,0,0,0,0,0,0,0,124.455,-277.323,-0.015625,0.0078125,215.486,0
     0,0,0,0,0,0,0,0,0,135.982,-217.893,-0.015625,0.0703125,215.506,0
     0,0,0,0,0,0,0,0,0,133.429,-173.889,0.15748,0.171875,215.534,0
     0,0,0,0,0,0,0,0,0,131.265,-128.639,0.488189,0.304688,215.546,0
     0,0,0,0,0,0,0,0,0,108.185,-188.108,0.826772,0.507812,215.566,0
     0,0,0,0,0,0,0,0,0,-209.371,-209.58,0.984252,0.53125,215.586,0
     0,0,0,0,0,0,0,0,0,-396.071,-217.903,1,0.539062,215.606,0
     0,0,0,0,0,0,0,0,0,-513.927,-275.752,1,0.460938,215.626,0
     0,0,0,0,0,0,0,0,0,-633.453,-279.509,1,0.328125,215.647,0
     0,0,0,0,0,0,0,0,0,-665.89,-215.202,0.629921,0.125,215.666,0
     0,0,0,0,0,0,0,0,0,-720.877,-178.696,0.251969,0.0234375,215.685,0
     0,0,0,0,0,0,0,0,0,-434.443,-124.433,-0.0234375,0.0078125,215.706,0
     0,0,0,0,0,0,0,0,0,-230.428,-78.0412,-0.0234375,0.0078125,215.728,0
     0,0,0,0,0,0,0,0,0,-98.5576,-48.8209,-0.0234375,0.0078125,215.746,0
     0,0,0,0,0,0,0,0,0,-150.074,-48.8209,-0.0234375,0.0078125,215.766,0
     0,0,0,0,0,0,0,0,0,-121.222,-48.8209,-0.0234375,0.0078125,215.786,0
     0,0,0,0,0,0,0,0,0,-59.6871,-48.8209,-0.0234375,0.0078125,215.806,0
     0,0,0,0,0,0,0,0,0,-45.3123,0,-0.0234375,0.0078125,215.826,0
     0,0,0,0,0,0,0,0,0,-44.0597,33.06,-0.0234375,0.0078125,215.846,0
     0,0,0,0,0,0,0,0,0,-37.7623,38.0602,-0.0234375,0.0078125,215.866,0
     0,0,0,0,0,0,0,0,0,-30.3713,30.2201,-0.0234375,0.0078125,215.887,0
     0,0,0,0,0,0,0,0,0,-27.6043,30.2201,-0.0234375,0.0078125,215.905,0
     0,0,0,0,0,0,0,0,0,-27.6043,30.2201,-0.0234375,0.0078125,215.927,0
     0,0,0,0,0,0,0,0,0,-27.6043,30.2201,-0.0234375,0.0078125,215.945,0
     0,0,0,0,0,0,0,0,0,-27.6043,30.2201,-0.0234375,0.0078125,215.966,0
     0,0,0,0,0,0,0,0,0,-27.6043,30.2201,-0.0234375,0.101562,215.985,0
     0,0,0,0,0,0,0,0,0,-27.6043,30.2201,-0.0234375,0.164062,216.006,0
     0,0,0,0,0,0,0,0,0,-27.6043,0,-0.046875,0.265625,216.026,0
     0,0,0,0,0,0,0,0,0,0,-51.4222,-0.09375,0.34375,216.046,0
     0,0,0,0,0,0,0,0,0,54.9227,-109.222,-0.140625,0.382812,216.066,0
     0,0,0,0,0,0,0,0,0,108.926,-175.696,-0.203125,0.429688,216.1,0
     0,0,0,0,0,0,0,0,0,118.441,-180.016,-0.234375,0.445312,216.106,0
     0,0,0,0,0,0,0,0,0,175.605,-210.362,-0.234375,0.445312,216.127,0
     0,0,0,0,0,0,0,0,0,204.476,-251.206,-0.242188,0.445312,216.147,0
     0,0,0,0,0,0,0,0,0,229.339,-193.736,-0.242188,0.445312,216.165,0
     0,0,0,0,0,0,0,0,0,266.738,-323.708,-0.242188,0.445312,216.186,0
     0,0,0,0,0,0,0,0,0,294.213,-359.783,-0.242188,0.445312,216.206,0
     0,0,0,0,0,0,0,0,0,350.067,-463.306,-0.242188,0.445312,216.226,0
     0,0,0,0,0,0,0,0,0,381.905,-409.92,-0.242188,0.445312,216.246,0
     0,0,0,0,0,0,0,0,0,403.592,-399.664,-0.242188,0.273438,216.275,0
     0,0,0,0,0,0,0,0,0,410.838,-431.854,-0.242188,0.171875,216.286,0
     0,0,0,0,0,0,0,0,0,417.441,-378.222,-0.125,0.046875,216.307,0
     0,0,0,0,0,0,0,0,0,365.477,-395.023,-0.078125,0.0078125,216.326,0
     0,0,0,0,0,0,0,0,0,324.602,-383.619,-0.0234375,0.0078125,216.346,0
     0,0,0,0,0,0,0,0,0,342.501,-287.67,-0.0078125,0.0078125,216.366,0
     0,0,0,0,0,0,0,0,0,332.005,-326.344,-0.0078125,0.0078125,216.386,0
     0,0,0,0,0,0,0,0,0,311.76,-377.843,-0.0078125,0.0078125,216.406,0
     0,0,0,0,0,0,0,0,0,309.463,-302.773,-0.0078125,0.0078125,216.426,0
     0,0,0,0,0,0,0,0,0,279.451,-332.403,-0.0078125,0.0078125,216.446,0
     0,0,0,0,0,0,0,0,0,272.253,-271.017,-0.0078125,0.0078125,216.465,0
     0,0,0,0,0,0,0,0,0,239.659,-256.802,-0.0078125,0.0078125,216.485,0
     0,0,0,0,0,0,0,0,0,249.252,-244.897,-0.0078125,0.0078125,216.506,0
     0,0,0,0,0,0,0,0,0,234.395,-250.708,-0.0078125,0.0078125,216.526,0
     0,0,0,0,0,0,0,0,0,210.409,-190.382,-0.0078125,0.0078125,216.546,0
     0,0,0,0,0,0,0,0,0,175.957,-190.051,-0.0078125,0.0078125,216.566,0
     0,0,0,0,0,0,0,0,0,218.202,-194.892,-0.0078125,0.0078125,216.586,0
     0,0,0,0,0,0,0,0,0,166.607,-127.167,-0.0078125,0.0078125,216.623,0
     0,0,0,0,0,0,0,0,0,157.252,-138.642,-0.0078125,0.0078125,216.627,0
     0,0,0,0,0,0,0,0,0,139.418,-116.234,-0.0078125,0.0078125,216.646,0
     0,0,0,0,0,0,0,0,0,111.29,-109.964,-0.0078125,0.0078125,216.68,0
     0,0,0,0,0,0,0,0,0,114.159,-124.106,-0.0078125,0.0078125,216.686,0
     0,0,0,0,0,0,0,0,0,96.9274,-93.985,-0.0078125,0.0078125,216.706,0
     0,0,0,0,0,0,0,0,0,93.1281,-87.4967,-0.0078125,0.0078125,216.727,0
     0,0,0,0,0,0,0,0,0,70.7176,-61.7906,-0.0078125,0.0078125,216.745,0
     0,0,0,0,0,0,0,0,0,50.6672,-50.806,-0.0078125,0.0078125,216.766,0
     0,0,0,0,0,0,0,0,0,39.6147,-35.7664,-0.0078125,0.0078125,216.787,0
     0,0,0,0,0,0,0,0,0,30.0529,-35.7664,-0.0078125,0.0078125,216.805,0
     0,0,0,0,0,0,0,0,0,30.0529,-22.2064,-0.0078125,0.0078125,216.825,0
     0,0,0,0,0,0,0,0,0,30.0529,-22.2064,-0.0078125,0.0078125,216.845,0
     0,0,0,0,0,0,0,0,0,0,-5.93603,-0.0078125,0.0078125,216.866,0
     0,0,0,0,0,0,0,0,0,-5.31246,5.27068,-0.0078125,0.0078125,216.886,0
     0,0,0,0,0,0,0,0,0,-11.0878,11.9651,-0.0078125,0.0078125,216.906,0
     0,0,0,0,0,0,0,0,0,-18.289,18.1565,-0.0078125,0.0078125,216.926,0
     0,0,0,0,0,0,0,0,0,-17.2624,16.8378,-0.0078125,0.0078125,216.946,0
     0,0,0,0,0,0,0,0,0,-15.894,15.0107,-0.0078125,0.0078125,216.983,0
     0,0,0,0,0,0,0,0,0,-15.894,15.0107,-0.0078125,0.0078125,216.987,0
     0,0,0,0,0,0,0,0,0,-11.6924,15.0107,-0.0078125,0.0078125,217.006,0
     0,0,0,0,0,0,0,0,0,-11.6924,15.0107,-0.0078125,0.0078125,217.026,0
     0,0,0,0,0,0,0,0,0,-11.6924,15.0107,-0.0078125,0.0078125,217.046,0
     0,0,0,0,0,0,0,0,0,-11.6924,15.0107,-0.0078125,0.0078125,217.066,0
     0,0,0,0,0,0,0,0,0,-11.6924,15.0107,-0.0078125,0.0078125,217.086,0
     0,0,0,0,0,0,0,0,0,-11.6924,15.0107,-0.0078125,0.0078125,217.106,0
     0,0,0,0,0,0,0,0,0,-11.6924,15.0107,-0.0078125,0.0078125,217.126,0
     0,0,0,0,0,0,0,0,0,-11.6924,15.0107,-0.0078125,0.0078125,217.163,0
     0,0,0,0,0,0,0,0,0,-11.6924,15.0107,-0.0078125,0.0078125,217.172,0
     0,0,0,0,0,0,0,0,0,-11.6924,15.0107,-0.0078125,0.0078125,217.186,0
     0,0,0,0,0,0,0,0,0,-11.6924,15.0107,0.00787402,0.0078125,217.206,0
     0,0,0,0,0,0,0,0,0,-11.6924,15.0107,0.125984,0.0078125,217.226,0
     0,0,0,0,0,0,0,0,0,-11.6924,15.0107,0.409449,-0.0629921,217.246,0
     0,0,0,0,0,0,0,0,0,-2.89317,15.0107,0.645669,-0.322835,217.265,0
     0,0,0,0,0,0,0,0,0,-207.235,2.67771,0.897638,-0.559055,217.285,0
     0,0,0,0,0,0,0,0,0,-338.078,242.175,1,-0.866142,217.306,0
     0,0,0,0,0,0,0,0,0,-441.891,259.027,1,-0.992126,217.326,0
     0,0,0,0,0,0,0,0,0,-422.761,419.992,1,-1,217.347,0
     0,0,0,0,0,0,0,0,0,-573.542,494.181,1,-1,217.366,0
     0,0,0,0,0,0,0,0,0,-532.524,580.417,1,-1,217.389,0
     0,0,0,0,0,0,0,0,0,-635.829,588.98,1,-1,217.406,0
     0,0,0,0,0,0,0,0,0,-655.845,704.077,1,-1,217.426,0
     0,0,0,0,0,0,0,0,0,-794.66,699.056,1,-1,217.446,0
     0,0,0,0,0,0,0,0,0,-899.928,847.063,1,-1,217.466,0
     0,0,0,0,0,0,0,0,0,-913.91,894.334,1,-0.76378,217.511,0
     0,0,0,0,0,0,0,0,0,-931.793,1227.14,1,-0.76378,217.514,0
     0,0,0,0,0,0,0,0,0,-999.251,708.893,1,-0.385827,217.534,0
     0,0,0,0,0,0,0,0,0,-1096.61,827.815,1,0.03125,217.568,0
     0,0,0,0,0,0,0,0,0,-1034.82,568.246,1,0.273438,217.585,0
     0,0,0,0,0,0,0,0,0,-1019.16,315.846,1,0.53125,217.606,0
     0,0,0,0,0,0,0,0,0,-1121.77,170.438,1,0.53125,217.626,0
     0,0,0,0,0,0,0,0,0,-1217.21,-24.2603,1,0.78125,217.646,0
     0,0,0,0,0,0,0,0,0,-1109.88,-152.979,1,0.90625,217.666,0
     0,0,0,0,0,0,0,0,0,-1069.23,-275.866,1,1,217.686,0
     0,0,0,0,0,0,0,0,0,-995.966,-358.539,1,1,217.707,0
     0,0,0,0,0,0,0,0,0,-1158.68,-479.605,1,1,217.725,0
     0,0,0,0,0,0,0,0,0,-1000.55,-427.077,1,1,217.745,0
     0,0,0,0,0,0,0,0,0,-1048.22,-522.098,1,1,217.771,0
     0,0,0,0,0,0,0,0,0,-1001,-556.158,1,1,217.786,0
     0,0,0,0,0,0,0,0,0,-933.053,-534.359,1,1,217.821,0
     0,0,0,0,0,0,0,0,0,-1110.31,-553.756,1,1,217.827,0
     0,0,0,0,0,0,0,0,0,-1001.5,-529.633,1,1,217.845,0
     0,0,0,0,0,0,0,0,0,-1030.56,-567.779,1,1,217.866,0
     0,0,0,0,0,0,0,0,0,-969.462,-617.894,1,1,217.886,0
     0,0,0,0,0,0,0,0,0,-858.959,-551.557,1,1,217.907,0
     0,0,0,0,0,0,0,0,0,-937.031,-581.277,1,1,217.926,0
     0,0,0,0,0,0,0,0,0,-968.945,-634.699,1,1,217.947,0
     0,0,0,0,0,0,0,0,0,-910.249,-608.31,1,1,217.979,0
     0,0,0,0,0,0,0,0,0,-928.376,-787.712,0.818898,1,217.994,0
     0,0,0,0,0,0,0,0,0,-807.396,-795.577,0.629921,1,218.006,0
     0,0,0,0,0,0,0,0,0,-816.993,-916.338,0.401575,1,218.031,0
     0,0,0,0,0,0,0,0,0,-666.089,-856.825,0.11811,1,218.045,0
     0,0,0,0,0,0,0,0,0,-456.454,-945.001,-0.0078125,1,218.066,0
     0,0,0,0,0,0,0,0,0,-324.607,-968.945,-0.09375,1,218.085,0
     0,0,0,0,0,0,0,0,0,-157.323,-1096.97,-0.195312,1,218.106,0
     0,0,0,0,0,0,0,0,0,-99.3231,-968.195,-0.445312,1,218.129,0
     0,0,0,0,0,0,0,0,0,-86.5205,-654.772,-0.648438,1,218.146,0
     0,0,0,0,0,0,0,0,0,225.892,-1359.53,-0.882812,1,218.167,0
     0,0,0,0,0,0,0,0,0,359.945,-1093.14,-1,1,218.186,0
     0,0,0,0,0,0,0,0,0,434.339,-1215.66,-1,1,218.206,0
     0,0,0,0,0,0,0,0,0,531.477,-1223.69,-1,1,218.226,0
     0,0,0,0,0,0,0,0,0,713.369,-1109.63,-1,1,218.246,0
     0,0,0,0,0,0,0,0,0,769.112,-1095.65,-1,1,218.274,0
     0,0,0,0,0,0,0,0,0,835.911,-1368.36,-1,1,218.288,0
     0,0,0,0,0,0,0,0,0,914.16,-1112.41,-1,1,218.306,0
     0,0,0,0,0,0,0,0,0,908.389,-1127.08,-1,1,218.326,0
     0,0,0,0,0,0,0,0,0,1113.65,-1142.33,-1,1,218.346,0
     0,0,0,0,0,0,0,0,0,990.344,-1372.97,-1,1,218.367,0
     0,0,0,0,0,0,0,0,0,1039.07,-1473.84,-1,1,218.386,0
     0,0,0,0,0,0,0,0,0,1248.05,-998.602,-1,1,218.406,0
     0,0,0,0,0,0,0,0,0,1297.52,-1321.79,-1,1,218.425,0
     0,0,0,0,0,0,0,0,0,1212.49,-1175.36,-1,1,218.446,0
     0,0,0,0,0,0,0,0,0,1317.7,-1353,-1,1,218.466,0
     0,0,0,0,0,0,0,0,0,1353,-1491.2,-1,1,218.486,0
     0,0,0,0,0,0,0,0,0,1225.64,-1422.27,-1,1,218.506,0
     0,0,0,0,0,0,0,0,0,1490.42,-1402.52,-1,1,218.526,0
     0,0,0,0,0,0,0,0,0,1375.04,-1238.62,-1,1,218.546,0
     0,0,0,0,0,0,0,0,0,1441.96,-1327.05,-1,1,218.566,0
     0,0,0,0,0,0,0,0,0,1283.61,-1614.73,-1,1,218.586,0
     0,0,0,0,0,0,0,0,0,1399.48,-1492.87,-1,1,218.606,0
     0,0,0,0,0,0,0,0,0,1472.97,-1423.89,-1,1,218.626,0
     0,0,0,0,0,0,0,0,0,1282.87,-1550.63,-1,1,218.646,0
     0,0,0,0,0,0,0,0,0,1460.6,-1362.58,-1,1,218.666,0
     0,0,0,0,0,0,0,0,0,1490.65,-1476.56,-1,1,218.686,0
     0,0,0,0,0,0,0,0,0,1388.99,-1203.15,-1,1,218.706,0
     0,0,0,0,0,0,0,0,0,1564.21,-1448.65,-1,1,218.726,0
     0,0,0,0,0,0,0,0,0,1556.78,-1056.08,-1,1,218.746,0
     0,0,0,0,0,0,0,0,0,1541.9,-1276.49,-1,1,218.766,0
     0,0,0,0,0,0,0,0,0,1430.1,-1486.44,-1,1,218.786,0
     0,0,0,0,0,0,0,0,0,1718.21,-1557.63,-1,1,218.806,0
     0,0,0,0,0,0,0,0,0,1463.7,-1640.82,-1,1,218.825,0
     0,0,0,0,0,0,0,0,0,1566.42,-1642.85,-1,1,218.846,0
     0,0,0,0,0,0,0,0,0,1546.67,-1642.44,-1,1,218.866,0
     0,0,0,0,0,0,0,0,0,1584.79,-1290.32,-1,1,218.886,0
     0,0,0,0,0,0,0,0,0,1532.1,-1484.01,-1,1,218.906,0
     0,0,0,0,0,0,0,0,0,1588.31,-1866.19,-1,1,218.926,0
     0,0,0,0,0,0,0,0,0,1761.03,-1570.35,-1,1,218.946,0
     0,0,0,0,0,0,0,0,0,1528.47,-1422.17,-1,1,218.966,0
     0,0,0,0,0,0,0,0,0,1517.68,-1520.45,-1,1,218.986,0
     0,0,0,0,0,0,0,0,0,1610.05,-1566.17,-1,1,219.006,0
     0,0,0,0,0,0,0,0,0,1561.28,-1707.07,-1,1,219.026,0
     0,0,0,0,0,0,0,0,0,1537.63,-1600.38,-1,1,219.046,0
     0,0,0,0,0,0,0,0,0,1593.63,-1592.61,-1,1,219.066,0
     0,0,0,0,0,0,0,0,0,1519.64,-1430.1,-1,1,219.086,0
     0,0,0,0,0,0,0,0,0,1774.94,-1622.32,-1,1,219.106,0
     0,0,0,0,0,0,0,0,0,1458.9,-1672.38,-1,1,219.125,0
     0,0,0,0,0,0,0,0,0,1606.94,-1795.49,-1,1,219.145,0
     0,0,0,0,0,0,0,0,0,1763.05,-1584.41,-1,1,219.166,0
     0,0,0,0,0,0,0,0,0,1685.49,-1518.26,-1,1,219.186,0
     0,0,0,0,0,0,0,0,0,1683.22,-1611.86,-1,1,219.206,0
     0,0,0,0,0,0,0,0,0,1453.81,-1579.16,-1,1,219.226,0
     0,0,0,0,0,0,0,0,0,1465.63,-1510.23,-1,1,219.246,0
     0,0,0,0,0,0,0,0,0,1574.31,-1624.96,-1,1,219.267,0
     0,0,0,0,0,0,0,0,0,1494.1,-1709.26,-1,1,219.286,0
     0,0,0,0,0,0,0,0,0,1382.84,-1554.73,-1,0.875,219.305,0
     0,0,0,0,0,0,0,0,0,1735.96,-1614.34,-1,0.671875,219.326,0
     0,0,0,0,0,0,0,0,0,1465.74,-1765.54,-1,0.5,219.346,0
     0,0,0,0,0,0,0,0,0,1646.23,-1430.21,-1,0.289062,219.366,0
     0,0,0,0,0,0,0,0,0,1643.52,-1266.87,-1,0.140625,219.386,0
     0,0,0,0,0,0,0,0,0,1645.01,-937.954,-1,0.0859375,219.409,0
     0,0,0,0,0,0,0,0,0,1868.81,-838.469,-1,0.0546875,219.426,0
     0,0,0,0,0,0,0,0,0,1590.33,-678.725,-1,0.046875,219.446,0
     0,0,0,0,0,0,0,0,0,1579.53,-700.992,-1,0.0234375,219.466,0
     0,0,0,0,0,0,0,0,0,1519.76,-641.849,-1,0.015625,219.486,0
     0,0,0,0,0,0,0,0,0,1616.81,-852.442,-1,0.0078125,219.506,0
     0,0,0,0,0,0,0,0,0,1548.71,-958.727,-1,0.0078125,219.526,0
     0,0,0,0,0,0,0,0,0,1338.6,-1137.53,-1,0.0078125,219.546,0
     0,0,0,0,0,0,0,0,0,1352.08,-1008.62,-1,0.0078125,219.566,0
     0,0,0,0,0,0,0,0,0,1419.55,-1264.14,-1,0.0078125,219.586,0
     0,0,0,0,0,0,0,0,0,1365.37,-1204.24,-1,0.0078125,219.606,0
     0,0,0,0,0,0,0,0,0,1382.93,-1272.59,-1,0.0078125,219.626,0
     0,0,0,0,0,0,0,0,0,1344.63,-1127.84,-1,0.0078125,219.646,0
     0,0,0,0,0,0,0,0,0,1336.54,-1317.35,-1,0.0078125,219.667,0
     0,0,0,0,0,0,0,0,0,1359.9,-1099.81,-1,0.0078125,219.686,0
     0,0,0,0,0,0,0,0,0,1303.61,-1164.28,-1,0.0078125,219.706,0
     0,0,0,0,0,0,0,0,0,1361.84,-1282.87,-1,0.0078125,219.726,0
     0,0,0,0,0,0,0,0,0,1262.39,-1134.62,-1,0.0078125,219.746,0
     0,0,0,0,0,0,0,0,0,1292.57,-1306.08,-1,0.0078125,219.766,0
     0,0,0,0,0,0,0,0,0,1276.73,-1108.89,-1,0.0078125,219.785,0
     0,0,0,0,0,0,0,0,0,1284.69,-1264.14,-1,0.0078125,219.807,0
     0,0,0,0,0,0,0,0,0,1303.95,-1249.84,-1,0.0078125,219.826,0
     0,0,0,0,0,0,0,0,0,1408.85,-1168.63,-1,0.0078125,219.846,0
     0,0,0,0,0,0,0,0,0,1432.66,-1311.82,-1,0.0078125,219.866,0
     0,0,0,0,0,0,0,0,0,1446.03,-1214.99,-1,0.0078125,219.886,0
     0,0,0,0,0,0,0,0,0,1433.08,-961.076,-1,0.0078125,219.906,0
     0,0,0,0,0,0,0,0,0,1521.84,-1301.24,-1,0.0078125,219.926,0
     0,0,0,0,0,0,0,0,0,1258.26,-1064.62,-1,0.0078125,219.946,0
     0,0,0,0,0,0,0,0,0,1400.56,-1400.85,-1,0.0078125,219.98,0
     0,0,0,0,0,0,0,0,0,1448.33,-1171.78,-1,0.0078125,219.986,0
     0,0,0,0,0,0,0,0,0,1300.39,-1316.22,-1,0.0078125,220.006,0
     0,0,0,0,0,0,0,0,0,1420.05,-1101.2,-1,-0.015748,220.027,0
     0,0,0,0,0,0,0,0,0,1428.88,-1215.88,-1,-0.0866142,220.046,0
     0,0,0,0,0,0,0,0,0,1293.49,-829.841,-1,-0.204724,220.066,0
     0,0,0,0,0,0,0,0,0,1495.33,-606.263,-1,-0.299213,220.086,0
     0,0,0,0,0,0,0,0,0,1275.43,-237.595,-1,-0.417323,220.106,0
     0,0,0,0,0,0,0,0,0,1338.33,-89.7775,-1,-0.464567,220.125,0
     0,0,0,0,0,0,0,0,0,1427.86,-89.7775,-1,-0.511811,220.146,0
     0,0,0,0,0,0,0,0,0,1292.91,11.2605,-1,-0.511811,220.166,0
     0,0,0,0,0,0,0,0,0,1128.92,52.0774,-1,-0.519685,220.186,0
     0,0,0,0,0,0,0,0,0,1224.29,83.4488,-1,-0.519685,220.207,0
     0,0,0,0,0,0,0,0,0,1189.48,133.974,-1,-0.551181,220.226,0
     0,0,0,0,0,0,0,0,0,1197.96,121.502,-1,-0.582677,220.246,0
     0,0,0,0,0,0,0,0,0,1060.95,190.29,-1,-0.622047,220.266,0
     0,0,0,0,0,0,0,0,0,1085.48,237.86,-1,-0.637795,220.286,0
     0,0,0,0,0,0,0,0,0,1220.63,309.449,-1,-0.645669,220.31,0
     0,0,0,0,0,0,0,0,0,1077.82,362.667,-1,-0.669291,220.326,0
     0,0,0,0,0,0,0,0,0,981.065,329.859,-1,-0.708661,220.346,0
     0,0,0,0,0,0,0,0,0,1029.12,390.732,-1,-0.740157,220.38,0
     0,0,0,0,0,0,0,0,0,1114.77,438.808,-1,-0.748031,220.386,0
     0,0,0,0,0,0,0,0,0,1066.72,522.275,-1,-0.748031,220.405,0
     0,0,0,0,0,0,0,0,0,1011.07,438.808,-1,-0.748031,220.426,0
     0,0,0,0,0,0,0,0,0,880.282,355.897,-1,-0.748031,220.445,0
     0,0,0,0,0,0,0,0,0,971.77,392.92,-1,-0.748031,220.466,0
     0,0,0,0,0,0,0,0,0,972.006,375.157,-1,-0.748031,220.486,0
     0,0,0,0,0,0,0,0,0,1107.97,391.788,-1,-0.637795,220.506,0
     0,0,0,0,0,0,0,0,0,981.114,341.058,-1,-0.511811,220.527,0
     0,0,0,0,0,0,0,0,0,953.516,282.53,-1,-0.251969,220.546,0
     0,0,0,0,0,0,0,0,0,931.489,121.703,-1,-0.0551181,220.566,0
     0,0,0,0,0,0,0,0,0,915.835,102.901,-1,-0,220.586,0
     0,0,0,0,0,0,0,0,0,825.9,-132.229,-1,0.0078125,220.606,0
     0,0,0,0,0,0,0,0,0,859.66,-203.376,-1,0.0078125,220.626,0
     0,0,0,0,0,0,0,0,0,866.739,-280.836,-1,0.0078125,220.646,0
     0,0,0,0,0,0,0,0,0,907.153,-286.48,-1,0.0078125,220.666,0
     0,0,0,0,0,0,0,0,0,860.437,-321.28,-1,0.0078125,220.686,0
     0,0,0,0,0,0,0,0,0,987.996,-322.082,-1,0.0078125,220.706,0
     0,0,0,0,0,0,0,0,0,922.041,-361.415,-1,0.0078125,220.726,0
     0,0,0,0,0,0,0,0,0,962.279,-413.736,-1,0.0078125,220.746,0
     0,0,0,0,0,0,0,0,0,1031.67,-410.458,-1,0.0703125,220.766,0
     0,0,0,0,0,0,0,0,0,998.702,-461.563,-1,0.132812,220.786,0
     0,0,0,0,0,0,0,0,0,1037.29,-420.301,-1,0.234375,220.807,0
     0,0,0,0,0,0,0,0,0,938.835,-476.383,-1,0.289062,220.845,0
     0,0,0,0,0,0,0,0,0,969.885,-403.031,-1,0.289062,220.848,0
     0,0,0,0,0,0,0,0,0,917.011,-474.271,-1,0.34375,220.866,0
     0,0,0,0,0,0,0,0,0,1063.43,-590.58,-1,0.609375,220.886,0
     0,0,0,0,0,0,0,0,0,1057.47,-653.702,-1,0.789062,220.906,0
     0,0,0,0,0,0,0,0,0,979.048,-485.166,-1,0.867188,220.926,0
     0,0,0,0,0,0,0,0,0,987.654,-1076.6,-1,0.914062,220.946,0
     0,0,0,0,0,0,0,0,0,1055.69,-1010.1,-1,0.914062,220.966,0
     0,0,0,0,0,0,0,0,0,1023.23,-990.737,-1,0.804688,220.986,0
     0,0,0,0,0,0,0,0,0,1253.05,-772.439,-1,0.726562,221.005,0
     0,0,0,0,0,0,0,0,0,1196.53,-977.947,-1,0.601562,221.026,0
     0,0,0,0,0,0,0,0,0,1227.97,-1067.12,-1,0.515625,221.046,0
     0,0,0,0,0,0,0,0,0,1320.92,-1024.38,-1,0.460938,221.066,0
     0,0,0,0,0,0,0,0,0,1169.93,-912.534,-1,0.34375,221.086,0
     0,0,0,0,0,0,0,0,0,1214.99,-825.968,-1,0.242188,221.106,0
     0,0,0,0,0,0,0,0,0,1185.47,-813.901,-1,0.109375,221.126,0
     0,0,0,0,0,0,0,0,0,1253.13,-605.895,-1,0.0390625,221.146,0
     0,0,0,0,0,0,0,0,0,1381.88,-589.675,-1,0.03125,221.167,0
     0,0,0,0,0,0,0,0,0,1245.25,-631.951,-1,0.03125,221.187,0
     0,0,0,0,0,0,0,0,0,1326.26,-392.626,-1,0.03125,221.205,0
     0,0,0,0,0,0,0,0,0,1228.88,-435.787,-1,0.03125,221.227,0
     0,0,0,0,0,0,0,0,0,1154.87,-371.885,-1,0.03125,221.251,0
     0,0,0,0,0,0,0,0,0,1299.88,-405.203,-1,0.132812,221.266,0
     0,0,0,0,0,0,0,0,0,1300.56,-442.674,-1,0.234375,221.286,0
     0,0,0,0,0,0,0,0,0,1135.27,-490.184,-1,0.4375,221.306,0
     0,0,0,0,0,0,0,0,0,1166.93,-671.389,-1,0.609375,221.326,0
     0,0,0,0,0,0,0,0,0,1170.96,-742.914,-1,0.664062,221.346,0
     0,0,0,0,0,0,0,0,0,1130.71,-802.761,-1,0.679688,221.366,0
     0,0,0,0,0,0,0,0,0,1089.15,-863.595,-1,0.546875,221.386,0
     0,0,0,0,0,0,0,0,0,1108.09,-1002.51,-1,0.289062,221.406,0
     0,0,0,0,0,0,0,0,0,1152.41,-895.536,-1,0.078125,221.426,0
     0,0,0,0,0,0,0,0,0,1313.72,-653.36,-1,0.0078125,221.446,0
     0,0,0,0,0,0,0,0,0,1154.2,-753.267,-1,0.0078125,221.468,0
     0,0,0,0,0,0,0,0,0,1091.64,-855.981,-1,0.0078125,221.5,0
     0,0,0,0,0,0,0,0,0,1261.75,-776.367,-1,0.0078125,221.507,0
     0,0,0,0,0,0,0,0,0,1076.25,-821.052,-1,0.0078125,221.526,0
     0,0,0,0,0,0,0,0,0,1024.33,-992.359,-1,0.0078125,221.545,0
     0,0,0,0,0,0,0,0,0,1189.48,-1051.64,-1,0.0078125,221.566,0
     0,0,0,0,0,0,0,0,0,1203.73,-792.676,-1,0.0078125,221.586,0
     0,0,0,0,0,0,0,0,0,1110.12,-1003.56,-1,0.0078125,221.606,0
     0,0,0,0,0,0,0,0,0,1269.12,-859.476,-1,0.0078125,221.626,0
     0,0,0,0,0,0,0,0,0,1203.66,-998.901,-1,0.0078125,221.652,0
     0,0,0,0,0,0,0,0,0,1174.47,-816.093,-1,0.0078125,221.666,0
     0,0,0,0,0,0,0,0,0,1095.35,-1021.14,-1,0.0078125,221.689,0
     0,0,0,0,0,0,0,0,0,1107.42,-879.16,-1,0.0078125,221.706,0
     0,0,0,0,0,0,0,0,0,1300.9,-957.304,-1,0.0078125,221.726,0
     0,0,0,0,0,0,0,0,0,1051.8,-1080.44,-1,0.0078125,221.746,0
     0,0,0,0,0,0,0,0,0,1347.07,-1118.07,-1,0.0078125,221.766,0
     0,0,0,0,0,0,0,0,0,1197.89,-913.367,-1,0.0078125,221.786,0
     0,0,0,0,0,0,0,0,0,1239.54,-1067.41,-1,0.0078125,221.806,0
     0,0,0,0,0,0,0,0,0,1287.83,-1154.33,-1,0.0078125,221.826,0
     0,0,0,0,0,0,0,0,0,1115.14,-760.977,-1,0.0078125,221.846,0
     0,0,0,0,0,0,0,0,0,1372.78,-1048.66,-1,0.0078125,221.868,0
     0,0,0,0,0,0,0,0,0,1354.37,-935.716,-1,0.0078125,221.886,0
     0,0,0,0,0,0,0,0,0,1263.5,-1173.98,-1,0.0078125,221.906,0
     0,0,0,0,0,0,0,0,0,1094.45,-1002.2,-1,0.0078125,221.926,0
     0,0,0,0,0,0,0,0,0,1253.05,-1368.36,-1,0.0078125,221.945,0
     0,0,0,0,0,0,0,0,0,1160.77,-1044.22,-1,0.0078125,221.966,0
     0,0,0,0,0,0,0,0,0,1350.26,-1114.08,-1,0.0078125,221.987,0
     0,0,0,0,0,0,0,0,0,1355.47,-1140.06,-1,0.0078125,222.006,0
     0,0,0,0,0,0,0,0,0,1341.29,-1170.07,-1,0.0078125,222.026,0
     0,0,0,0,0,0,0,0,0,1319.52,-1231.53,-1,0.0078125,222.046,0
     0,0,0,0,0,0,0,0,0,1355.38,-1337.35,-1,0.0078125,222.066,0
     0,0,0,0,0,0,0,0,0,1406.17,-1258.1,-1,0.0078125,222.086,0
     0,0,0,0,0,0,0,0,0,1331.74,-1155.47,-1,0.0078125,222.106,0
     0,0,0,0,0,0,0,0,0,1153.34,-1152.74,-1,0.0078125,222.126,0
     0,0,0,0,0,0,0,0,0,1225.26,-1120.07,-1,-0,222.146,0
     0,0,0,0,0,0,0,0,0,1309.07,-1080.21,-1,-0.023622,222.167,0
     0,0,0,0,0,0,0,0,0,1284.6,-1312.77,-1,-0.0551181,222.186,0
     0,0,0,0,0,0,0,0,0,1099.93,-963.623,-1,-0.141732,222.206,0
     0,0,0,0,0,0,0,0,0,1438.23,-645.932,-1,-0.251969,222.226,0
     0,0,0,0,0,0,0,0,0,1256.04,-241.348,-1,-0.582677,222.246,0
     0,0,0,0,0,0,0,0,0,1332.36,-164.544,-1,-0.724409,222.266,0
     0,0,0,0,0,0,0,0,0,1166.79,324.328,-1,-0.818898,222.286,0
     0,0,0,0,0,0,0,0,0,1304.89,281.901,-1,-0.826772,222.306,0
     0,0,0,0,0,0,0,0,0,1111.79,355.467,-1,-0.826772,222.326,0
     0,0,0,0,0,0,0,0,0,1197.03,486.157,-1,-0.535433,222.346,0
     0,0,0,0,0,0,0,0,0,1113.28,472.791,-1,-0.220472,222.366,0
     0,0,0,0,0,0,0,0,0,1203.95,303.831,-1,0.0078125,222.386,0
     0,0,0,0,0,0,0,0,0,1185.61,126.993,-1,0.0078125,222.406,0
     0,0,0,0,0,0,0,0,0,1048.49,-24.245,-1,0.0078125,222.426,0
     0,0,0,0,0,0,0,0,0,1203.37,-294.698,-1,0.0078125,222.447,0
     0,0,0,0,0,0,0,0,0,1183.85,-420.433,-1,0.0078125,222.467,0
     0,0,0,0,0,0,0,0,0,1095.71,-498.616,-1,0.0078125,222.486,0
     0,0,0,0,0,0,0,0,0,1086.13,-660.655,-1,0.0078125,222.506,0
     0,0,0,0,0,0,0,0,0,1057.75,-640.574,-1,0.0078125,222.526,0
     0,0,0,0,0,0,0,0,0,1083.42,-693.818,-1,0.0078125,222.545,0
     0,0,0,0,0,0,0,0,0,1084.07,-701.631,-1,0.0078125,222.566,0
     0,0,0,0,0,0,0,0,0,1093.85,-780.366,-1,0.0078125,222.586,0
     0,0,0,0,0,0,0,0,0,1228.2,-796.495,-1,0.0078125,222.605,0
     0,0,0,0,0,0,0,0,0,1187.58,-798.053,-1,0.0078125,222.625,0
     0,0,0,0,0,0,0,0,0,1152.07,-924.172,-1,0.0078125,222.645,0
     0,0,0,0,0,0,0,0,0,1209.7,-792.299,-1,0.0078125,222.666,0
     0,0,0,0,0,0,0,0,0,1168.36,-918.991,-1,0.0078125,222.686,0
     0,0,0,0,0,0,0,0,0,1082.9,-880.359,-1,0.0078125,222.706,0
     0,0,0,0,0,0,0,0,0,1089.74,-1021.19,-1,0.0078125,222.726,0
     0,0,0,0,0,0,0,0,0,1030.5,-1008.73,-1,0.0078125,222.746,0
     0,0,0,0,0,0,0,0,0,1116.57,-990.148,-1,0.015625,222.766,0
     0,0,0,0,0,0,0,0,0,1108.46,-952.971,-1,0.125,222.786,0
     0,0,0,0,0,0,0,0,0,1130.2,-896.057,-1,0.242188,222.806,0
     0,0,0,0,0,0,0,0,0,1209.63,-883.783,-1,0.421875,222.826,0
     0,0,0,0,0,0,0,0,0,1065.64,-802.568,-1,0.507812,222.846,0
     0,0,0,0,0,0,0,0,0,1243.78,-859.07,-1,0.570312,222.867,0
     0,0,0,0,0,0,0,0,0,1205.84,-900.576,-1,0.601562,222.887,0
     0,0,0,0,0,0,0,0,0,1206.2,-989.071,-1,0.625,222.906,0
     0,0,0,0,0,0,0,0,0,1233.88,-758.927,-1,0.679688,222.926,0
     0,0,0,0,0,0,0,0,0,1108.09,-1145.48,-1,0.71875,222.946,0
     0,0,0,0,0,0,0,0,0,1226.77,-823.825,-1,0.75,222.966,0
     0,0,0,0,0,0,0,0,0,1199.4,-1197.53,-1,0.757812,222.986,0
     0,0,0,0,0,0,0,0,0,1082.72,-1032.58,-1,0.757812,223.006,0
     0,0,0,0,0,0,0,0,0,1072.56,-887.863,-1,0.757812,223.026,0
     0,0,0,0,0,0,0,0,0,1213.44,-1170.41,-1,0.757812,223.046,0
     0,0,0,0,0,0,0,0,0,1279.26,-1132.05,-1,0.757812,223.066,0
     0,0,0,0,0,0,0,0,0,1241.16,-1324.15,-0.898438,0.757812,223.086,0
     0,0,0,0,0,0,0,0,0,1148.37,-1151.81,-0.859375,0.757812,223.106,0
     0,0,0,0,0,0,0,0,0,1278.04,-1179.66,-0.820312,0.757812,223.126,0
     0,0,0,0,0,0,0,0,0,1321.35,-881.057,-0.804688,0.757812,223.155,0
     0,0,0,0,0,0,0,0,0,1288.16,-1368.27,-0.789062,0.757812,223.167,0
     0,0,0,0,0,0,0,0,0,1406.87,-1302.51,-0.765625,0.757812,223.186,0
     0,0,0,0,0,0,0,0,0,1312.08,-1256.6,-0.742188,0.757812,223.207,0
     0,0,0,0,0,0,0,0,0,1277.63,-1166.93,-0.679688,0.757812,223.226,0
     0,0,0,0,0,0,0,0,0,1203.66,-1282.46,-0.617188,0.757812,223.245,0
     0,0,0,0,0,0,0,0,0,1244.17,-1163.47,-0.5,0.757812,223.266,0
     0,0,0,0,0,0,0,0,0,1215.51,-1248.28,-0.367188,0.757812,223.287,0
     0,0,0,0,0,0,0,0,0,982.898,-1211.53,-0.273438,0.757812,223.306,0
     0,0,0,0,0,0,0,0,0,926.87,-1188.42,-0.132812,0.757812,223.326,0
     0,0,0,0,0,0,0,0,0,832.362,-1275.35,-0.0703125,0.757812,223.347,0
     0,0,0,0,0,0,0,0,0,828.981,-974.232,-0.0078125,0.757812,223.366,0
     0,0,0,0,0,0,0,0,0,831.497,-1436.68,-0.0078125,0.773438,223.386,0
     0,0,0,0,0,0,0,0,0,918.695,-1276.98,-0.0078125,0.78125,223.406,0
     0,0,0,0,0,0,0,0,0,886.407,-1058.54,-0.0078125,0.78125,223.426,0
     0,0,0,0,0,0,0,0,0,1015.54,-1297.77,-0.0078125,0.78125,223.446,0
     0,0,0,0,0,0,0,0,0,1015.64,-1156.54,-0.0078125,0.78125,223.479,0
     0,0,0,0,0,0,0,0,0,949.487,-1103.33,-0.0078125,0.78125,223.486,0
     0,0,0,0,0,0,0,0,0,926.055,-1107.54,-0.0078125,0.789062,223.506,0
     0,0,0,0,0,0,0,0,0,1023.02,-1112.72,-0.0078125,0.796875,223.526,0
     0,0,0,0,0,0,0,0,0,884.525,-1032.1,-0.0078125,0.796875,223.546,0
     0,0,0,0,0,0,0,0,0,993.542,-986.388,0.00787402,0.796875,223.566,0
     0,0,0,0,0,0,0,0,0,1076.31,-1266.87,0.0314961,0.796875,223.586,0
     0,0,0,0,0,0,0,0,0,747.384,-1106.26,0.0787402,0.796875,223.606,0
