raw_accel_x,raw_accel_y,raw_accel_z,raw_gyro_x,raw_gyro_y,raw_gyro_z,world_accel_x,world_accel_y,yaw,fused_heading,x,y,z,left_encoder_rate,right_encoder_rate,left_motor,right_motor,temp,fpga time,navx time
-0.0110474,-0.0168457,1.014650,0,0.12207,0.001,0,85.38,0.0085144,-0.0211639,0,0,0,0,0,40.42,833.689,2065296
-0.0110474,-0.0168457,1.014650,0,0.12207,0.001,0,85.38,0.0085144,-0.0211639,0,0,0,0,0,40.42,833.698,2065296
-0.0126953,-0.0204468,1.0155-0.12207,-0.0610352,0.0610352,-0.001,-0.002,-0.01,0,0,0,0,0,0,0,40.42,833.714,2065310
-0.00921631,-0.0195923,1.01489-0.12207,-0.0610352,-0.0610352,0.002,-0.001,-0.01,0,0,0,0,0,0,0,40.42,833.733,2065340
-0.0125122,-0.0180054,1.01343-0.0610352,-0.12207,0,0,0,-0.01,0,0,0,0,0,0,0,40.42,833.753,2065356
-0.0109863,-0.0189209,1.01306-0.0610352,-0.0610352,0,0,0,-0.01,0,0,0,0,0,0,0,40.42,833.773,2065370
-0.00927734,-0.0210571,1.01196-0.0610352,-0.12207,-0.0610352,0.002,-0.002,-0.01,0,0,0,0,0,0,0,40.4,833.796,2065400
-0.0117188,-0.0211182,1.012080,0,0.0610352,0,-0.002,-0.01,0,0,0,0,0,0,0,40.4,833.813,2065416
-0.0100098,-0.0132446,1.01428-0.0610352,-0.183105,0.0610352,0.001,0.005,-0.01,0,0,0,0,0,0,0,40.4,833.833,2065430
-0.0108643,-0.0151978,1.013920,-0.0610352,-0.12207,0,0.003,-0.01,0,0,0,0,0,0,0,40.4,833.853,2065460
-0.0107422,-0.0195923,1.013790,0.0610352,0.0610352,0,-0.001,-0.01,0,0,0,0,0,0,0,40.4,833.872,2065476
-0.00854492,-0.0131836,1.01569-0.0610352,-0.183105,0.0610352,0.003,0.005,-0.01,0,0,0,0,0,0,0,40.4,833.895,2065490
-0.0114136,-0.0164795,1.00751-0.0610352,-0.12207,0,0,0.001,-0.01,0,0,0,0,0,0,0,40.4,833.912,2065520
-0.0126953,-0.0187988,1.014650,0,-0.0610352,-0.001,0,-0.01,0,0,0,0,0,0,0,40.4,833.932,2065536
-0.0108032,-0.0197754,1.017880.0610352,0,0.0610352,0,-0.001,-0.01,0,0,0,0,0,0,0,40.4,833.953,2065551
-0.00970459,-0.0179443,1.01251-0.12207,-0.12207,0.0610352,0.001,0,-0.01,0,0,0,0,0,0,0,40.4,833.972,2065581
-0.0125732,-0.0159912,1.01538-0.0610352,-0.0610352,0.0610352,-0.001,0.002,-0.02,0,0,0,0,0,0,0,40.4,833.998,2065596
-0.0107422,-0.0176392,1.018860.12207,0,0,0,0,-0.02,0,0,0,0,0,0,0,40.4,834.012,2065611
-0.0114746,-0.0177002,1.01306-0.12207,-0.12207,0.0610352,0,0,-0.02,0,0,0,0,0,0,0,40.4,834.035,2065641
-0.0119629,-0.0205688,1.016420,0.12207,0.0610352,0,-0.002,-0.02,0,0,0,0,0,0,0,40.4,834.053,2065656
-0.012085,-0.0195923,1.0152-0.12207,-0.12207,0,0,-0.001,-0.02,0,0,0,0,0,0,0,40.4,834.072,2065671
-0.0122681,-0.0164185,1.01617-0.0610352,-0.0610352,0.0610352,0,0.001,-0.02,0,0,0,0,0,0,0,40.4,834.093,2065701
-0.00982666,-0.0174561,1.013120,0,0.12207,0.001,0,-0.02,0,0,0,0,0,0,0,40.4,834.112,2065716
-0.0115967,-0.0172119,1.020570,-0.12207,0,0,0.001,-0.02,0,0,0,0,0,0,0,40.4,834.133,2065731
-0.0115356,-0.0187988,1.011350,0,0.12207,0,0,-0.02,0,0,0,0,0,0,0,40.4,834.153,2065761
-0.00891113,-0.0198975,1.01355-0.0610352,-0.0610352,0,0.002,-0.001,-0.02,0,0,0,0,0,0,0,40.4,834.173,2065776
-0.0114746,-0.019165,1.0094-0.12207,-0.183105,0.0610352,0,-0.001,-0.02,0,0,0,0,0,0,0,40.4,834.193,2065791
-0.0141602,-0.0197754,1.01105-0.183105,-0.12207,-0.12207,-0.002,-0.001,-0.02,0,0,0,0,0,0,0,40.4,834.213,2065821
-0.010376,-0.0148926,1.01013-0.0610352,-0.244141,0.0610352,0.001,0.003,-0.02,0,0,0,0,0,0,0,40.4,834.24,2065836
-0.012146,-0.0168457,1.01501-0.0610352,0,0,0,0.001,-0.02,0,0,0,0,0,0,0,40.4,834.253,2065851
-0.00982666,-0.0189819,1.016110,-0.0610352,-0.0610352,0.001,0,-0.02,0,0,0,0,0,0,0,40.4,834.273,2065881
-0.0122681,-0.0186157,1.017210,-0.0610352,-0.0610352,0,0,-0.02,0,0,0,0,0,0,0,40.4,834.292,2065896
-0.0130615,-0.0186157,1.0141-0.0610352,-0.12207,-0.0610352,-0.001,0,-0.02,0,0,0,0,0,0,0,40.42,834.313,2065911
-0.0112915,-0.0155029,1.01660.0610352,-0.0610352,0,0,0.002,-0.02,0,0,0,0,0,0,0,40.42,834.333,2065941
-0.0119019,-0.0187988,1.01367-0.0610352,-0.12207,0.0610352,0,0,-0.01,0,0,0,0,0,0,0,40.42,834.353,2065956
-0.00933838,-0.0174561,1.01953-0.12207,-0.0610352,0,0.002,0,-0.01,0,0,0,0,0,0,0,40.42,834.373,2065971
-0.010376,-0.0170898,1.015010,0.0610352,-0.183105,0.001,0,-0.01,0,0,0,0,0,0,0,40.42,834.393,2065986
-0.00933838,-0.0175781,1.01892-0.0610352,-0.0610352,0.0610352,0.002,0,-0.01,0,0,0,0,0,0,0,40.42,834.413,2066016
-0.0106201,-0.0169678,1.015320,0.0610352,-0.0610352,0,0.001,-0.01,0,0,0,0,0,0,0,40.42,834.433,2066031
-0.0112915,-0.0177612,1.01367-0.0610352,-0.244141,0,0,0,-0.01,0,0,0,0,0,0,0,40.42,834.454,2066061
-0.00793457,-0.0157471,1.01611-0.0610352,-0.0610352,0,0.003,0.002,-0.01,0,0,0,0,0,0,0,40.42,834.474,2066076
-0.0102539,-0.0172119,1.01611-0.12207,-0.12207,0,0.001,0,-0.01,0,0,0,0,0,0,0,40.42,834.494,2066091
-0.00939941,-0.0193481,1.01501-0.0610352,-0.0610352,0,0.002,-0.001,-0.01,0,0,0,0,0,0,0,40.42,834.513,2066106
-0.0136719,-0.0180054,1.01062-0.0610352,-0.0610352,0.0610352,-0.002,0,-0.01,0,0,0,0,0,0,0,40.42,834.533,2066136
-0.0105591,-0.0181274,1.01477-0.0610352,-0.183105,0.0610352,0,0,-0.01,0,0,0,0,0,0,0,40.42,834.552,2066151
-0.0090332,-0.0155029,1.01685-0.12207,-0.12207,0,0.002,0.002,-0.01,0,0,0,0,0,0,0,40.42,834.573,2066166
-0.013855,-0.0198975,1.01428-0.0610352,-0.12207,-0.0610352,-0.002,-0.001,-0.01,0,0,0,0,0,0,0,40.42,834.593,2066196
-0.0101318,-0.0171509,1.01343-0.0610352,-0.244141,0.0610352,0.001,0,-0.01,0,0,0,0,0,0,0,40.42,834.613,2066211
-0.0116577,-0.0199585,1.014280,0,0,0,-0.001,-0.01,0,0,0,0,0,0,0,40.42,834.633,2066226
-0.0117188,-0.0165405,1.012630,-0.183105,-0.0610352,0,0.001,-0.01,0,0,0,0,0,0,0,40.42,834.653,2066256
-0.0125122,-0.0189819,1.014710,0,-0.0610352,-0.001,0,-0.01,0,0,0,0,0,0,0,40.42,834.673,2066271
-0.00964355,-0.0196533,1.012760,0,0,0.001,-0.001,-0.01,0,0,0,0,0,0,0,40.42,834.693,2066301
-0.0100708,-0.0180054,1.01062-0.0610352,-0.0610352,0,0.001,0,-0.01,0,0,0,0,0,0,0,40.42,834.713,2066316
-0.00970459,-0.0161743,1.01483-0.0610352,-0.12207,0.0610352,0.001,0.001,-0.01,0,0,0,0,0,0,0,40.42,834.733,2066331
-0.0110474,-0.0165405,1.0166-0.12207,-0.183105,-0.12207,0,0.001,-0.01,0,0,0,0,0,0,0,40.42,834.753,2066361
-0.00775146,-0.0210571,1.01581-0.12207,-0.0610352,0.0610352,0.003,-0.002,-0.01,0,0,0,0,0,0,0,40.42,834.773,2066376
-0.0109863,-0.0184326,1.01282-0.0610352,-0.12207,0,0,0,-0.01,0,0,0,0,0,0,0,40.42,834.793,2066391
-0.0119629,-0.017395,1.01532-0.0610352,-0.12207,-0.0610352,0,0,-0.01,0,0,0,0,0,0,0,40.41,834.814,2066421
-0.012085,-0.019165,1.01355-0.0610352,-0.0610352,0.0610352,0,-0.001,-0.01,0,0,0,0,0,0,0,40.41,834.833,2066437
-0.0126343,-0.0177002,1.01556-0.0610352,-0.0610352,-0.0610352,-0.001,0,-0.01,0,0,0,0,0,0,0,40.41,834.853,2066451
-0.0127563,-0.0184937,1.01324-0.0610352,0,0,-0.001,0,-0.01,0,0,0,0,0,0,0,40.41,834.873,2066466
-0.012207,-0.0172729,1.010620,0.0610352,0.0610352,0,0,-0.02,0,0,0,0,0,0,0,40.41,834.893,2066497
-0.0108643,-0.0178223,1.01489-0.0610352,-0.12207,0,0,0,-0.02,0,0,0,0,0,0,0,40.41,834.913,2066511
-0.0109863,-0.0188599,1.0166-0.0610352,-0.0610352,0.0610352,0,0,-0.02,0,0,0,0,0,0,0,40.41,834.933,2066541
-0.00994873,-0.0157471,1.009950,0,0,0.001,0.002,-0.02,0,0,0,0,0,0,0,40.41,834.955,2066557
-0.0120239,-0.0141602,1.00763-0.0610352,-0.0610352,0.0610352,0,0.003,-0.02,0,0,0,0,0,0,0,40.41,834.973,2066571
-0.00976562,-0.015564,1.01807-0.0610352,-0.0610352,0.12207,0.001,0.002,-0.01,0,0,0,0,0,0,0,40.41,834.993,2066586
-0.00823975,-0.0153198,1.01099-0.0610352,-0.12207,0,0.003,0.002,-0.01,0,0,0,0,0,0,0,40.41,835.012,2066617
-0.00964355,-0.0172119,1.01434-0.12207,-0.12207,0,0.001,0,-0.01,0,0,0,0,0,0,0,40.41,835.033,2066631
-0.0067749,-0.0184937,1.014280,0,0.0610352,0.004,0,-0.01,0,0,0,0,0,0,0,40.41,835.052,2066646
-0.0105591,-0.0188599,1.013-0.0610352,-0.12207,0.0610352,0,0,-0.01,0,0,0,0,0,0,0,40.41,835.072,2066677
-0.00982666,-0.0187378,1.01099-0.0610352,-0.12207,-0.0610352,0.001,0,-0.01,0,0,0,0,0,0,0,40.41,835.093,2066691
-0.0115356,-0.0189209,1.01617-0.0610352,-0.0610352,0,0,0,-0.01,0,0,0,0,0,0,0,40.41,835.112,2066706
-0.00878906,-0.0192871,1.01160,0,0.0610352,0.002,-0.001,-0.01,0,0,0,0,0,0,0,40.41,835.133,2066737
-0.0158691,-0.0194702,1.01624-0.0610352,-0.12207,0.0610352,-0.004,-0.001,-0.01,0,0,0,0,0,0,0,40.41,835.152,2066751
-0.0115967,-0.0204468,1.01337-0.0610352,-0.0610352,0,0,-0.002,-0.01,0,0,0,0,0,0,0,40.41,835.172,2066766
-0.0128174,-0.0238647,1.018130,0,-0.0610352,-0.001,-0.005,-0.01,0,0,0,0,0,0,0,40.41,835.192,2066797
-0.0119629,-0.017334,1.01440,0,0,0,0,-0.01,0,0,0,0,0,0,0,40.41,835.212,2066811
-0.00982666,-0.0169678,1.01514-0.0610352,-0.12207,0,0.001,0.001,-0.01,0,0,0,0,0,0,0,40.41,835.232,2066826
-0.00927734,-0.0193481,1.01666-0.0610352,-0.12207,-0.0610352,0.002,-0.001,-0.01,0,0,0,0,0,0,0,40.41,835.252,2066857
-0.0106201,-0.0178833,1.012390,0,-0.0610352,0,0,-0.01,0,0,0,0,0,0,0,40.41,835.272,2066871
-0.0126953,-0.0192261,1.01599-0.0610352,-0.244141,-0.0610352,-0.001,0,-0.01,0,0,0,0,0,0,0,40.41,835.294,2066901
-0.00958252,-0.019104,1.01117-0.0610352,-0.0610352,-0.0610352,0.001,0,-0.01,0,0,0,0,0,0,0,40.41,835.313,2066917
-0.0115967,-0.017334,1.01508-0.12207,-0.0610352,0,0,0,-0.01,0,0,0,0,0,0,0,40.41,835.333,2066931
-0.0118408,-0.0180664,1.00995-0.0610352,-0.0610352,0.0610352,0,0,-0.01,0,0,0,0,0,0,0,40.41,835.353,2066947
-0.0123291,-0.0177612,1.013670,0,0.0610352,-0.001,0,-0.01,0,0,0,0,0,0,0,40.41,835.372,2066977
-0.010437,-0.015625,1.01416-0.244141,-0.12207,0.12207,0,0.002,-0.02,0,0,0,0,0,0,0,40.41,835.393,2066992
-0.00823975,-0.0184326,1.01721-0.0610352,-0.0610352,-0.12207,0.003,0,-0.02,0,0,0,0,0,0,0,40.41,835.413,2067007
-0.00939941,-0.019043,1.014710,0.0610352,-0.12207,0.001,0,-0.01,0,0,0,0,0,0,0,40.41,835.433,2067037
-0.0125732,-0.0187378,1.01611-0.183105,-0.12207,0,-0.001,0,-0.01,0,0,0,0,0,0,0,40.41,835.453,2067052
-0.0145874,0.0361328,0.9949340.732422,-0.183105,-0.183105,-0.003,0.053,-0.01,0,3.05176e-05,0,0,0,0,0,40.41,835.472,2067067
-0.0065918,-0.0162964,1.029245.31006,-0.12207,-1.40381,0.004,-0.001,0.04,0,0.000244141,0,0,0,0,0,40.41,835.494,2067097
-0.0223389,-0.0200806,0.9814453.84521,-0.427246,-1.46484,-0.011,-0.007,0.05,0,0.000244141,0,0,0,0,0,40.41,835.513,2067112
-0.00164795,0.0384521,1.033572.31934,-0.183105,-1.70898,0.009,0.05,0.12,0,0.000289917,0,0,0,0,0,40.41,835.534,2067142
-0.00384521,0.00799561,1.03512.99072,0.12207,-2.2583,0.007,0.018,0.15,0,0.000366211,0,0,0,0,0,40.41,835.553,2067157
-0.022583,-0.0324707,0.9785772.99072,0.12207,-2.0752,-0.011,-0.022,0.18,0,0.000457764,0,0,0,0,0,40.41,835.573,2067172
-0.00250244,0.100525,1.021914.39453,0,-0.854492,0.009,0.109,0.2,0,0.000595093,0,0,0,0,0,40.41,835.592,2067187
-0.0168457,-0.0640869,1.0173311.5967,-0.854492,0.183105,-0.005,-0.061,0.22,0,0.00114441,0,0,0,0,0,40.41,835.612,2067217
0.0222778,0.165466,1.069959.39941,-0.0610352,0.549316,0.034,0.164,0.22,1.52588e-05,0.00151062,0,0,0,0,0,40.41,835.635,2067232
-0.0454712,-0.086731,1.018255.06592,0.12207,0.305176,-0.034,-0.088,0.21,3.05176e-05,0.00190735,0,0,0,0,0,40.41,835.653,2067247
-0.0108032,0.0916748,1.01709-1.95312,0.427246,0.366211,0,0.089,0.19,3.05176e-05,0.00276184,0,0,0,0,0,40.41,835.673,2067277
0.000183105,0.00476074,1.0224-4.08936,0.12207,-0.732422,0.011,0.002,0.2,3.05176e-05,0.00328064,0,0,0,0,0,40.41,835.692,2067292
-0.0170898,0.0829468,1.02356-3.96728,-0.244141,-1.15967,-0.005,0.081,0.21,3.05176e-05,0.00387573,0,0,0,0,0,40.41,835.713,2067307
-0.0308838,0.0579224,1.034246.89697,0.244141,0.183105,-0.019,0.051,0.24,9.15527e-05,0.00656128,0,0,0,0,0,40.41,835.75,2067352
-0.0297852,-0.0135498,0.979187-1.52588,0.427246,0.0610352,-0.019,-0.021,0.24,0.000137329,0.00856018,0,0,0,0,0,40.41,835.775,2067382
-0.00634766,0.0117798,0.996887-6.10352,0.488281,-0.854492,0.004,0.005,0.25,0.000137329,0.00953674,0,0,0,0,0,40.41,835.793,2067397
-0.031311,0.0142822,1.07788-7.38525,0.366211,-1.83105,-0.019,0.01,0.29,9.15527e-05,0.0115356,0,0,0,0,0,40.41,835.82,2067427
0.00848389,0.0441895,1.03552-5.31006,-0.183105,-0.671387,0.02,0.042,0.31,4.57764e-05,0.0125732,0,0,0,0,0,40.42,835.835,2067442
-0.0289917,-0.00390625,0.975647-4.45557,-0.427246,0.488281,-0.018,-0.005,0.31,0,0.0136414,0,0,0,0,0,40.42,835.853,2067457
-0.0196533,0.0448608,1.04877-2.92969,-0.183105,1.46484,-0.007,0.044,0.29,-3.05176e-05,0.01474,0,0,0,0,0,40.42,835.874,2067472
-0.0178223,-0.00604248,0.979736-4.57764,-0.305176,2.13623,-0.006,-0.004,0.24,-9.15527e-05,0.0168762,0,0,0,0,0,40.42,835.894,2067502
-0.00268555,-0.0189209,1.0108-6.28662,0.549316,2.62451,0.008,-0.015,0.2,-0.000106812,0.0168762,0,0,0,0,0,40.42,835.913,2067517
-0.0158081,-0.0148926,1.05054-6.95801,0.305176,2.13623,-0.003,-0.009,0.16,-0.000106812,0.0168762,0,0,0,0,0,40.42,835.934,2067532
-0.0186157,-0.00842285,1.0177-8.05664,0,1.28174,-0.007,0,0.14,-0.000106812,0.0168762,0,0,0,0,0,40.42,835.953,2067547
0.0321045,0.103149,1.0528-4.02832,-1.34277,-2.31934,0.045,0.115,0.15,-0.000152588,0.0170746,0,0,0,0,0,40.42,835.973,2067577
0.0043335,-0.110046,1.07513-4.02832,-0.244141,-0.671387,0.016,-0.097,0.17,-0.00012207,0.0172424,0,0,0,0,0,40.42,835.993,2067592
-0.0570679,-0.0098877,0.8717040.427246,-0.671387,-0.244141,-0.046,0.001,0.17,-0.00012207,0.0173492,0,0,0,0,0,40.42,836.013,2067607
-0.0153198,-0.0410767,0.95991.70898,-0.183105,-0.915527,-0.004,-0.03,0.19,-0.000106812,0.0175476,0,0,0,0,0,40.42,836.035,2067637
0.02948,-0.0200195,0.921692-0.732422,-2.50244,-0.610352,0.04,-0.008,0.2,-7.62939e-05,0.0176086,0,0,0,0,0,40.42,836.053,2067652
-0.0201416,0.00952148,1.0119-0.488281,-0.488281,-0.366211,-0.008,0.022,0.2,1.52588e-05,0.0177917,0,0,0,0,0,40.42,836.073,2067682
-0.00445557,-0.00170898,1.00995-0.0610352,-0.549316,0.366211,0.006,0.011,0.2,1.52588e-05,0.0179443,0,0,0,0,0,40.42,836.093,2067697
-0.0256958,-0.0773315,1.039860,1.09863,-0.0610352,-0.014,-0.062,0.2,1.52588e-05,0.0180511,0,0,0,0,0,40.42,836.113,2067712
-0.0305176,-0.0411377,1.00873-0.12207,0.732422,-0.732422,-0.019,-0.026,0.21,1.52588e-05,0.0180817,0,0,0,0,0,40.42,836.134,2067727
-0.0144653,0.0928955,1.013181.77002,0.244141,0.183105,-0.002,0.107,0.22,6.10352e-05,0.0182495,0,0,0,0,0,40.42,836.153,2067757
-0.019165,-0.0195312,1.049561.64795,0.244141,0.427246,-0.007,-0.005,0.21,9.15527e-05,0.0184479,0,0,0,0,0,40.42,836.173,2067772
-0.0120239,-0.0280151,1.008911.09863,0.854492,0.549316,0,-0.014,0.2,9.15527e-05,0.018631,0,0,0,0,0,40.42,836.193,2067787
-0.0101929,-0.0289917,1.02417-0.427246,0.0610352,0.671387,0.002,-0.015,0.18,9.15527e-05,0.018631,0,0,0,0,0,40.42,836.213,2067818
-0.0123291,0.0142822,1.039860,0.0610352,0.427246,0,0.027,0.18,9.15527e-05,0.0186462,0,0,0,0,0,40.42,836.234,2067832
-0.00860596,0.0377808,0.982361-1.46484,-1.34277,0.732422,0.003,0.05,0.17,9.15527e-05,0.0187073,0,0,0,0,0,40.42,836.253,2067847
-0.0662842,-0.0492554,1.011230.854492,0.854492,-0.854492,-0.054,-0.036,0.18,6.10352e-05,0.0191193,0,0,0,0,0,40.42,836.273,2067878
     0,0.00292969,1.053531.2207,0.427246,-1.28174,0.013,0.015,0.19,1.52588e-05,0.0193481,0,0,0,0,0,40.42,836.293,2067892
-0.0391235,-0.003479,1.039790.366211,-0.366211,-1.58691,-0.026,0.009,0.22,-3.05176e-05,0.0197449,0,0,0,0,0,40.42,836.313,2067922
-0.00866699,0.102905,0.914062-1.58691,-1.15967,-0.976562,0.002,0.113,0.25,-7.62939e-05,0.0200195,0,0,0,0,0,40.42,836.333,2067938
-0.043457,-0.102844,1.11859-0.854492,1.2207,-1.46484,-0.03,-0.089,0.28,-4.57764e-05,0.0207977,0,0,0,0,0,40.42,836.362,2067967
0.0143433,-0.0613403,0.989319-1.52588,-0.732422,-0.427246,0.025,-0.049,0.29,-1.52588e-05,0.0210876,0,0,0,0,0,40.42,836.377,2067982
0.00628662,-0.024353,0.9938350.366211,0,-0.183105,0.017,-0.012,0.3,1.52588e-05,0.0213165,0,0,0,0,0,40.42,836.392,2067998
-0.0361328,0.00506592,1.065671.64795,-0.244141,-0.0610352,-0.023,0.018,0.31,6.10352e-05,0.0213165,0,0,0,0,0,40.42,836.412,2068012
-0.0366821,-0.0438232,1.002561.2207,1.34277,-0.0610352,-0.024,-0.031,0.31,0,0.0209656,0,0,0,0,0,40.42,836.435,2068042
-0.0124512,-0.0454712,1.01666-0.12207,-0.183105,-0.244141,0,-0.033,0.32,-4.57764e-05,0.0206757,0,0,0,0,0,40.42,836.456,2068058
0.0135498,-0.0973511,1.06323-1.15967,-0.183105,0.244141,0.025,-0.084,0.31,-0.000106812,0.0202942,0,0,0,0,0,40.42,836.472,2068072
-0.079895,0.000976562,0.9659420.549316,0,0.915527,-0.068,0.013,0.3,-0.000183105,0.0198822,0,0,0,0,0,40.42,836.493,2068087
0.0150146,-0.0722046,1.025820.427246,0.305176,-0.0610352,0.027,-0.059,0.29,-0.000427246,0.0189514,0,0,0,0,0,40.42,836.513,2068118
-0.0299683,-0.111511,1.034480.183105,0.305176,0.366211,-0.017,-0.098,0.28,-0.000518799,0.0183411,0,0,0,0,0,40.42,836.533,2068132
0.0222168,0.0212402,1.066890.366211,-0.488281,1.89209,0.035,0.034,0.24,-0.000701904,0.016983,0,0,0,0,0,40.42,836.555,2068162
0.00378418,0.0774536,0.883789-1.09863,-0.915527,1.89209,0.014,0.087,0.21,-0.000747681,0.0163879,0,0,0,0,0,40.42,836.572,2068178
-0.026123,0.0144043,0.9733282.0752,0.12207,1.15967,-0.014,0.026,0.2,-0.000793457,0.0158691,0,0,0,0,0,40.42,836.593,2068192
-0.0130615,-0.0501099,1.10254-1.77002,1.28174,1.34277,0,-0.036,0.18,-0.000793457,0.0153503,0,0,0,0,0,40.42,836.612,2068207
-0.0650024,0.122986,0.9517210.854492,-1.0376,-0.0610352,-0.052,0.135,0.15,-0.000747681,0.01474,0,0,0,0,0,40.42,836.633,2068238
-0.0559082,-0.0750732,1.071170.488281,0.366211,-0.305176,-0.042,-0.061,0.15,-0.000808716,0.0146027,0,0,0,0,0,40.42,836.653,2068252
-0.0111694,-0.0932007,1.07367-0.976562,0.427246,-1.83105,0.002,-0.079,0.16,-0.00088501,0.0143585,0,0,0,0,0,40.42,836.673,2068267
0.0470581,-0.0405884,1.01801-0.915527,-0.671387,-1.46484,0.059,-0.028,0.21,-0.000991821,0.0138092,0,0,0,0,0,40.42,836.692,2068298
0.0495605,0.0282593,1.00397-1.58691,-1.52588,-0.488281,0.062,0.04,0.23,-0.000930786,0.0135498,0,0,0,0,0,40.42,836.714,2068312
-0.0244751,-0.00482178,0.9461670.0610352,-1.28174,0.305176,-0.012,0.006,0.23,-0.000839233,0.0133209,0,0,0,0,0,40.42,836.735,2068327
-0.0189819,-0.034729,1.01691-0.671387,0.854492,0.671387,-0.006,-0.022,0.22,-0.000839233,0.0129395,0,0,0,0,0,40.42,836.758,2068358
-0.0325317,-0.000671387,1.03870,0.610352,0.549316,-0.019,0.012,0.21,-0.000839233,0.0127411,0,0,0,0,0,40.42,836.773,2068373
-0.0307617,-0.108276,1.0755-0.12207,1.2207,0.610352,-0.017,-0.094,0.2,-0.000839233,0.0124969,0,0,0,0,0,40.42,836.793,2068388
-0.0195923,0.0378418,0.997864-0.244141,-0.366211,0.732422,-0.006,0.051,0.17,-0.000839233,0.0119324,0,0,0,0,0,40.42,836.813,2068418
-0.0240479,0.0186157,1.004460.366211,0.732422,-0.183105,-0.01,0.031,0.16,-0.000839233,0.011734,0,0,0,0,0,40.42,836.834,2068433
-0.0221558,0.0244141,1.012152.74658,0.183105,-0.244141,-0.008,0.036,0.17,-0.000839233,0.0115814,0,0,0,0,0,40.42,836.853,2068448
-0.0234375,0.000793457,0.997621.15967,-1.2207,-0.12207,-0.01,0.011,0.16,-0.000808716,0.0112762,0,0,0,0,0,40.43,836.873,2068478
-0.0126953,0.124207,1.02244.63867,0.12207,-0.976562,0.001,0.133,0.18,-0.000793457,0.0112,0,0,0,0,0,40.43,836.893,2068493
0.00805664,-0.0150146,0.994086.83594,0.427246,0,0.021,-0.008,0.18,-0.000762939,0.0112305,0,0,0,0,0,40.43,836.914,2068508
-0.0304565,-0.0244751,1.051035.85937,-0.12207,-0.183105,-0.017,-0.021,0.17,-0.000595093,0.0112457,0,0,0,0,0,40.43,836.935,2068538
-0.0206909,-0.0578003,0.9898684.15039,0.671387,0.244141,-0.008,-0.055,0.18,-0.000595093,0.0112,0,0,0,0,0,40.43,836.953,2068553
0.0412598,-0.0487671,0.9756471.52588,0.488281,1.52588,0.053,-0.046,0.16,-0.000549316,0.0110779,0,0,0,0,0,40.43,836.973,2068568
-0.0823975,-0.0231934,1.05670.366211,0.610352,-1.64795,-0.068,-0.021,0.16,-0.000457764,0.0108032,0,0,0,0,0,40.43,836.993,2068598
-0.0133667,0.0275269,0.9699710.976562,0.0610352,0,0,0.028,0.17,-0.000488281,0.0106812,0,0,0,0,0,40.43,837.013,2068613
-0.0162354,-0.0346069,0.978210.488281,-0.183105,-1.64795,-0.003,-0.033,0.18,-0.00050354,0.0105438,0,0,0,0,0,40.43,837.033,2068628
-0.0560303,0.00939941,1.054442.31934,-1.0376,-1.09863,-0.041,0.009,0.23,-0.000549316,0.0103455,0,0,0,0,0,40.43,837.053,2068658
-0.00805664,-0.00372314,0.9716192.56348,-0.427246,-0.610352,0.005,-0.004,0.25,-0.000610352,0.0103455,0,0,0,0,0,40.43,837.073,2068673
0.00720215,-0.00695801,0.9584351.89209,-0.366211,0.366211,0.02,-0.008,0.24,-0.000671387,0.0103455,0,0,0,0,0,40.43,837.093,2068688
-0.00671387,0.0256348,1.045780.488281,0.12207,2.74658,0.007,0.024,0.17,-0.000762939,0.0102692,0,0,0,0,0,40.43,837.113,2068718
0.0148926,0.00323486,0.9769290,1.15967,2.62451,0.027,0.001,0.13,-0.000793457,0.0102539,0,0,0,0,0,40.43,837.134,2068733
0.0043335,0.00567627,1.02136-0.610352,1.2207,2.74658,0.017,0.004,0.09,-0.000793457,0.0102539,0,0,0,0,0,40.43,837.153,2068748
-0.0359497,0.019043,1.023860.549316,1.09863,1.2207,-0.022,0.017,0.03,-0.000778198,0.0102539,0,0,0,0,0,40.43,837.173,2068778
-0.0527954,-0.0106201,0.9731450.488281,1.28174,0.244141,-0.039,-0.012,0.02,-0.000808716,0.0102539,0,0,0,0,0,40.43,837.193,2068793
0.0158691,0.0162964,0.9918820.12207,0.244141,0.183105,0.03,0.014,0.02,-0.000839233,0.0102539,0,0,0,0,0,40.43,837.213,2068808
-0.0809326,0.00836182,1.02344-0.244141,-0.12207,-1.40381,-0.065,0.006,0.04,-0.000976562,0.0102539,0,0,0,0,0,40.43,837.235,2068838
-0.0127563,-0.00231934,0.964844-1.34277,-0.427246,-1.34277,0.001,-0.004,0.07,-0.00111389,0.0102539,0,0,0,0,0,40.43,837.254,2068853
-0.0240479,0.0299072,1.05896-0.976562,-1.0376,-0.549316,-0.008,0.028,0.09,-0.00132751,0.0102844,0,0,0,0,0,40.43,837.275,2068883
-0.0217896,0.0248413,1.01831-0.671387,-0.671387,-0.793457,-0.007,0.023,0.1,-0.00143433,0.0103455,0,0,0,0,0,40.43,837.297,2068898
0.00518799,-0.00646973,0.959534-0.976562,0.305176,0,0.018,-0.007,0.11,-0.00143433,0.0104065,0,0,0,0,0,40.43,837.313,2068913
0.0321655,0.0220337,1.02063-1.15967,-0.0610352,1.46484,0.046,0.021,0.09,-0.00138855,0.0104828,0,0,0,0,0,40.43,837.333,2068928
-0.0108032,-0.00628662,1.00934-1.89209,0.915527,0.671387,0.003,-0.006,0.08,-0.00131226,0.0106201,0,0,0,0,0,40.43,837.353,2068958
0.0264282,0.0554199,0.967651-1.95312,0.549316,1.15967,0.04,0.055,0.06,-0.00125122,0.0106964,0,0,0,0,0,40.44,837.375,2068973
-0.0148315,0.132324,1.053282.74658,0.854492,-0.671387,0,0.131,0.07,-0.00115967,0.01091,0,0,0,0,0,40.44,837.393,2068988
0.000305176,0.0239258,0.9631967.32422,0.244141,-1.70898,0.015,0.018,0.09,-0.00108337,0.0112152,0,0,0,0,0,40.44,837.413,2069018
0.0132446,0.0185547,1.039374.88281,0.488281,-0.854492,0.028,0.011,0.1,-0.00102234,0.0112152,0,0,0,0,0,40.44,837.433,2069033
-0.071228,-0.0336304,1.005551.58691,0.0610352,-2.80762,-0.056,-0.04,0.14,-0.000991821,0.0112,0,0,0,0,0,40.44,837.453,2069048
0.0454102,0.0490723,0.992798-3.54004,-0.305176,-0.12207,0.06,0.042,0.13,-0.000976562,0.0112305,0,0,0,0,0,40.44,837.473,2069078
-0.0558472,-0.0186157,1.03418-3.479,0.427246,1.46484,-0.039,-0.024,0.12,-0.000946045,0.0112762,0,0,0,0,0,40.44,837.493,2069093
0.00994873,0.0550537,0.997192-3.66211,-0.244141,2.0752,0.025,0.05,0.09,-0.000930786,0.0113525,0,0,0,0,0,40.44,837.512,2069108
-0.0372314,0.0167847,1.0014-1.34277,-0.0610352,1.34277,-0.021,0.012,0.03,-0.000732422,0.011673,0,0,0,0,0,40.44,837.533,2069138
-0.0564575,0.022583,1.01575-0.549316,0.549316,0.915527,-0.039,0.018,0.02,-0.000671387,0.011673,0,0,0,0,0,40.44,837.554,2069153
0.0488892,0.0282593,1.00677-0.183105,0.0610352,0.610352,0.064,0.023,0.01,-0.000579834,0.0117035,0,0,0,0,0,40.44,837.573,2069168
-0.0600586,-0.0206299,1.00433-2.50244,0.305176,-0.12207,-0.042,-0.024,0.01,-0.000518799,0.0117188,0,0,0,0,0,40.44,837.592,2069198
0.0806885,0.00518799,1.00409-2.86865,-0.915527,0.610352,0.097,0.002,0,-0.000488281,0.0117035,0,0,0,0,0,40.44,837.612,2069213
-0.0829468,0.00299072,1.00677-4.02832,0.183105,-0.610352,-0.065,0.002,0.03,-0.00050354,0.011673,0,0,0,0,0,40.44,837.635,2069243
0.114319,0.0161743,1.04993-3.96728,-0.427246,0.610352,0.131,0.016,0.02,-0.000518799,0.011673,0,0,0,0,0,40.44,837.653,2069259
-0.0714111,0.00634766,1.04242-2.92969,1.09863,-1.0376,-0.054,0.007,0.02,-0.000473022,0.011673,0,0,0,0,0,40.44,837.672,2069273
-0.0720215,-0.0101929,0.980225-3.84521,0.366211,1.15967,-0.054,-0.008,0.01,-0.000518799,0.011673,0,0,0,0,0,40.44,837.693,2069288
-0.0805054,-0.0263672,1.05383-4.27246,1.95312,-0.427246,-0.063,-0.021,0,-0.000442505,0.011673,0,0,0,0,0,40.44,837.713,2069319
-0.0714111,0.000854492,0.980286-5.24902,-0.183105,0.183105,-0.053,0.006,0,-0.000473022,0.0116425,0,0,0,0,0,40.44,837.734,2069333
0.0932617,0.00665283,1.01849-5.43213,0.0610352,0.732422,0.11,0.013,-0.01,-0.000457764,0.0116425,0,0,0,0,0,40.44,837.752,2069348
-0.0674438,-0.02948,0.97522-6.46973,-0.488281,-0.427246,-0.049,-0.019,0.01,-0.000488281,0.0116425,0,0,0,0,0,40.44,837.773,2069379
0.0817871,0.012146,1.00439-6.71387,-0.549316,-0.732422,0.099,0.023,0.01,-0.000518799,0.0116425,0,0,0,0,0,40.44,837.793,2069393
-0.102844,-0.00689697,1.05688-6.5918,1.0376,-3.479,-0.084,0.006,0.05,-0.000549316,0.0116577,0,0,0,0,0,40.44,837.813,2069408
0.0436401,-0.0112305,1.05371-3.2959,-0.0610352,-1.0376,0.062,0.006,0.1,-0.000747681,0.0116119,0,0,0,0,0,40.44,837.833,2069439
-0.134521,-0.100952,1.01208-3.17383,2.2583,-2.13623,-0.116,-0.082,0.13,-0.00088501,0.0115204,0,0,0,0,0,40.44,837.852,2069453
0.0487061,-0.0365601,0.885071-1.0376,-2.0752,-0.610352,0.064,-0.019,0.15,-0.00105286,0.0113525,0,0,0,0,0,40.44,837.872,2069468
-0.1026,-0.124573,1.092290.305176,1.58691,0.854492,-0.083,-0.103,0.14,-0.00132751,0.0106812,0,0,0,0,0,40.41,837.893,2069499
0.0934448,-0.045166,1.00623-0.732422,-1.70898,0.183105,0.111,-0.025,0.14,-0.0014801,0.0101776,0,0,0,0,0,40.41,837.912,2069513
-0.0588989,-0.0213013,1.008852.0752,1.40381,-0.671387,-0.041,-0.001,0.15,-0.00158691,0.00965881,0,0,0,0,0,40.41,837.933,2069528
0.0238647,-0.0507202,0.962646-0.244141,-0.427246,1.46484,0.041,-0.03,0.14,-0.00193787,0.00854492,0,0,0,0,0,40.41,837.952,2069559
0.0286255,0.0146484,1.04034-2.68555,-0.427246,-0.12207,0.047,0.036,0.13,-0.00205994,0.00798035,0,0,0,0,0,40.41,837.972,2069573
-0.116638,-0.100952,0.97168-1.52588,-0.183105,0,-0.098,-0.079,0.13,-0.00221252,0.00738525,0,0,0,0,0,40.41,837.993,2069588
-0.0759277,-0.0440063,1.070921.15967,0.732422,0.305176,-0.056,-0.021,0.09,-0.00248718,0.00616455,0,0,0,0,0,40.41,838.013,2069619
-0.121338,-0.03302,0.9941412.0752,0.427246,0.183105,-0.102,-0.012,0.09,-0.00271606,0.00553894,0,0,0,0,0,40.41,838.033,2069633
0.100403,-0.0761108,1.03625-0.610352,-1.0376,2.13623,0.119,-0.054,0.07,-0.00292969,0.00486755,0,0,0,0,0,40.41,838.053,2069648
-0.128052,-0.0411377,1.01965-1.28174,0.793457,0.549316,-0.108,-0.019,0.06,-0.00328064,0.00341797,0,0,0,0,0,40.41,838.073,2069679
0.130798,0.0957031,1.000920.244141,-1.40381,1.15967,0.149,0.117,0.04,-0.00346375,0.00274658,0,0,0,0,0,40.41,838.094,2069693
-0.0339355,0.0748291,1.096190.732422,1.46484,-0.793457,-0.014,0.098,0.05,-0.0035553,0.00222778,0,0,0,0,0,40.41,838.112,2069708
0.0968628,-0.0863037,1.00732-0.183105,-1.2207,-0.610352,0.114,-0.065,0.06,-0.00349426,0.00123596,0,0,0,0,0,40.41,838.132,2069739
-0.125916,-0.0764771,1.106081.95312,3.05176,-1.70898,-0.106,-0.053,0.09,-0.00340271,0.00062561,0,0,0,0,0,40.41,838.153,2069753
-0.0563354,0.0375977,0.975952-0.183105,-0.610352,-2.0752,-0.037,0.058,0.12,-0.00343323,1.52588e-05,0,0,0,0,0,40.41,838.173,2069769
-0.151855,-0.0975342,1.06940.610352,1.0376,-3.41797,-0.133,-0.074,0.19,-0.00344849,-0.000778198,0,0,0,0,0,40.41,838.195,2069799
0.048584,0.0231934,0.9508060.671387,-1.34277,-0.610352,0.065,0.043,0.22,-0.00357056,-0.00144958,0,0,0,0,0,40.41,838.234,2069829
0.0658569,-0.0452881,1.00012-2.50244,-0.793457,0.915527,0.084,-0.023,0.22,-0.00360107,-0.00215149,0,0,0,0,0,40.41,838.253,2069859
-0.039978,-0.0722656,1.08875-1.52588,1.28174,0.0610352,-0.021,-0.047,0.19,-0.00326538,-0.00288391,0,0,0,0,0,40.41,838.285,2069889
0.00769043,-0.131348,1.01611-1.64795,0.610352,1.83105,0.026,-0.108,0.19,-0.00305176,-0.00335693,0,0,0,0,0,40.41,838.309,2069904
-0.0800781,-0.0435181,1.070740,0.549316,-1.0376,-0.06,-0.019,0.17,-0.00254822,-0.0039978,0,0,0,0,0,40.41,838.335,2069934
0.0189819,0.0206299,0.9748541.70898,-1.15967,0.610352,0.036,0.041,0.16,-0.00213623,-0.00483704,0,0,0,0,0,40.41,838.364,2069964
-0.142639,-0.0797119,1.082762.86865,0.793457,-1.83105,-0.122,-0.055,0.18,-0.00198364,-0.00531006,0,0,0,0,0,40.41,838.374,2069979
-0.0127563,-0.102661,1.102482.44141,0.305176,-0.427246,0.006,-0.079,0.19,-0.00189209,-0.00712585,0,0,0,0,0,40.44,838.415,2070009
0.0665894,0.0197144,0.969299-0.12207,-1.83105,0.12207,0.083,0.041,0.23,-0.00195312,-0.00918579,0,0,0,0,0,40.44,838.433,2070039
-0.0760498,-0.144714,1.08142-0.12207,0.610352,-0.793457,-0.058,-0.12,0.23,-0.00198364,-0.0102234,0,0,0,0,0,40.44,838.456,2070054
-0.0392456,-0.059082,1.07068-0.366211,0.793457,-1.34277,-0.02,-0.035,0.25,-0.00205994,-0.0113831,0,0,0,0,0,40.44,838.473,2070069
-0.0228882,-0.0136108,1.0050.732422,-0.366211,-1.40381,-0.006,0.008,0.25,-0.0019989,-0.0136566,0,0,0,0,0,40.44,838.494,2070099
-0.13855,0.175659,0.9072272.56348,0.732422,-2.0752,-0.121,0.195,0.29,-0.00201416,-0.0146332,0,0,0,0,0,40.44,838.514,2070114
0.00769043,-0.112305,1.017154.21143,0.732422,-0.488281,0.025,-0.09,0.29,-0.00210571,-0.0155334,0,0,0,0,0,40.44,838.533,2070129
0.0057373,0.036499,0.899719-3.05176,-1.70898,-0.305176,0.022,0.055,0.31,-0.00233459,-0.017807,0,0,0,0,0,40.44,838.553,2070159
0.057373,0.18988,0.870361-1.28174,-2.74658,-0.183105,0.074,0.208,0.31,-0.00239563,-0.0188141,0,0,0,0,0,40.44,838.573,2070174
-0.140076,0.16626,0.9248051.28174,-0.976562,-2.56348,-0.122,0.187,0.32,-0.00248718,-0.0195465,0,0,0,0,0,40.44,838.593,2070189
-0.0162354,0.0594482,0.9140620.0610352,-2.19727,-1.15967,0,0.079,0.35,-0.00257874,-0.0206146,0,0,0,0,0,40.44,838.613,2070219
-0.0311279,-0.071228,1.019170.793457,-1.28174,-2.86865,-0.013,-0.049,0.39,-0.00259399,-0.0210876,0,0,0,0,0,40.44,838.633,2070234
-0.015625,-0.266479,1.04011.52588,-0.305176,-1.52588,0.001,-0.244,0.41,-0.00259399,-0.021759,0,0,0,0,0,40.44,838.653,2070249
-0.086853,0.0189209,0.9983521.58691,0.793457,-2.44141,-0.069,0.039,0.46,-0.00256348,-0.0235748,0,0,0,0,0,40.44,838.673,2070279
0.0512695,-0.0993652,1.03607-0.0610352,-0.915527,-0.732422,0.068,-0.078,0.49,-0.00257874,-0.0245209,0,0,0,0,0,40.44,838.693,2070294
0.0726929,0.0602417,0.938843-3.23486,-1.58691,-0.488281,0.088,0.078,0.5,-0.00247192,-0.0254517,0,0,0,0,0,40.44,838.714,2070309
0.11731,0.196838,0.942261-1.52588,-2.0752,0.671387,0.135,0.215,0.51,-0.00218201,-0.0267487,0,0,0,0,0,40.44,838.734,2070339
-0.0115967,-0.154968,1.00641-2.0752,-0.976562,-0.183105,0.003,-0.133,0.5,-0.00193787,-0.0271912,0,0,0,0,0,40.44,838.754,2070354
0.0822754,-0.0749512,1.087890.793457,-0.366211,1.52588,0.1,-0.053,0.49,-0.00163269,-0.0283966,0,0,0,0,0,40.44,838.782,2070384
-0.0700073,-0.0779419,1.037171.15967,1.34277,-0.915527,-0.053,-0.056,0.49,-0.00146484,-0.0290833,0,0,0,0,0,40.44,838.792,2070399
-0.132446,0.0370483,0.9367681.2207,-0.366211,-0.915527,-0.115,0.057,0.51,-0.00141907,-0.0297852,0,0,0,0,0,40.44,838.812,2070414
0.0890503,0.123596,1.039920.0610352,-2.01416,0.12207,0.108,0.144,0.51,-0.00137329,-0.0303497,0,0,0,0,0,40.44,838.834,2070429
-0.128723,0.0488892,0.9546512.01416,0.610352,-2.68555,-0.112,0.069,0.53,-0.00132751,-0.0307617,0,0,0,0,0,40.44,838.852,2070444
-0.00286865,-0.0587158,0.992981-0.671387,-1.2207,-0.610352,0.012,-0.039,0.59,-0.00125122,-0.0315399,0,0,0,0,0,40.44,838.872,2070474
0.0478516,0.271301,0.9731451.95312,-1.64795,-3.54004,0.066,0.29,0.62,-0.00112915,-0.0317688,0,0,0,0,0,40.44,838.892,2070489
0.0620117,-0.128113,1.04181-1.2207,-0.732422,-0.671387,0.076,-0.108,0.67,-0.00062561,-0.0318604,0,0,0,0,0,40.42,838.914,2070519
-0.095459,0.0396118,0.97644-0.183105,1.28174,-0.732422,-0.079,0.06,0.68,-0.000335693,-0.0319824,0,0,0,0,0,40.42,838.933,2070534
0.0708008,-0.196411,1.0199-1.64795,-1.34277,0.732422,0.085,-0.177,0.68,-3.05176e-05,-0.0321808,0,0,0,0,0,40.42,838.952,2070549
-0.0140991,0.274475,0.900208-2.44141,-0.427246,0.549316,0.003,0.292,0.68,0.000564575,-0.0330505,0,0,0,0,0,40.42,838.972,2070579
0.0876465,0.254517,0.817322-1.83105,-4.3335,-0.0610352,0.104,0.27,0.68,0.000930786,-0.0330658,0,0,0,0,0,40.42,838.993,2070594
0.00518799,0.0228882,1.08087-0.488281,-0.915527,0.488281,0.022,0.044,0.67,0.00138855,-0.0328827,0,0,0,0,0,40.42,839.013,2070609
0.0817261,0.156921,0.9006960.732422,-2.2583,2.38037,0.098,0.173,0.63,0.00213623,-0.0325012,0,0,0,0,0,40.42,839.032,2070639
0.02948,0.258545,0.9719241.40381,-2.86865,0,0.047,0.277,0.62,0.00260925,-0.0319672,0,0,0,0,0,40.42,839.054,2070654
-0.118774,-0.0846558,1.00537-0.305176,-0.915527,-0.427246,-0.103,-0.064,0.62,0.00305176,-0.0312958,0,0,0,0,0,40.42,839.074,2070669
0.00280762,-0.0112305,1.11017-0.183105,0.244141,0.244141,0.019,0.009,0.59,0.0039978,-0.0298767,0,0,0,0,0,40.42,839.093,2070700
-0.0906372,0.0345459,0.982971-0.732422,-0.305176,0.671387,-0.074,0.054,0.58,0.00448608,-0.0290985,0,0,0,0,0,40.42,839.12,2070714
0.0805054,-0.0807495,1.037780.305176,-0.549316,1.89209,0.095,-0.061,0.55,0.00497437,-0.0283203,0,0,0,0,0,40.42,839.133,2070729
-0.114563,-0.0772095,0.9596560.12207,0.549316,-0.0610352,-0.099,-0.057,0.56,0.00608826,-0.0269165,0,0,0,0,0,40.42,839.155,2070760
0.126892,-0.0632935,1.02496-1.83105,-1.58691,-0.12207,0.141,-0.044,0.55,0.00663757,-0.0263214,0,0,0,0,0,40.42,839.172,2070774
-0.132874,0.0145874,0.97760.671387,1.40381,-2.38037,-0.118,0.035,0.57,0.00721741,-0.0257111,0,0,0,0,0,40.42,839.193,2070789
-0.0135498,-0.140015,1.061831.15967,0.732422,-1.40381,0.001,-0.119,0.61,0.00811768,-0.0245514,0,0,0,0,0,40.42,839.213,2070820
-0.0800781,0.062561,1.030211.15967,0.732422,-2.62451,-0.063,0.084,0.65,0.0085144,-0.0240326,0,0,0,0,0,40.42,839.233,2070834
0.0385132,-0.157959,1.08411-0.976562,-1.15967,-0.244141,0.054,-0.136,0.66,0.00889587,-0.0235443,0,0,0,0,0,40.42,839.253,2070849
-0.0837402,0.0904541,0.9033810.305176,0.183105,-0.305176,-0.069,0.109,0.68,0.00978088,-0.0228729,0,0,0,0,0,40.42,839.273,2070880
0.09729,0.245911,0.907776-0.12207,-2.68555,0.610352,0.114,0.263,0.68,0.0102386,-0.0222778,0,0,0,0,0,40.42,839.293,2070894
-0.00311279,0.160217,0.9235840.915527,-1.70898,-0.610352,0.012,0.179,0.66,0.010788,-0.0213776,0,0,0,0,0,40.42,839.314,2070909
0.0740967,-0.19751,1.07306-1.46484,1.89209,1.64795,0.088,-0.177,0.67,0.011734,-0.0200806,0,0,0,0,0,40.42,839.333,2070940
0.0604248,0.132263,0.886841-0.549316,-2.56348,-0.12207,0.075,0.149,0.67,0.0122986,-0.0196228,0,0,0,0,0,40.42,839.354,2070954
-0.219849,-0.264343,1.096131.77002,1.83105,-1.83105,-0.206,-0.239,0.69,0.0127869,-0.0192108,0,0,0,0,0,40.42,839.372,2070969
-0.048584,0.0968628,0.9520871.2207,-0.732422,-0.427246,-0.032,0.116,0.69,0.0135498,-0.0187836,0,0,0,0,0,40.42,839.392,2071000
-0.045105,-0.0895386,1.04401-0.0610352,-0.915527,-1.58691,-0.029,-0.067,0.71,0.0138855,-0.0185242,0,0,0,0,0,40.42,839.412,2071014
0.0516357,0.126038,0.963196-0.671387,-2.01416,0.488281,0.067,0.144,0.71,0.0142517,-0.0182037,0,0,0,0,0,40.42,839.433,2071029
-0.0170288,0.0500488,0.937317-1.52588,-2.13623,-0.976562,-0.001,0.069,0.74,0.0151978,-0.0170593,0,0,0,0,0,40.42,839.453,2071060
-0.013855,-0.0855713,1.064880.427246,-0.549316,-0.244141,0,-0.064,0.74,0.0151978,-0.0164185,0,0,0,0,0,40.42,839.473,2071074
-0.133179,-0.0786133,1.10483.41797,2.74658,-1.58691,-0.118,-0.054,0.76,0.0151215,-0.0158386,0,0,0,0,0,40.42,839.493,2071089
0.0253296,-0.140869,1.0686-0.366211,0.12207,-1.09863,0.038,-0.12,0.78,0.0150146,-0.0149078,0,0,0,0,0,40.42,839.514,2071120
-0.106018,-0.0575562,1.043951.0376,1.58691,-1.70898,-0.092,-0.035,0.8,0.0149689,-0.0145874,0,0,0,0,0,40.42,839.533,2071134
0.0923462,-0.0800171,0.972839-1.83105,-0.427246,0.366211,0.105,-0.062,0.81,0.0149231,-0.0143433,0,0,0,0,0,40.42,839.553,2071149
-0.0842285,0.0843506,0.919006-1.83105,-1.09863,-1.0376,-0.069,0.104,0.84,0.0150757,-0.0132904,0,0,0,0,0,40.42,839.577,2071180
0.139648,0.00323486,1.01581-2.38037,-1.58691,-0.0610352,0.154,0.022,0.84,0.015213,-0.012558,0,0,0,0,0,40.42,839.593,2071195
-0.0800781,-0.188049,1.12012-0.12207,1.34277,-1.2207,-0.067,-0.164,0.84,0.0153961,-0.0119171,0,0,0,0,0,40.42,839.613,2071210
0.0599976,-0.0219727,1.004520.671387,-1.28174,-0.732422,0.073,-0.002,0.88,0.0156097,-0.0108032,0,0,0,0,0,40.42,839.634,2071240
-0.131897,-0.0534058,1.057192.38037,0.549316,-3.05176,-0.118,-0.03,0.92,0.0157013,-0.0102539,0,0,0,0,0,40.42,839.653,2071255
-0.0639648,-0.0393677,0.9768070.732422,-0.854492,-1.58691,-0.05,-0.018,0.96,0.0156555,-0.00975037,0,0,0,0,0,40.42,839.673,2071270
0.0547485,0.199585,1.03918-0.549316,-1.58691,-2.74658,0.071,0.219,1.01,0.0156555,-0.00857544,0,0,0,0,0,40.42,839.693,2071300
0.0332642,-0.199402,0.995605-2.86865,-2.68555,-1.28174,0.043,-0.18,1.04,0.0157623,-0.00787354,0,0,0,0,0,40.42,839.713,2071315
0.0182495,-0.229858,1.13691.70898,1.2207,-0.671387,0.028,-0.208,1.05,0.0159302,-0.00743103,0,0,0,0,0,40.42,839.733,2071330
0.0759888,-0.00476074,1.125552.62451,1.0376,1.70898,0.09,0.015,1.07,0.0159607,-0.00743103,0,0,0,0,0,40.42,839.753,2071360
0.00421143,-0.158752,1.14575-0.305176,0.915527,0.0610352,0.014,-0.137,1.06,0.0160217,-0.00759888,0,0,0,0,0,40.42,839.774,2071375
-0.155151,-0.112061,1.015690.976562,2.44141,0.366211,-0.144,-0.09,1.07,0.015976,-0.00793457,0,0,0,0,0,40.42,839.793,2071390
0.0374756,0.138123,1.01172-1.46484,-0.610352,-0.793457,0.052,0.156,1.07,0.0158539,-0.0085144,0,0,0,0,0,40.42,839.813,2071420
-0.0779419,0.133667,0.912781-1.46484,-2.0752,-0.793457,-0.063,0.152,1.08,0.0158081,-0.0085144,0,0,0,0,0,40.42,839.835,2071435
0.0342407,-0.0475464,1.0899-0.427246,-1.58691,0.732422,0.046,-0.027,1.07,0.0157623,-0.00843811,0,0,0,0,0,40.42,839.853,2071450
-0.0861816,-0.108826,0.9906011.40381,-0.793457,-0.610352,-0.075,-0.088,1.1,0.0156555,-0.00798035,0,0,0,0,0,40.42,839.873,2071480
0.0401001,0.28418,0.9540413.78418,-1.89209,-0.549316,0.057,0.301,1.1,0.0155487,-0.0075531,0,0,0,0,0,40.42,839.893,2071495
-0.104431,-0.190857,1.189821.52588,0.854492,-1.77002,-0.093,-0.167,1.12,0.0154266,-0.00704956,0,0,0,0,0,40.42,839.913,2071510
0.121826,0.166809,0.9698490.732422,-2.80762,0.244141,0.135,0.182,1.12,0.0151825,-0.0065155,0,0,0,0,0,40.44,839.939,2071540
-0.215637,-0.219849,0.9966432.62451,2.74658,-1.58691,-0.209,-0.197,1.13,0.0150604,-0.00627136,0,0,0,0,0,40.44,839.953,2071555
0.0830078,0.00610352,1.046631.15967,-0.366211,0.549316,0.095,0.023,1.14,0.0148621,-0.00613403,0,0,0,0,0,40.44,839.973,2071570
-0.104187,-0.057251,0.9501950.0610352,1.70898,-0.366211,-0.094,-0.038,1.15,0.0145569,-0.00614929,0,0,0,0,0,40.44,839.993,2071600
0.0541382,0.0587769,0.9971310.366211,-0.488281,1.0376,0.066,0.075,1.14,0.0143585,-0.00621033,0,0,0,0,0,40.44,840.014,2071615
0.0205078,-0.0978394,1.174680.12207,1.40381,-0.244141,0.031,-0.077,1.14,0.0142365,-0.0062561,0,0,0,0,0,40.44,840.033,2071630
0.0561523,0.118835,0.9556270.366211,-1.70898,1.58691,0.069,0.134,1.13,0.0138092,-0.00657654,0,0,0,0,0,40.44,840.053,2071660
0.0327759,0.114014,1.01892-1.70898,-1.09863,-0.610352,0.046,0.131,1.13,0.0136566,-0.00654602,0,0,0,0,0,40.44,840.075,2071675
-0.0421753,0.131531,0.901123-1.77002,-3.05176,-0.12207,-0.029,0.148,1.14,0.013504,-0.00631714,0,0,0,0,0,40.44,840.093,2071690
-0.0551147,0.0285645,0.98761-1.28174,0.305176,-0.244141,-0.044,0.047,1.11,0.0132141,-0.00552368,0,0,0,0,0,40.44,840.113,2071720
0.0280762,0.148132,0.920837-0.183105,-2.92969,1.28174,0.041,0.164,1.1,0.0130615,-0.00494385,0,0,0,0,0,40.44,840.133,2071735
0.0306396,-0.0297852,1.06635-0.732422,-0.671387,0.854492,0.041,-0.011,1.07,0.01297,-0.00427246,0,0,0,0,0,40.44,840.154,2071750
0.0518799,-0.103088,1.08307-0.793457,-1.0376,1.34277,0.061,-0.084,1.05,0.0127106,-0.00317383,0,0,0,0,0,40.44,840.173,2071780
0.0117798,-0.086731,1.01709-0.915527,0.610352,-0.244141,0.02,-0.068,1.05,0.012619,-0.00279236,0,0,0,0,0,40.44,840.195,2071795
-0.117065,0.113281,0.91449-0.488281,-0.488281,-1.34277,-0.105,0.132,1.08,0.0124817,-0.00236511,0,0,0,0,0,40.44,840.213,2071810
0.0340576,0.27179,0.886047-2.62451,-3.66211,-3.23486,0.048,0.288,1.11,0.0124512,-0.000350952,0,0,0,0,0,40.44,840.232,2071840
0.012207,0.131287,0.895691-2.74658,-3.2959,-2.31934,0.024,0.148,1.14,0.012558,0.00115967,0,0,0,0,0,40.44,840.253,2071855
0.0651855,0.0559082,0.923218-1.95312,-2.86865,0.610352,0.075,0.071,1.12,0.0127411,0.00283813,0,0,0,0,0,40.44,840.272,2071870
-0.0111694,-0.101318,1.03003-0.427246,0.244141,0.366211,-0.002,-0.082,1.12,0.0131989,0.00613403,0,0,0,0,0,40.44,840.293,2071900
0.0405884,0.0112305,1.04419-0.915527,-0.183105,1.28174,0.051,0.029,1.1,0.0134583,0.00769043,0,0,0,0,0,40.44,840.313,2071915
-0.02771,0.124451,0.926514-0.366211,0.549316,-1.52588,-0.016,0.142,1.11,0.0137329,0.0093689,0,0,0,0,0,40.44,840.333,2071930
0.00811768,-0.201294,1.10565-0.854492,-0.366211,-0.305176,0.016,-0.18,1.12,0.0140228,0.0110168,0,0,0,0,0,40.44,840.353,2071945
-0.0366211,0.174438,0.897339-2.2583,0.305176,-2.0752,-0.023,0.191,1.14,0.0139923,0.0137634,0,0,0,0,0,40.44,840.372,2071975
0.0584106,0.17981,0.876709-0.732422,-2.74658,-0.976562,0.071,0.195,1.17,0.0140076,0.0153961,0,0,0,0,0,40.44,840.392,2071990
-0.195007,-0.355164,1.163092.44141,1.52588,-2.56348,-0.189,-0.329,1.21,0.0140839,0.0192261,0,0,0,0,0,40.44,840.414,2072020
0.012207,-0.259216,1.176031.52588,1.77002,1.09863,0.019,-0.238,1.22,0.0139618,0.0207367,0,0,0,0,0,40.47,840.432,2072035
-0.0020752,-0.0431519,0.9766850.0610352,-0.488281,-0.610352,0.007,-0.025,1.22,0.0139618,0.0220642,0,0,0,0,0,40.47,840.455,2072050
-0.0302124,-0.151611,1.06366-0.549316,1.28174,1.64795,-0.023,-0.131,1.22,0.0137939,0.0243988,0,0,0,0,0,40.47,840.473,2072081
0.0396118,0.147644,0.9377440.244141,-0.732422,-0.915527,0.051,0.164,1.22,0.0136871,0.0255127,0,0,0,0,0,40.47,840.492,2072095
0.0918579,0.10553,0.940979-1.77002,-1.58691,-0.793457,0.103,0.121,1.24,0.0137024,0.026825,0,0,0,0,0,40.47,840.512,2072110
-0.0633545,-0.0565186,1.02344-1.77002,1.28174,-1.34277,-0.054,-0.036,1.24,0.0138702,0.0295868,0,0,0,0,0,40.47,840.533,2072141
0.0852661,0.154968,0.947815-0.793457,-1.15967,0.793457,0.098,0.171,1.25,0.0139771,0.0310516,0,0,0,0,0,40.47,840.554,2072155
-0.0177002,0.0582275,0.991699-0.549316,-0.305176,-0.183105,-0.006,0.077,1.24,0.0141296,0.0326843,0,0,0,0,0,40.47,840.572,2072170
0.0854492,0.0853882,1.002080.549316,-0.671387,0.854492,0.097,0.103,1.22,0.0143738,0.0359955,0,0,0,0,0,40.47,840.593,2072201
-0.010498,-0.00561523,1.02142-0.0610352,-0.549316,-0.854492,0,0.014,1.22,0.0145721,0.037735,0,0,0,0,0,40.47,840.613,2072215
-0.0921631,-0.159302,1.006160.305176,-0.671387,-1.70898,-0.084,-0.137,1.24,0.0147095,0.0393982,0,0,0,0,0,40.47,840.632,2072230
-0.0922241,-0.136902,0.9776610.549316,-0.12207,-2.68555,-0.085,-0.116,1.27,0.0150146,0.042572,0,0,0,0,0,40.47,840.654,2072261
0.0648193,0.148743,0.94397-0.12207,-2.50244,-1.89209,0.078,0.165,1.3,0.0151672,0.0441742,0,0,0,0,0,40.47,840.673,2072275
-0.0511475,0.0397339,0.9638062.80762,-1.89209,-3.41797,-0.041,0.059,1.34,0.0153503,0.045929,0,0,0,0,0,40.47,840.693,2072290
0.0581055,-0.0807495,1.002440.12207,-0.427246,-1.52588,0.065,-0.063,1.4,0.0155334,0.0489807,0,0,0,0,0,40.47,840.713,2072321
0.0507202,0.151245,0.9959111.15967,-0.427246,-1.28174,0.063,0.168,1.42,0.0157013,0.0504761,0,0,0,0,0,40.47,840.733,2072335
-0.0986328,-0.224487,1.027770,1.15967,-0.671387,-0.095,-0.202,1.43,0.0158386,0.0519562,0,0,0,0,0,40.47,840.754,2072350
0.0925293,0.0925293,1.072880.12207,0.610352,0.305176,0.104,0.11,1.42,0.0162659,0.0544586,0,0,0,0,0,40.47,840.773,2072381
-0.180969,-0.139404,0.9384771.2207,1.89209,1.83105,-0.176,-0.117,1.41,0.0164948,0.0557098,0,0,0,0,0,40.47,840.793,2072395
-0.00183105,-0.0960693,1.098754.27246,0.915527,1.52588,0.005,-0.075,1.37,0.0166168,0.0568237,0,0,0,0,0,40.47,840.813,2072410
-0.0453491,-0.237915,1.165590.976562,2.99072,-0.0610352,-0.04,-0.216,1.37,0.0167084,0.0577393,0,0,0,0,0,40.47,840.833,2072425
-0.0355835,0.123108,0.962769-0.549316,-1.77002,0.549316,-0.023,0.141,1.36,0.0168457,0.0594788,0,0,0,0,0,40.47,840.861,2072455
-0.0494385,0.148621,0.8930661.09863,-1.58691,-2.44141,-0.037,0.166,1.38,0.0168762,0.0606232,0,0,0,0,0,40.47,840.873,2072470
0.027771,0.282471,0.839355-1.58691,-2.86865,-0.427246,0.042,0.296,1.4,0.0170898,0.0640259,0,0,0,0,0,40.47,840.912,2072515
0.027771,0.282471,0.839355-1.58691,-2.86865,-0.427246,0.042,0.296,1.4,0.0170898,0.0640259,0,0,0,0,0,40.47,840.921,2072515
0.0605469,-0.0483398,1.070250.0610352,-1.52588,0.732422,0.068,-0.03,1.39,0.0172882,0.0654144,0,0,0,0,0,40.47,840.934,2072530
-0.0275879,-0.0717773,1.0036-0.488281,0.732422,1.2207,-0.02,-0.053,1.36,0.0176849,0.0677948,0,0,0,0,0,40.45,840.953,2072561
0.0606689,-0.0985107,1.092350.732422,0.183105,0.854492,0.067,-0.08,1.35,0.0178833,0.0688171,0,0,0,0,0,40.45,840.973,2072575
-0.115723,-0.0964966,1.043331.2207,3.2959,0.366211,-0.109,-0.075,1.35,0.0180664,0.0697327,0,0,0,0,0,40.45,840.993,2072591
0.0316772,0.119202,1.000981.09863,0.427246,-0.488281,0.043,0.136,1.36,0.0182648,0.0714569,0,0,0,0,0,40.45,841.014,2072621
-0.0622559,0.0285034,0.9686890.12207,0.12207,-1.58691,-0.053,0.047,1.37,0.0183563,0.0724792,0,0,0,0,0,40.45,841.034,2072636
0.0147705,-0.0640259,1.04523-0.366211,-0.549316,-0.183105,0.022,-0.046,1.38,0.0184479,0.0735168,0,0,0,0,0,40.45,841.053,2072651
-0.0464478,0.0582275,0.930054-0.305176,-0.915527,-0.610352,-0.036,0.075,1.4,0.0186615,0.075531,0,0,0,0,0,40.45,841.073,2072681
0.0239868,0.0111694,0.988037-0.427246,-1.52588,1.15967,0.033,0.028,1.39,0.0187531,0.0766296,0,0,0,0,0,40.45,841.093,2072696
0.0828857,0.0154419,1.08984-1.70898,-0.854492,0.183105,0.092,0.032,1.38,0.0189514,0.0777893,0,0,0,0,0,40.45,841.113,2072711
0.0697632,0.086792,1.03322.31934,-0.427246,1.34277,0.08,0.103,1.36,0.0193634,0.0799255,0,0,0,0,0,40.45,841.133,2072741
-0.0703125,-0.0795898,1.046881.46484,2.0752,0.12207,-0.063,-0.059,1.36,0.0195923,0.0810089,0,0,0,0,0,40.45,841.154,2072756
0.0335693,0.0634155,0.9788820.549316,-0.427246,0.549316,0.043,0.08,1.35,0.0198212,0.0821075,0,0,0,0,0,40.45,841.173,2072771
-0.113586,-0.125244,1.09155-0.488281,1.34277,-1.34277,-0.107,-0.103,1.37,0.0203705,0.0843506,0,0,0,0,0,40.45,841.193,2072801
0.0261841,-0.111633,1.00317-1.58691,0.244141,0.366211,0.032,-0.094,1.37,0.0205841,0.0852966,0,0,0,0,0,40.45,841.213,2072816
0.0559692,0.281189,0.9714360.976562,-1.15967,-1.15967,0.07,0.297,1.38,0.0208588,0.08638,0,0,0,0,0,40.45,841.235,2072831
-0.105469,0.086853,0.912292-0.488281,-0.793457,-0.854492,-0.095,0.106,1.4,0.0211182,0.0877533,0,0,0,0,0,40.45,841.253,2072846
-0.0246582,-0.140991,1.07983-0.854492,1.46484,0.793457,-0.018,-0.121,1.36,0.0216217,0.0905457,0,0,0,0,0,40.45,841.273,2072876
-0.0479126,-0.0316162,0.9542850,0.12207,1.40381,-0.04,-0.012,1.35,0.0218353,0.0918121,0,0,0,0,0,40.45,841.293,2072891
0.105835,0.154541,0.930908-2.0752,-1.52588,2.50244,0.117,0.169,1.32,0.0220947,0.0931854,0,0,0,0,0,40.45,841.313,2072906
-0.0106201,-0.104187,1.05804-2.2583,-0.793457,0.183105,-0.003,-0.083,1.31,0.0228577,0.0965576,0,0,0,0,0,40.45,841.333,2072936
0.0426025,0.0341797,0.971741-1.77002,-0.610352,-0.12207,0.051,0.051,1.29,0.0232697,0.0982666,0,0,0,0,0,40.45,841.355,2072951
0.136353,0.0671997,0.915649-3.96728,-3.60107,-1.34277,0.146,0.081,1.35,0.0243378,0.102203,0,0,0,0,0,40.45,841.376,2072981
0.0974121,0.185791,0.954956-1.77002,-2.38037,-2.0752,0.11,0.201,1.37,0.025116,0.104462,0,0,0,0,0,40.45,841.393,2072996
-0.124451,0.0465698,0.91803-0.12207,-0.183105,-2.68555,-0.114,0.067,1.4,0.0258789,0.106903,0,0,0,0,0,40.45,841.413,2073011
-0.00128174,-0.190857,1.12305-0.793457,0.732422,-1.2207,0.004,-0.169,1.41,0.0273438,0.111969,0,0,0,0,0,40.45,841.433,2073041
0.0255127,0.0313721,1.00513-2.13623,-0.793457,-0.488281,0.035,0.05,1.43,0.0281067,0.114395,0,0,0,0,0,40.47,841.452,2073056
0.0249023,0.0328369,0.980164-0.427246,-0.732422,0.671387,0.033,0.051,1.42,0.0289307,0.116898,0,0,0,0,0,40.47,841.473,2073071
0.0307617,-0.0357056,0.918823-1.70898,-1.09863,1.46484,0.037,-0.018,1.4,0.0307617,0.12178,0,0,0,0,0,40.47,841.498,2073101
0.0294189,0.12085,0.9844360.488281,-0.732422,0.854492,0.04,0.139,1.38,0.0317841,0.124268,0,0,0,0,0,40.47,841.512,2073116
-0.115967,-0.169495,1.01764-0.244141,1.0376,0.0610352,-0.111,-0.146,1.38,0.0327301,0.126755,0,0,0,0,0,40.47,841.532,2073131
-0.124451,-0.15033,1.086981.34277,2.19727,-0.0610352,-0.118,-0.126,1.37,0.0346832,0.131638,0,0,0,0,0,40.47,841.553,2073161
-0.0675049,-0.27478,1.211791.09863,3.35693,0.305176,-0.062,-0.249,1.37,0.0355377,0.133804,0,0,0,0,0,40.47,841.575,2073176
-0.0221558,0.0293579,0.9777831.46484,1.52588,0.854492,-0.012,0.048,1.36,0.0363312,0.135849,0,0,0,0,0,40.47,841.593,2073191
-0.0641479,-0.171631,1.03687-0.305176,-0.549316,-1.15967,-0.058,-0.149,1.38,0.0379181,0.139984,0,0,0,0,0,40.47,841.616,2073221
0.003479,-0.0379639,1.0498-0.366211,-0.671387,-1.28174,0.012,-0.017,1.39,0.0386505,0.141907,0,0,0,0,0,40.47,841.634,2073236
-0.076355,0.0308228,0.950195-1.28174,-0.427246,-1.95312,-0.066,0.051,1.42,0.0393677,0.143845,0,0,0,0,0,40.47,841.652,2073251
0.0327759,-0.0661621,1.145320.488281,-1.34277,-2.13623,0.04,-0.044,1.46,0.0409088,0.148163,0,0,0,0,0,40.47,841.677,2073281
-0.142578,-0.217346,1.00238-1.58691,1.46484,-0.915527,-0.139,-0.194,1.48,0.0416565,0.150208,0,0,0,0,0,40.47,841.692,2073296
0.0899658,0.122437,0.9240723.05176,-1.46484,-0.427246,0.101,0.138,1.5,0.0423737,0.152206,0,0,0,0,0,40.47,841.715,2073311
-0.0568848,-0.138428,1.107061.70898,2.44141,-1.28174,-0.051,-0.115,1.51,0.0431366,0.154221,0,0,0,0,0,40.47,841.733,2073326
0.0141602,-0.221191,1.208311.64795,1.34277,0.12207,0.017,-0.198,1.51,0.0444641,0.157913,0,0,0,0,0,40.47,841.756,2073356
-0.012146,-0.0090332,1.01050.305176,2.01416,-0.366211,-0.004,0.01,1.52,0.0451202,0.159546,0,0,0,0,0,40.47,841.773,2073371
-0.0148926,-0.0245972,0.9485470.305176,-0.854492,1.64795,-0.007,-0.005,1.5,0.0451202,0.159546,0,0,0,0,0,40.47,841.792,2073386
-0.107239,-0.137268,0.941589-1.77002,0.244141,-1.2207,-0.102,-0.116,1.51,0.0451508,0.159683,0,0,0,0,0,40.47,841.813,2073416
0.0354004,0.101929,0.9595951.70898,-1.64795,0.793457,0.046,0.119,1.51,0.0451202,0.159744,0,0,0,0,0,40.47,841.834,2073431
-0.0518799,-0.189392,1.074160.12207,0.732422,-0.915527,-0.047,-0.168,1.51,0.0450745,0.159775,0,0,0,0,0,40.47,841.853,2073446
0.067627,-0.043396,1.096920.793457,-1.0376,0.793457,0.075,-0.024,1.52,0.0447845,0.159348,0,0,0,0,0,40.47,841.872,2073476
-0.0444946,-0.127808,1.05066-0.549316,0.427246,-0.0610352,-0.039,-0.107,1.52,0.0446625,0.158997,0,0,0,0,0,40.47,841.894,2073491
0.0535889,0.00305176,1.070310.915527,-0.427246,0.976562,0.061,0.021,1.5,0.0444336,0.158188,0,0,0,0,0,40.47,841.913,2073522
-0.0773315,-0.0219727,0.993164-0.305176,1.09863,0.427246,-0.07,-0.001,1.49,0.0443573,0.157806,0,0,0,0,0,40.47,841.933,2073536
0.0323486,-0.0604248,0.9959720.732422,-0.915527,1.40381,0.038,-0.042,1.47,0.0442505,0.157394,0,0,0,0,0,40.47,841.953,2073551
-0.118408,-0.0887451,1.059941.58691,2.74658,0.427246,-0.111,-0.066,1.46,0.0438843,0.156265,0,0,0,0,0,40.49,841.973,2073582
0.125427,0.0305786,1.06885-0.366211,-1.0376,1.0376,0.135,0.046,1.45,0.0436707,0.155624,0,0,0,0,0,40.49,841.994,2073596
-0.0264893,-0.144775,1.0686-1.2207,1.89209,-0.366211,-0.021,-0.125,1.45,0.0435181,0.154938,0,0,0,0,0,40.49,842.013,2073611
-0.0196533,0.0258789,0.9408570.366211,-1.28174,0.549316,-0.01,0.042,1.46,0.0433502,0.15419,0,0,0,0,0,40.49,842.033,2073626
-0.086731,-0.0875854,1.047850.976562,1.15967,-0.549316,-0.08,-0.067,1.46,0.0429535,0.152679,0,0,0,0,0,40.49,842.053,2073656
0.0209961,-0.0309448,0.982117-0.0610352,-1.52588,0.427246,0.028,-0.014,1.46,0.0426941,0.15184,0,0,0,0,0,40.49,842.073,2073671
0.0258789,-0.0297852,1.06622-0.183105,0,0.366211,0.033,-0.012,1.45,0.0424652,0.150986,0,0,0,0,0,40.49,842.094,2073686
0.131165,0.0565186,0.986267-2.86865,-2.0752,2.13623,0.14,0.07,1.43,0.0420074,0.149216,0,0,0,0,0,40.49,842.113,2073716
0.0298462,0.03479,1.00055-3.479,0.549316,0.854492,0.038,0.051,1.42,0.0419159,0.148422,0,0,0,0,0,40.49,842.133,2073731
-0.0802612,0.0726318,0.9505620.244141,0.610352,0.671387,-0.07,0.092,1.41,0.0418091,0.147736,0,0,0,0,0,40.49,842.153,2073746
-0.0826416,0.11377,0.9773560.671387,1.77002,-1.77002,-0.072,0.133,1.42,0.041626,0.146393,0,0,0,0,0,40.49,842.173,2073776
0.0344238,-0.0133057,0.925476-2.13623,-2.68555,-0.305176,0.042,0.002,1.43,0.0415192,0.145828,0,0,0,0,0,40.49,842.196,2073791
0.0325317,0.0829468,1.00494-0.305176,-1.15967,-0.610352,0.042,0.1,1.43,0.0414734,0.14534,0,0,0,0,0,40.49,842.213,2073806
0.0490112,0.0357666,1.022030.183105,-1.09863,1.52588,0.058,0.053,1.43,0.0413361,0.144547,0,0,0,0,0,40.49,842.233,2073836
0.0100708,-0.0841675,1.168030.610352,1.64795,0.610352,0.017,-0.063,1.42,0.0413055,0.14415,0,0,0,0,0,40.49,842.253,2073851
-0.107056,-0.105103,0.99408-0.427246,1.40381,1.2207,-0.101,-0.084,1.41,0.041214,0.143661,0,0,0,0,0,40.49,842.273,2073866
-0.00390625,0.0210571,1.02411-1.0376,1.2207,0.0610352,0.004,0.04,1.36,0.0410461,0.142761,0,0,0,0,0,40.49,842.293,2073896
0.0348511,0.0841675,0.920837-2.74658,-1.64795,0.549316,0.045,0.101,1.36,0.0410156,0.142456,0,0,0,0,0,40.49,842.313,2073911
0.0165405,0.0403442,1.01691-0.793457,-0.671387,-0.0610352,0.025,0.059,1.35,0.0410461,0.142273,0,0,0,0,0,40.49,842.333,2073926
0.0341187,-0.115417,1.02277-0.854492,-0.610352,-0.305176,0.04,-0.096,1.38,0.0409698,0.141815,0,0,0,0,0,40.49,842.353,2073956
-0.0274048,-0.0641479,1.044191.58691,0.793457,-1.15967,-0.02,-0.043,1.39,0.0409241,0.141464,0,0,0,0,0,40.49,842.374,2073971
0.0137939,-0.197266,1.1059-0.610352,-0.244141,0.305176,0.018,-0.176,1.42,0.0406799,0.140549,0,0,0,0,0,40.49,842.395,2074002
-0.0269165,-0.0309448,1.00244-0.732422,1.09863,-1.58691,-0.019,-0.01,1.44,0.0406799,0.139908,0,0,0,0,0,40.49,842.412,2074017
-0.0296021,-0.0377197,0.941345-3.11279,-1.34277,-1.58691,-0.022,-0.016,1.47,0.0406494,0.139252,0,0,0,0,0,40.49,842.433,2074032
0.048645,0.0806885,0.926331-2.50244,-1.40381,0.305176,0.058,0.101,1.47,0.0406494,0.138657,0,0,0,0,0,40.49,842.452,2074047
0.0546265,0.0125122,0.990479-0.244141,-0.915527,-0.732422,0.063,0.034,1.51,0.0406647,0.137527,0,0,0,0,0,40.49,842.473,2074077
0.00274658,-0.127136,0.9184570.183105,-0.793457,0.183105,0.006,-0.104,1.51,0.0407257,0.136932,0,0,0,0,0,40.49,842.498,2074092
-0.0541992,0.148499,1.066591.58691,0.0610352,-1.28174,-0.041,0.176,1.52,0.0407562,0.136368,0,0,0,0,0,40.49,842.514,2074107
0.104797,0.0697021,0.993469-0.305176,-1.09863,0.427246,0.114,0.09,1.53,0.0407562,0.13533,0,0,0,0,0,40.49,842.533,2074137
-0.0326538,0.122742,0.973999-0.732422,-1.15967,0.305176,-0.021,0.146,1.53,0.0408325,0.134964,0,0,0,0,0,40.49,842.555,2074152
0.0858765,-0.0020752,1.01514-1.46484,0.488281,2.44141,0.095,0.02,1.5,0.0409851,0.134216,0,0,0,0,0,40.49,842.587,2074182
-0.085083,0.0517578,0.9867551.95312,-0.488281,-0.488281,-0.074,0.077,1.45,0.0413055,0.133987,0,0,0,0,0,40.49,842.61,2074212
0.0223999,0.0930786,1.011840.732422,-1.34277,0.915527,0.033,0.115,1.43,0.0416107,0.133987,0,0,0,0,0,40.49,842.637,2074242
-0.0892334,-0.0124512,1.083370.366211,0.244141,-0.671387,-0.079,0.014,1.43,0.041748,0.134094,0,0,0,0,0,40.49,842.654,2074257
0.010498,0.000793457,0.9404910.0610352,-0.976562,-0.12207,0.019,0.021,1.44,0.0418549,0.134216,0,0,0,0,0,40.49,842.673,2074272
0.0557861,0.0153198,0.9748540.183105,-0.976562,0.549316,0.064,0.035,1.43,0.0420227,0.134369,0,0,0,0,0,40.49,842.693,2074287
-0.0670776,-0.0807495,0.990356-3.35693,0,-1.2207,-0.06,-0.056,1.45,0.0423126,0.134735,0,0,0,0,0,40.49,842.712,2074317
0.0846558,0.0407104,0.993164-3.78418,-0.854492,-0.610352,0.094,0.063,1.46,0.04245,0.134903,0,0,0,0,0,40.49,842.732,2074332
-0.0263672,-0.0238647,1.08618-3.60107,0.610352,-0.12207,-0.018,0.004,1.46,0.0426331,0.135117,0,0,0,0,0,40.49,842.753,2074347
0.00805664,-0.133484,0.9904171.89209,0.366211,-0.427246,0.013,-0.107,1.47,0.0428772,0.13504,0,0,0,0,0,40.49,842.778,2074377
0.0333862,-0.0702515,1.065921.09863,0.854492,0.12207,0.041,-0.042,1.47,0.0430298,0.134842,0,0,0,0,0,40.49,842.792,2074392
-0.0368042,-0.00109863,0.9956671.34277,-0.244141,0.12207,-0.027,0.026,1.47,0.0431824,0.134659,0,0,0,0,0,40.49,842.812,2074407
0.0108643,-0.0610962,0.9851070.610352,0,0.427246,0.018,-0.035,1.46,0.0433197,0.134308,0,0,0,0,0,40.49,842.84,2074437
0.0286865,-0.0234985,1.02649-0.244141,-1.15967,1.34277,0.037,0.002,1.45,0.0433502,0.134094,0,0,0,0,0,40.49,842.852,2074452
-0.0516968,-0.0115967,1.04144-0.610352,-0.244141,0.854492,-0.042,0.016,1.43,0.043396,0.133911,0,0,0,0,0,40.49,842.872,2074467
0.0205688,0.0308838,1.000730.183105,-0.12207,-0.610352,0.03,0.056,1.42,0.0433502,0.133957,0,0,0,0,0,40.49,842.893,2074497
-0.00164795,0.0307007,1.024050.671387,0.0610352,-1.64795,0.008,0.057,1.44,0.0433655,0.134079,0,0,0,0,0,40.49,842.912,2074512
0.0412598,0.0297241,1.017031.15967,-0.976562,-1.28174,0.051,0.054,1.46,0.0434113,0.134277,0,0,0,0,0,40.49,842.932,2074527
-0.0177002,0.0223389,1.005191.58691,-0.793457,-1.70898,-0.008,0.047,1.49,0.0436249,0.135025,0,0,0,0,0,40.49,842.953,2074557
-0.00488281,-0.000366211,0.9934080.244141,0.366211,-0.183105,0.003,0.023,1.5,0.0436249,0.135483,0,0,0,0,0,40.49,842.973,2074572
0.0389404,0.0166626,0.9979860.488281,-0.793457,-0.976562,0.048,0.039,1.51,0.0436554,0.135986,0,0,0,0,0,40.49,842.994,2074587
-0.03302,0.0150757,1.02820.427246,0.549316,0.915527,-0.023,0.039,1.51,0.0437317,0.137131,0,0,0,0,0,40.49,843.015,2074617
0.0126343,-0.0392456,0.966553-0.610352,0.610352,1.58691,0.02,-0.017,1.48,0.0437622,0.137726,0,0,0,0,0,40.49,843.033,2074632
-0.0256348,-0.130493,1.16168-0.12207,1.28174,2.19727,-0.018,-0.103,1.43,0.0437927,0.138794,0,0,0,0,0,40.49,843.057,2074662
-0.0352173,0.0134277,0.9872440,0.549316,1.95312,-0.026,0.036,1.39,0.0437622,0.139236,0,0,0,0,0,40.49,843.075,2074677
0.0239258,-0.147949,1.06586-4.21143,-0.0610352,-0.366211,0.03,-0.12,1.38,0.0437622,0.140015,0,0,0,0,0,40.49,843.103,2074707
-0.0180054,-0.0442505,1.00665-3.54004,-0.305176,0.427246,-0.01,-0.016,1.38,0.043808,0.140259,0,0,0,0,0,40.49,843.122,2074722
-0.0353394,0.0670166,0.9075320.793457,-1.09863,0.366211,-0.025,0.092,1.37,0.0438232,0.140549,0,0,0,0,0,40.49,843.133,2074737
0.00189209,-0.0952759,1.034063.17383,-0.244141,-0.12207,0.009,-0.067,1.37,0.0438385,0.140869,0,0,0,0,0,40.49,843.153,2074752
-0.0373535,-0.174011,1.064452.0752,0.549316,-1.09863,-0.031,-0.145,1.38,0.0438232,0.141022,0,0,0,0,0,40.49,843.173,2074767
0.0252075,-0.0197754,0.977783-0.732422,-1.0376,-0.549316,0.033,0.006,1.39,0.043808,0.141129,0,0,0,0,0,40.49,843.193,2074797
-0.0264282,-0.0517578,1.036010.549316,0.244141,0.427246,-0.018,-0.022,1.4,0.0438385,0.141174,0,0,0,0,0,40.49,843.214,2074812
0.00720215,-0.00012207,0.9755860.732422,-0.427246,1.28174,0.015,0.026,1.38,0.0438538,0.141205,0,0,0,0,0,40.49,843.233,2074827
0.00891113,0.0356445,1.026730.732422,0.183105,0.671387,0.019,0.062,1.35,0.0438538,0.141312,0,0,0,0,0,40.49,843.253,2074857
-0.00585938,-0.0153809,1.02380.976562,0.305176,0.305176,0.003,0.011,1.35,0.0438538,0.141434,0,0,0,0,0,40.49,843.273,2074872
-0.024292,-0.0253906,1.015441.0376,0.0610352,0.915527,-0.015,0,1.34,0.0438538,0.141785,0,0,0,0,0,40.49,843.293,2074903
-0.0144043,-0.0235596,1.048460.0610352,-0.0610352,1.34277,-0.005,0.002,1.32,0.0438538,0.141983,0,0,0,0,0,40.49,843.315,2074917
-0.0366821,0.0299683,1.001590.793457,-0.671387,0.732422,-0.026,0.054,1.3,0.0438385,0.142227,0,0,0,0,0,40.49,843.333,2074932
-0.0131836,0.00158691,0.9990840.671387,-0.12207,1.09863,-0.003,0.025,1.29,0.0437927,0.142517,0,0,0,0,0,40.49,843.354,2074963
-0.00915527,-0.0266724,1.02570.183105,-0.244141,-0.366211,0,-0.003,1.29,0.0437469,0.142822,0,0,0,0,0,40.49,843.373,2074977
0.0198975,-0.0101318,0.992065-0.671387,-0.610352,0.549316,0.028,0.011,1.29,0.0437622,0.142822,0,0,0,0,0,40.49,843.393,2074992
-0.0368042,-0.026001,1.03186-0.793457,-0.244141,0.793457,-0.028,-0.002,1.26,0.0438538,0.142929,0,0,0,0,0,40.49,843.416,2075023
0.0134277,0.00256348,1.00818-0.854492,0.183105,0.732422,0.022,0.024,1.25,0.0438995,0.143005,0,0,0,0,0,40.49,843.435,2075037
-0.00256348,-0.0534668,1.01715-2.01416,0.549316,0.12207,0.005,-0.03,1.24,0.0439453,0.143097,0,0,0,0,0,40.49,843.457,2075052
0.00396729,0.0248413,1.01599-1.58691,0.244141,0.12207,0.013,0.048,1.24,0.0439453,0.143173,0,0,0,0,0,40.49,843.474,2075067
-0.0319824,-0.0807495,1.064820,0.549316,0.610352,-0.023,-0.055,1.21,0.0440063,0.143753,0,0,0,0,0,40.48,843.509,2075112
-0.0106812,-0.0643311,1.06024-0.488281,0.854492,-0.12207,-0.001,-0.039,1.21,0.0440063,0.143875,0,0,0,0,0,40.48,843.532,2075127
0.00518799,-0.0431519,0.991699-1.34277,-0.610352,-1.58691,0.014,-0.018,1.23,0.0439911,0.143967,0,0,0,0,0,40.48,843.557,2075157
-0.0128784,-0.129822,1.04181-2.56348,-0.12207,-1.0376,-0.005,-0.102,1.25,0.0439911,0.14389,0,0,0,0,0,40.48,843.576,2075172
-0.027771,-0.0693359,0.998535-3.23486,-0.793457,0.183105,-0.019,-0.041,1.25,0.0439911,0.143707,0,0,0,0,0,40.48,843.593,2075187
-0.026001,-0.0709839,1.007081.64795,-0.12207,-0.183105,-0.017,-0.042,1.24,0.0439911,0.143326,0,0,0,0,0,40.48,843.613,2075217
-0.0057373,-0.074646,1.015321.89209,-0.732422,-0.427246,0.002,-0.046,1.25,0.0439911,0.143066,0,0,0,0,0,40.48,843.633,2075232
-0.0133057,-0.0372314,1.015932.38037,-0.305176,-1.15967,-0.004,-0.008,1.26,0.0439911,0.142776,0,0,0,0,0,40.48,843.653,2075247
0.00311279,-0.0834351,1.050660.793457,0.12207,-1.46484,0.011,-0.055,1.32,0.0439911,0.142105,0,0,0,0,0,40.48,843.679,2075277
-0.0043335,-0.0142822,1.00385-0.12207,0,-0.793457,0.004,0.012,1.33,0.0439911,0.141724,0,0,0,0,0,40.48,843.693,2075292
-0.00360107,-0.0139771,0.996765-0.305176,-0.244141,-0.0610352,0.005,0.013,1.34,0.0439911,0.141357,0,0,0,0,0,40.48,843.713,2075307
-0.00244141,0.0195312,1.003971.28174,-0.0610352,1.58691,0.007,0.046,1.31,0.0439911,0.140793,0,0,0,0,0,40.48,843.734,2075337
-0.0144043,-0.0299683,1.039731.09863,0.427246,2.19727,-0.005,-0.002,1.28,0.0439911,0.140579,0,0,0,0,0,40.48,843.753,2075352
-0.0175171,0.0114746,1.021422.0752,0.183105,2.80762,-0.007,0.037,1.24,0.0439911,0.140381,0,0,0,0,0,40.48,843.772,2075367
-0.0101318,0.0166626,1.01081.52588,-0.305176,1.95312,0,0.04,1.16,0.0439911,0.140076,0,0,0,0,0,40.48,843.793,2075398
-0.0203857,-0.0356445,1.004520.671387,-0.12207,0.793457,-0.011,-0.012,1.14,0.0439911,0.139954,0,0,0,0,0,40.48,843.812,2075413
-0.00219727,-0.0152588,1.01434-0.427246,-0.0610352,0.488281,0.007,0.007,1.14,0.0439911,0.139816,0,0,0,0,0,40.48,843.833,2075428
-0.00128174,-0.0179443,1.01703-1.95312,0.183105,0.12207,0.008,0.005,1.15,0.0439911,0.139816,0,0,0,0,0,40.48,843.852,2075458
0.0117188,0.00952148,1.03113-1.89209,0.0610352,1.2207,0.021,0.033,1.13,0.0440063,0.139847,0,0,0,0,0,40.48,843.872,2075473
-0.000549316,-0.0178223,1.02087-1.52588,0.427246,0.549316,0.008,0.006,1.12,0.0440521,0.139908,0,0,0,0,0,40.48,843.892,2075488
-0.00518799,-0.0281372,1.04822-0.854492,0.366211,2.38037,0.004,-0.002,1.06,0.0440979,0.139969,0,0,0,0,0,40.48,843.913,2075518
-0.0258789,-0.03302,1.00928-0.427246,0.366211,2.2583,-0.016,-0.008,1.02,0.0440979,0.139969,0,0,0,0,0,40.48,843.932,2075533
-0.00384521,-0.0561523,1.01929-0.793457,0,2.38037,0.005,-0.031,0.99,0.0440979,0.139938,0,0,0,0,0,40.48,843.953,2075548
0.00164795,-0.012207,0.978821-0.671387,-0.305176,-0.427246,0.011,0.011,0.97,0.0440979,0.139908,0,0,0,0,0,40.48,843.972,2075578
-0.0187378,-0.0342407,1.02637-0.12207,0.488281,-1.89209,-0.008,-0.008,1,0.0440979,0.139908,0,0,0,0,0,40.48,843.993,2075593
-0.0187988,-0.0244141,1.01746-0.12207,0.12207,-1.64795,-0.008,0.001,1.02,0.0440979,0.139908,0,0,0,0,0,40.47,844.013,2075608
-0.0241089,-0.00695801,1.013430.244141,0.183105,0.366211,-0.013,0.018,1.04,0.0440979,0.139908,0,0,0,0,0,40.47,844.033,2075638
-0.00390625,-0.00964355,1.018920.366211,-0.366211,1.28174,0.006,0.015,1.02,0.0440979,0.139908,0,0,0,0,0,40.47,844.058,2075653
-0.0163574,-0.0357056,0.9991460.12207,0.0610352,1.28174,-0.006,-0.01,1,0.0440979,0.139908,0,0,0,0,0,40.47,844.073,2075668
-0.000976562,-0.0345459,1.05273-0.854492,0.12207,-0.0610352,0.009,-0.008,0.98,0.0440979,0.139908,0,0,0,0,0,40.47,844.093,2075698
-0.0272827,-0.0361938,0.998535-2.13623,0.0610352,-1.09863,-0.017,-0.009,0.99,0.0440979,0.139908,0,0,0,0,0,40.47,844.112,2075713
-0.00946045,-0.0393066,0.979431-2.44141,-0.366211,-2.01416,0,-0.012,1.01,0.0440979,0.139908,0,0,0,0,0,40.47,844.136,2075728
-0.0286255,-0.220032,1.02386-1.77002,-0.366211,-2.0752,-0.021,-0.19,1.07,0.0440826,0.139816,0,0,0,0,0,40.47,844.153,2075758
-0.00286865,-0.113342,0.980103-3.90625,-0.427246,0,0.005,-0.082,1.08,0.0440674,0.139526,0,0,0,0,0,40.47,844.175,2075773
-0.000671387,-0.0235596,0.962585-1.2207,-0.976562,0.854492,0.009,0.007,1.07,0.0440674,0.139175,0,0,0,0,0,40.47,844.193,2075788
-0.0146484,-0.141785,1.004584.02832,0.0610352,0,-0.006,-0.11,1.05,0.0440674,0.138397,0,0,0,0,0,40.47,844.213,2075818
-0.00299072,-0.0619507,1.016853.35693,0.12207,-0.610352,0.006,-0.03,1.06,0.0440674,0.137878,0,0,0,0,0,40.47,844.237,2075833
-0.00158691,-0.0515137,1.052122.68555,0.244141,-1.46484,0.008,-0.02,1.08,0.0440674,0.136856,0,0,0,0,0,40.47,844.254,2075863
0.000488281,0.0106201,1.004582.68555,-0.0610352,-1.2207,0.011,0.039,1.11,0.0440674,0.136368,0,0,0,0,0,40.47,844.274,2075878
-0.0176392,0.00701904,0.9862673.05176,-0.12207,-0.732422,-0.007,0.034,1.12,0.0440674,0.135925,0,0,0,0,0,40.47,844.293,2075893
-0.0201416,0.0126343,1.019353.54004,0.183105,0,-0.009,0.039,1.13,0.0440674,0.135529,0,0,0,0,0,40.47,844.313,2075908
-0.0165405,-0.0126953,1.004333.84521,-0.244141,0.793457,-0.005,0.01,1.12,0.0440674,0.134872,0,0,0,0,0,40.47,844.333,2075938
-0.0146484,-0.00360107,1.008853.72314,-0.244141,0.366211,-0.003,0.018,1.11,0.0440674,0.134872,0,0,0,0,0,40.47,844.353,2075953
-0.0164185,-0.013855,1.027282.80762,-0.305176,-0.12207,-0.005,0.007,1.11,0.0440674,0.134872,0,0,0,0,0,40.47,844.373,2075968
-0.00732422,-0.0142822,1.005681.95312,-0.305176,-0.549316,0.002,0.005,1.12,0.0440674,0.134918,0,0,0,0,0,40.47,844.394,2075998
-0.00012207,0.0098877,1.02022.13623,-0.244141,-0.610352,0.01,0.028,1.13,0.0440674,0.134979,0,0,0,0,0,40.47,844.413,2076013
-0.00354004,-0.00512695,1.020942.13623,-0.183105,-0.427246,0.006,0.013,1.13,0.0440674,0.135071,0,0,0,0,0,40.47,844.433,2076028
-0.00793457,-0.00561523,1.017762.01416,0.244141,-0.427246,0.002,0.011,1.15,0.0440674,0.135193,0,0,0,0,0,40.47,844.453,2076058
-0.00854492,-0.00598145,1.019841.52588,0.12207,-0.549316,0.001,0.01,1.15,0.0440674,0.135193,0,0,0,0,0,40.47,844.473,2076073
-0.0111084,-0.00378418,1.010191.46484,0.0610352,-0.915527,0,0.011,1.17,0.0440674,0.135193,0,0,0,0,0,40.47,844.493,2076088
-0.0137939,0.000549316,1.014651.0376,-0.0610352,-0.976562,-0.003,0.015,1.2,0.0440674,0.135193,0,0,0,0,0,40.47,844.513,2076118
-0.0127563,-0.00769043,1.017580.976562,-0.244141,-1.09863,-0.002,0.006,1.21,0.0440674,0.135193,0,0,0,0,0,40.47,844.533,2076133
-0.00994873,-0.00805664,1.002750.671387,-0.183105,-0.915527,0,0.005,1.22,0.0440674,0.135193,0,0,0,0,0,40.47,844.554,2076148
-0.00866699,-0.00183105,1.016420.0610352,-0.305176,-0.732422,0.001,0.011,1.25,0.0440674,0.135193,0,0,0,0,0,40.47,844.574,2076178
-0.00958252,0.00152588,1.0083-0.305176,-0.305176,-1.40381,0,0.014,1.27,0.0440674,0.135193,0,0,0,0,0,40.47,844.594,2076193
-0.00683594,0.00622559,1.01007-0.610352,-0.0610352,-2.13623,0.003,0.019,1.29,0.0440674,0.135193,0,0,0,0,0,40.47,844.614,2076208
-0.00720215,-0.0055542,1.023130,0.0610352,-3.66211,0.002,0.007,1.38,0.0440674,0.135284,0,0,0,0,0,40.47,844.633,2076238
-0.00891113,0.00170898,1.00629-0.183105,0.0610352,-4.39453,0.001,0.014,1.44,0.0440674,0.135361,0,0,0,0,0,40.47,844.654,2076253
-0.00695801,0.00891113,1.01941-0.915527,0.305176,-6.46973,0.003,0.021,1.53,0.0440674,0.135452,0,0,0,0,0,40.47,844.673,2076268
-0.0107422,-0.0136719,1.01483-0.12207,0.183105,-7.69043,0,-0.001,1.74,0.0440674,0.135773,0,0,0,0,0,40.47,844.693,2076298
-0.0130615,-0.0128784,1.0058-0.732422,0.244141,-7.9956,-0.003,0,1.86,0.0440674,0.135773,0,0,0,0,0,40.47,844.713,2076313
-0.0126953,0.00299072,1.01807-1.28174,0,-7.32422,-0.002,0.016,1.97,0.0440674,0.135773,0,0,0,0,0,40.47,844.733,2076328
-0.0110474,-0.00109863,1.01056-1.28174,0.0610352,-6.83594,0,0.012,2.2,0.0440674,0.135773,0,0,0,0,0,40.47,844.759,2076358
-0.0128174,-0.0152588,1.00903-1.52588,-0.0610352,-5.98144,-0.002,-0.001,2.29,0.0440674,0.135773,0,0,0,0,0,40.47,844.774,2076373
-0.00683594,0.055603,1.01733-1.28174,-0.0610352,-8.8501,0.006,0.069,2.4,0.0440674,0.135818,0,0,0,0,0,40.47,844.793,2076388
-0.0012207,-0.00909424,1.01398-2.13623,0.183105,-18.4326,0.008,0.004,2.85,0.0440674,0.136032,0,0,0,0,0,40.47,844.813,2076418
0.000671387,0.0101929,1.01544-3.41797,0.488281,-20.9961,0.011,0.024,3.16,0.0440674,0.136169,0,0,0,0,0,40.47,844.834,2076433
0.00189209,-0.00354004,1.01257-3.41797,0.671387,-23.2544,0.012,0.011,3.5,0.0440674,0.136322,0,0,0,0,0,40.47,844.854,2076448
-0.00201416,-0.00726318,1.0144-3.05176,0.915527,-24.6582,0.008,0.008,4.23,0.0440674,0.136703,0,0,0,0,0,40.47,844.874,2076478
-0.0128174,-0.0126343,1.00696-3.35693,0.793457,-25.4517,-0.002,0.004,4.6,0.0440674,0.136917,0,0,0,0,0,40.47,844.893,2076493
-0.0146484,-0.00280762,1.02411-3.78418,0.854492,-26.6724,-0.002,0.016,5,0.0440674,0.136917,0,0,0,0,0,40.47,844.914,2076508
-0.0155029,-0.000183105,1.01447-4.21143,0.610352,-25.6348,-0.002,0.02,5.78,0.0440674,0.136948,0,0,0,0,0,40.47,844.934,2076538
-0.0203857,-0.00982666,1.00946-4.45557,0.549316,-24.5361,-0.008,0.012,6.15,0.0440674,0.136978,0,0,0,0,0,40.47,844.956,2076553
-0.00189209,-0.0385742,1.03851-4.57764,0.305176,-23.4985,0.007,-0.016,6.51,0.0440674,0.137024,0,0,0,0,0,40.47,844.973,2076568
-0.0236816,-0.0407104,0.960693-2.19727,-0.427246,-18.6157,-0.015,-0.015,7.14,0.0441132,0.137146,0,0,0,0,0,40.47,844.992,2076598
-0.0127563,-0.0441284,1.00421-0.12207,-0.366211,-19.5312,-0.004,-0.018,7.42,0.0441284,0.137207,0,0,0,0,0,40.47,845.013,2076613
-0.0078125,-0.0395508,1.040341.0376,0.732422,-23.9258,0.001,-0.013,7.75,0.0441284,0.137207,0,0,0,0,0,40.48,845.032,2076628
0.0264282,-0.0402222,1.014831.28174,0.244141,-30.5786,0.033,-0.02,8.58,0.0441589,0.137177,0,0,0,0,0,40.48,845.054,2076658
-0.0116577,-0.022522,1.035460.427246,1.15967,-35.7056,-0.001,0.003,9.09,0.0442047,0.137131,0,0,0,0,0,40.48,845.073,2076673
-0.000671387,-0.0286865,1.026310.12207,1.40381,-38.6963,0.008,-0.004,9.66,0.0442505,0.1371,0,0,0,0,0,40.48,845.094,2076688
-0.0148926,-0.00579834,1.00836-0.12207,1.64795,-42.6636,-0.001,0.019,10.9,0.0444336,0.1371,0,0,0,0,0,40.48,845.112,2076718
-0.00524902,0.00360107,1.009280.671387,1.83105,-42.2363,0.009,0.026,11.54,0.0445404,0.137131,0,0,0,0,0,40.48,845.132,2076733
-0.00830078,-0.0186157,1.006770.671387,1.95312,-41.0156,0.002,0.005,12.16,0.0445404,0.137177,0,0,0,0,0,40.48,845.153,2076748
-0.0354614,-0.0281982,1.014470.610352,1.64795,-38.0859,-0.025,0.001,13.34,0.0445099,0.137253,0,0,0,0,0,40.48,845.174,2076778
-0.0130615,-0.0120239,1.02893-0.12207,1.34277,-37.4146,0,0.012,13.9,0.0444794,0.137253,0,0,0,0,0,40.48,845.193,2076793
-0.00964355,-0.0287476,1.0011-0.732422,0.976562,-38.269,0,-0.004,14.47,0.0444489,0.137253,0,0,0,0,0,40.48,845.213,2076808
-0.00579834,-0.00714111,1.00189-0.671387,0.549316,-37.2314,0.009,0.015,15.61,0.044342,0.137253,0,0,0,0,0,40.48,845.232,2076839
0.0109863,-0.0224609,1.012270.183105,0.610352,-36.7432,0.021,-0.003,16.16,0.0443115,0.137253,0,0,0,0,0,40.48,845.252,2076854
-0.00158691,-0.0359497,1.004390.976562,0.976562,-36.1328,0.005,-0.013,16.71,0.044281,0.137253,0,0,0,0,0,40.48,845.273,2076869
0.00927734,-0.0216675,1.025090.976562,1.34277,-36.9263,0.019,-0.002,17.8,0.044281,0.137253,0,0,0,0,0,40.48,845.292,2076899
0.0169678,-0.00628662,1.01270.915527,1.64795,-37.7197,0.031,0.008,18.36,0.0443115,0.137253,0,0,0,0,0,40.48,845.312,2076914
-0.00506592,-0.0394287,1.018620,1.89209,-38.6353,0,-0.015,18.94,0.0443726,0.137253,0,0,0,0,0,40.48,845.332,2076929
-0.00579834,-0.0183105,1.00818-1.40381,1.95312,-39.0015,0.006,0.004,20.12,0.0445251,0.137268,0,0,0,0,0,40.48,845.353,2076959
-0.0154419,-0.00384521,1.00836-0.305176,1.77002,-38.6963,0.003,0.021,20.7,0.044632,0.137314,0,0,0,0,0,40.48,845.374,2076974
-0.0270386,-0.0150757,1.005370.488281,1.52588,-37.2314,-0.011,0.014,21.26,0.044632,0.137375,0,0,0,0,0,40.48,845.392,2076989
-0.0319214,-0.0272827,1.01190.854492,1.15967,-36.7432,-0.019,0.005,22.36,0.044632,0.137436,0,0,0,0,0,40.48,845.413,2077019
-0.0145874,-0.0256958,1.020260.305176,0.671387,-36.8042,-0.002,0,22.92,0.044632,0.137436,0,0,0,0,0,40.48,845.433,2077034
-0.00604248,-0.0383301,1.01331-0.549316,0.488281,-37.9028,0,-0.014,23.48,0.044632,0.137436,0,0,0,0,0,40.48,845.452,2077049
-0.00744629,-0.0187988,1.00629-1.58691,0.12207,-37.7197,0.006,0.005,24.62,0.044632,0.137436,0,0,0,0,0,40.48,845.474,2077079
-0.00292969,-0.045166,1.00378-0.366211,0.427246,-36.3159,0,-0.02,25.16,0.044632,0.137436,0,0,0,0,0,40.48,845.492,2077094
0.0122681,-0.0330811,1.003110.610352,0.671387,-35.4614,0.017,-0.016,25.7,0.044632,0.13739,0,0,0,0,0,40.48,845.513,2077109
0.0067749,-0.0245361,1.028811.15967,1.2207,-33.8135,0.016,-0.006,26.72,0.044632,0.137253,0,0,0,0,0,40.49,845.533,2077139
0.0175171,-0.0440063,1.017270.854492,1.83105,-34.9121,0.016,-0.028,27.24,0.044632,0.137146,0,0,0,0,0,40.49,845.552,2077154
0.00567627,-0.0366821,1.00446-0.671387,1.40381,-35.8276,0.009,-0.017,27.78,0.044632,0.137009,0,0,0,0,0,40.49,845.573,2077169
-0.00854492,0.0270386,1.01562-1.58691,1.77002,-36.6821,0.028,0.046,28.87,0.0446472,0.136703,0,0,0,0,0,40.49,845.593,2077199
-0.012207,-0.0101318,0.9926760,1.58691,-36.0107,0.007,0.015,29.41,0.044693,0.136581,0,0,0,0,0,40.49,845.613,2077214
-0.00952148,-0.0162964,1.011231.34277,1.40381,-35.8887,0.006,0.008,29.95,0.0447388,0.136581,0,0,0,0,0,40.49,845.633,2077229
-0.000427246,-0.0032959,1.0261.58691,1.09863,-36.8652,0.021,0.014,31.03,0.0448151,0.136581,0,0,0,0,0,40.49,845.653,2077259
-0.0144043,-0.0261841,1.021970.976562,1.15967,-37.9639,-0.002,0.001,31.6,0.0448761,0.136581,0,0,0,0,0,40.49,845.673,2077274
0.00268555,-0.0352783,1.01764-0.610352,0.854492,-38.8184,0.007,-0.015,32.18,0.0448761,0.136581,0,0,0,0,0,40.49,845.693,2077289
-0.00970459,-0.0109863,1.02234-1.64795,0.488281,-39.4287,0.01,0.012,33.37,0.0448761,0.136581,0,0,0,0,0,40.49,845.713,2077319
0.00128174,-0.0318604,1.00311-0.549316,0.732422,-38.6353,0.007,-0.01,33.94,0.0448761,0.136581,0,0,0,0,0,40.49,845.733,2077334
     0,-0.0353394,1.010680.671387,1.09863,-37.7808,0.004,-0.012,34.52,0.0448761,0.136581,0,0,0,0,0,40.49,845.753,2077349
0.0230713,0.00689697,0.9987181.40381,1.0376,-36.1938,0.046,0.007,35.61,0.0449066,0.136581,0,0,0,0,0,40.49,845.776,2077379
-0.0119019,-0.0689087,1.020141.15967,1.70898,-36.5601,-0.026,-0.033,36.16,0.0449371,0.136566,0,0,0,0,0,40.49,845.794,2077394
0.0169067,-0.0361938,1.00714-0.549316,1.15967,-37.1094,0.016,-0.023,36.71,0.0449677,0.136505,0,0,0,0,0,40.49,845.813,2077409
-0.027771,-0.0117188,1.01099-1.2207,1.2207,-37.8418,-0.003,0.023,37.85,0.0449677,0.136368,0,0,0,0,0,40.49,845.833,2077439
-0.000976562,-0.0427246,0.9953-0.0610352,0.976562,-37.5977,-0.002,-0.017,38.41,0.0449677,0.136292,0,0,0,0,0,40.49,845.853,2077454
-0.0206299,-0.00897217,1.010622.01416,0.915527,-37.7197,0.004,0.02,39.53,0.0449677,0.136185,0,0,0,0,0,40.49,845.879,2077484
-0.0171509,-0.0313721,1.042112.50244,1.58691,-39.1846,-0.007,0.001,40.11,0.0449677,0.136139,0,0,0,0,0,40.49,845.893,2077499
0.00628662,-0.0684814,1.034421.15967,1.58691,-40.4053,-0.014,-0.042,40.71,0.0449677,0.136078,0,0,0,0,0,40.49,845.913,2077514
0.013855,-0.0065918,1.007810,0.854492,-41.3818,0.031,0,41.33,0.0449829,0.135986,0,0,0,0,0,40.49,845.933,2077529
0.0148315,0.00701904,1.01501-0.854492,0.732422,-40.6494,0.041,0.008,42.57,0.0449982,0.135696,0,0,0,0,0,40.49,845.953,2077559
-0.0175781,-0.0194702,1.00470.488281,1.28174,-39.4897,0,0.01,43.77,0.045105,0.135437,0,0,0,0,0,40.49,845.99,2077589
-0.0133667,-0.0524292,1.034910.671387,1.52588,-39.1235,-0.02,-0.015,44.94,0.045105,0.13533,0,0,0,0,0,40.49,846.014,2077619
0.00445557,-0.0150757,10.12207,0.854492,-38.6963,0.018,-0.002,45.52,0.0450897,0.13533,0,0,0,0,0,40.49,846.034,2077634
-0.0354614,-0.0691528,1.01776-0.732422,1.40381,-38.8794,-0.047,-0.01,46.1,0.0450745,0.13533,0,0,0,0,0,40.51,846.053,2077649
0.0291138,-0.0255737,0.983276-0.854492,0.0610352,-37.7197,0.027,-0.027,47.26,0.0449829,0.1353,0,0,0,0,0,40.51,846.073,2077679
-0.0313721,-0.0369873,0.9945070.549316,0.732422,-37.6587,-0.021,0.009,47.83,0.0449524,0.135254,0,0,0,0,0,40.51,846.093,2077694
0.000549316,-0.00750732,1.015321.34277,0.671387,-36.6211,0.021,0.005,48.38,0.0449219,0.135223,0,0,0,0,0,40.51,846.113,2077709
-0.00665283,-0.0296021,1.001340.976562,0.915527,-38.5742,0,-0.003,49.52,0.0448914,0.135101,0,0,0,0,0,40.51,846.134,2077739
-0.00878906,-0.0487671,1.02832-0.366211,0.915527,-38.8184,-0.015,-0.013,50.1,0.0448914,0.13501,0,0,0,0,0,40.51,846.154,2077754
0.0234985,-0.0202637,1.02985-1.15967,1.0376,-39.1235,0.026,-0.02,50.68,0.0449066,0.134903,0,0,0,0,0,40.51,846.173,2077769
0.00286865,-0.0123901,1.015620.244141,0.793457,-37.9639,0.019,0,51.84,0.0449982,0.134644,0,0,0,0,0,40.51,846.193,2077799
0.00280762,-0.00622559,0.9976811.34277,0.854492,-38.6963,0.023,0.003,52.42,0.0450745,0.134644,0,0,0,0,0,40.51,846.213,2077814
-0.0181885,-0.0222778,1.026981.95312,1.46484,-39.7339,-0.001,0.01,53.01,0.045166,0.134644,0,0,0,0,0,40.51,846.234,2077829
0.00793457,-0.0203857,0.9997560.610352,1.0376,-41.1987,0.014,-0.009,54.22,0.0452728,0.134644,0,0,0,0,0,40.51,846.253,2077859
0.00292969,-0.0689087,1.02417-1.15967,1.15967,-41.5649,-0.027,-0.033,54.84,0.0452576,0.134613,0,0,0,0,0,40.51,846.273,2077874
-0.0122681,-0.00836182,1.02295-0.732422,1.09863,-41.4429,0.013,0.013,55.46,0.0452423,0.134567,0,0,0,0,0,40.51,846.292,2077889
-0.000915527,-0.0296631,0.9925540.0610352,0.671387,-41.0767,0.001,-0.007,56.71,0.0452271,0.134537,0,0,0,0,0,40.51,846.312,2077919
0.0010376,0.00183105,1.020020.915527,0.610352,-40.4663,0.029,0.008,57.32,0.0452576,0.134537,0,0,0,0,0,40.51,846.333,2077934
-0.0178223,-0.0222168,1.032351.40381,1.15967,-40.4663,0,0.01,57.92,0.0452881,0.134537,0,0,0,0,0,40.51,846.353,2077949
-0.00427246,-0.0483398,1.00879-0.0610352,0.976562,-40.0391,-0.016,-0.014,59.13,0.0453339,0.134476,0,0,0,0,0,40.51,846.373,2077979
0.00585938,-0.0339355,1.02563-1.0376,0.671387,-39.856,0.001,-0.014,59.73,0.0453339,0.134415,0,0,0,0,0,40.51,846.393,2077994
0.0182495,-0.015625,0.996826-0.427246,0.854492,-39.6118,0.022,-0.016,60.33,0.0453491,0.134415,0,0,0,0,0,40.51,846.414,2078010
0.0105591,-0.0455322,1.018980,0.793457,-39.0625,-0.006,-0.024,60.92,0.0453796,0.134384,0,0,0,0,0,40.51,846.432,2078025
-0.000915527,-0.0308228,1.000611.09863,1.15967,-39.4287,0,-0.007,62.1,0.0454559,0.134308,0,0,0,0,0,40.51,846.453,2078054
-0.00531006,-0.0447998,1.032781.0376,1.40381,-40.1611,-0.014,-0.009,62.71,0.0455017,0.134308,0,0,0,0,0,40.51,846.473,2078069
0.0298462,-0.0142822,1.03595-0.488281,0.854492,-40.0391,0.028,-0.027,63.9,0.0454559,0.134232,0,0,0,0,0,40.51,846.492,2078099
0.0088501,-0.00488281,1.00793-0.244141,0.793457,-39.4897,0.026,-0.004,64.49,0.0454712,0.13414,0,0,0,0,0,40.51,846.512,2078114
-0.0168457,-0.0328979,1.015870.549316,1.09863,-38.8184,-0.009,0.006,65.08,0.0455017,0.13414,0,0,0,0,0,40.51,846.533,2078130
0.000671387,-0.00268555,1.002991.09863,0.915527,-39.917,0.024,0.003,66.27,0.0456085,0.13414,0,0,0,0,0,40.47,846.552,2078160
-0.0293579,-0.0154419,1.028931.64795,1.0376,-40.8936,0.001,0.025,66.87,0.0457153,0.134171,0,0,0,0,0,40.47,846.573,2078174
0.0247803,-0.0559692,1.01587-0.610352,1.2207,-40.5884,-0.015,-0.04,67.48,0.0457153,0.134171,0,0,0,0,0,40.47,846.593,2078189
-0.0452881,0.000671387,1.041750,1.09863,-40.6494,0.012,0.046,68.72,0.0457458,0.134125,0,0,0,0,0,40.47,846.613,2078219
0.0259399,-0.0748901,1.04907-0.854492,1.34277,-37.1704,-0.032,-0.046,69.29,0.0457611,0.134109,0,0,0,0,0,40.47,846.634,2078235
0.0142212,-0.0803223,1.00940.305176,1.0376,-36.438,-0.043,-0.036,69.84,0.0457306,0.134048,0,0,0,0,0,40.47,846.653,2078250
0.0123901,-0.0407715,1.01190.793457,1.0376,-29.602,-0.007,-0.021,70.82,0.0456696,0.133789,0,0,0,0,0,40.47,846.673,2078280
-0.00891113,-0.0114136,0.9880370.793457,0.793457,-28.3813,0.012,0.008,71.25,0.0456696,0.133636,0,0,0,0,0,40.47,846.693,2078295
0.000793457,-0.0733032,1.0108-0.305176,1.15967,-25.5127,-0.042,-0.02,71.65,0.0456543,0.133484,0,0,0,0,0,40.47,846.712,2078310
-0.0119019,0.0223389,1.01654-1.70898,0.671387,-22.3999,0.046,0.021,72.36,0.0455627,0.133133,0,0,0,0,0,40.47,846.733,2078340
-0.0057373,-0.039978,1.00812-1.28174,0.915527,-18.6157,-0.01,-0.003,72.66,0.0455475,0.132965,0,0,0,0,0,40.47,846.753,2078355
0.00897217,-0.0438843,1.000060.854492,0.488281,-18.1885,-0.01,-0.018,72.92,0.0455322,0.132782,0,0,0,0,0,40.47,846.773,2078370
0.0067749,-0.0106201,1.005681.09863,-0.12207,-19.104,0.019,-0.007,73.49,0.0455322,0.132782,0,0,0,0,0,40.47,846.795,2078400
0.0127563,-0.0177612,1.016421.28174,0.0610352,-21.9727,0.014,-0.014,73.8,0.0455322,0.132782,0,0,0,0,0,40.47,846.813,2078415
-0.00866699,-0.0471191,1.026310.549316,0.427246,-21.8506,-0.019,-0.002,74.13,0.0455322,0.132782,0,0,0,0,0,40.47,846.834,2078430
0.0101318,-0.0180054,1.01794-0.183105,0.793457,-21.4233,0.012,-0.012,74.77,0.0455322,0.132721,0,0,0,0,0,40.47,846.853,2078460
-0.00378418,-0.0203247,1.01624-0.366211,0.671387,-19.4092,0.006,0,75.07,0.0455322,0.132675,0,0,0,0,0,40.47,846.873,2078475
0.00830078,-0.0195923,1.01526-0.305176,0.732422,-17.8223,0.01,-0.01,75.35,0.0455322,0.132675,0,0,0,0,0,40.47,846.893,2078490
-0.00488281,-0.0275269,1.01910.427246,0.854492,-14.0991,0,0,75.84,0.0455322,0.132675,0,0,0,0,0,40.47,846.913,2078520
0.00219727,-0.0159912,1.013180.366211,0.549316,-11.9629,0.012,-0.004,76.02,0.0455322,0.132675,0,0,0,0,0,40.47,846.933,2078535
-0.0098877,-0.0221558,1.017210,0.488281,-10.1318,0.003,0.005,76.19,0.0455322,0.132675,0,0,0,0,0,40.47,846.954,2078550
-0.0045166,-0.0528564,1-1.40381,-0.183105,-7.20215,-0.024,-0.006,76.43,0.0454559,0.132675,0,0,0,0,0,40.47,846.973,2078580
-0.00152588,0.0177002,0.996948-0.732422,-0.366211,-6.16455,0.044,0.007,76.52,0.0454254,0.132675,0,0,0,0,0,40.47,846.993,2078595
-0.00201416,-0.0275879,1.015380.854492,-0.366211,-5.43213,0,-0.003,76.61,0.0454102,0.132675,0,0,0,0,0,40.47,847.013,2078610
0.00488281,-0.0263062,1.01575-0.0610352,-0.366211,-5.43213,0.003,-0.008,76.78,0.0453644,0.132675,0,0,0,0,0,40.47,847.032,2078640
0.0126953,-0.00628662,1.016910.488281,-0.0610352,-7.26318,0.024,-0.011,76.87,0.0453491,0.132675,0,0,0,0,0,40.47,847.053,2078655
0.0180054,-0.0126343,1.005620.732422,0.0610352,-8.66699,0.018,-0.018,76.99,0.0453644,0.132675,0,0,0,0,0,40.46,847.073,2078670
0.0106812,0.00335693,1.022160.732422,0.549316,-10.498,0.032,-0.007,77.3,0.0454407,0.132675,0,0,0,0,0,40.46,847.093,2078700
0.0128174,-0.0145264,1.012210.610352,0.549316,-11.2305,0.014,-0.013,77.46,0.0455322,0.132675,0,0,0,0,0,40.46,847.113,2078715
-0.00787354,-0.0334473,1.014280.244141,0.732422,-12.0239,-0.008,0.002,77.64,0.045639,0.132675,0,0,0,0,0,40.46,847.133,2078730
-0.00189209,-0.00183105,1.01312-0.244141,0.549316,-13.4277,0.023,0.002,78.03,0.0458679,0.132675,0,0,0,0,0,40.46,847.153,2078760
-0.0187988,-0.0184326,1.012450,0.427246,-13.1226,0.004,0.015,78.22,0.0460205,0.132675,0,0,0,0,0,40.46,847.173,2078775
-0.0057373,-0.0222778,1.011170.12207,0.183105,-12.2681,0.003,0.002,78.41,0.0460205,0.132675,0,0,0,0,0,40.46,847.193,2078790
0.00170898,-0.0275269,1.014160.183105,-0.12207,-12.3291,0,-0.006,78.78,0.0460205,0.132675,0,0,0,0,0,40.46,847.214,2078820
0.00494385,-0.0254517,1.013120.12207,-0.244141,-12.4512,0.001,-0.008,78.96,0.0460205,0.132675,0,0,0,0,0,40.46,847.233,2078835
0.0115356,-0.0212402,1.01312-0.183105,0.0610352,-12.6343,0.006,-0.013,79.35,0.0460205,0.132675,0,0,0,0,0,40.46,847.257,2078865
0.00164795,-0.0133057,1.0174-0.183105,0.305176,-12.8174,0.013,-0.002,79.54,0.0460205,0.132675,0,0,0,0,0,40.46,847.273,2078880
0.0125122,-0.00506592,1.019710,0.732422,-12.5732,0.022,-0.011,79.73,0.046051,0.132675,0,0,0,0,0,40.46,847.293,2078895
0.0126343,-0.0283203,1.014890.244141,0.793457,-12.5122,0,-0.016,79.92,0.0460968,0.132675,0,0,0,0,0,40.46,847.313,2078910
0.00396729,-0.024292,1.012760.244141,0.671387,-11.6577,0.002,-0.007,80.28,0.0461273,0.132675,0,0,0,0,0,40.46,847.333,2078940
0.00292969,-0.0148315,1.010990.0610352,0.610352,-11.5967,0.011,-0.004,80.46,0.0461273,0.132675,0,0,0,0,0,40.46,847.354,2078955
-0.0140381,-0.00653076,1.012880,0.488281,-11.1694,0.016,0.013,80.62,0.0461273,0.132675,0,0,0,0,0,40.46,847.373,2078970
-0.00164795,-0.0340576,1.0155-0.12207,0.183105,-10.5591,-0.008,-0.003,80.96,0.0461273,0.132675,0,0,0,0,0,40.46,847.393,2079000
-0.00396729,-0.0222778,1.01874-0.0610352,-0.0610352,-10.498,0.002,0,81.11,0.0461273,0.132675,0,0,0,0,0,40.46,847.413,2079015
-6.10352e-05,-0.0211792,1.008540,-0.12207,-10.1318,0.003,-0.002,81.27,0.0461273,0.132675,0,0,0,0,0,40.46,847.433,2079030
0.00256348,-0.0288086,1.019410.244141,0.0610352,-9.70459,-0.003,-0.006,81.56,0.0461273,0.132675,0,0,0,0,0,40.46,847.454,2079060
0.0135498,-0.0162964,1.0050.183105,0.0610352,-9.33838,0.01,-0.015,81.7,0.0461273,0.132675,0,0,0,0,0,40.46,847.473,2079075
0.0125732,-0.0172119,1.011960.244141,0.305176,-9.46045,0.009,-0.014,81.84,0.0461273,0.132675,0,0,0,0,0,40.46,847.493,2079090
0.00390625,-0.024353,1.01306-0.305176,0.244141,-10.0708,0.001,-0.006,82.13,0.0461273,0.132675,0,0,0,0,0,40.46,847.515,2079120
0.00646973,-0.00952148,1.014770,0.549316,-10.6201,0.015,-0.007,82.29,0.0461273,0.132675,0,0,0,0,0,40.46,847.533,2079135
-0.00665283,-0.019165,1.007810.244141,0.427246,-10.9253,0.004,0.004,82.46,0.0461273,0.132675,0,0,0,0,0,40.46,847.552,2079150
-0.00201416,-0.0185547,1.015320.427246,0.183105,-11.2915,0.005,0,82.78,0.0461273,0.132675,0,0,0,0,0,40.45,847.573,2079180
-0.00128174,-0.0235596,1.015080.427246,0.12207,-11.1084,0,-0.001,82.96,0.0461273,0.132675,0,0,0,0,0,40.45,847.592,2079195
0.00250244,-0.0289307,1.016240.0610352,0.12207,-12.085,-0.004,-0.005,83.13,0.0461273,0.132675,0,0,0,0,0,40.45,847.614,2079210
0.00518799,-0.0178833,1.01398-0.610352,0.244141,-12.8174,0.006,-0.006,83.51,0.0461273,0.132675,0,0,0,0,0,40.45,847.632,2079240
0.0128174,-0.00854492,1.00458-0.183105,0.0610352,-13.0005,0.016,-0.013,83.71,0.0461273,0.132675,0,0,0,0,0,40.45,847.659,2079255
0.0010376,-0.017334,1.005190.305176,0.244141,-12.3291,0.006,-0.002,83.89,0.0461273,0.132675,0,0,0,0,0,40.45,847.673,2079270
0.00384521,-0.0192261,1.024230.183105,0.366211,-11.8408,0.005,-0.005,84.26,0.0461273,0.132675,0,0,0,0,0,40.45,847.692,2079300
0.00012207,-0.0135498,1.013-0.793457,0.488281,-11.3525,0.01,-0.001,84.6,0.0461273,0.132675,0,0,0,0,0,40.45,847.723,2079330
0.00012207,-0.0135498,1.013-0.793457,0.488281,-11.3525,0.01,-0.001,84.6,0.0461273,0.132675,0,0,0,0,0,40.45,847.733,2079330
-0.00445557,-0.0299072,1.01947-0.549316,0.488281,-10.2539,-0.005,0.001,84.92,0.0461273,0.132675,0,0,0,0,0,40.45,847.753,2079360
0.00897217,-0.00762939,1.0033-0.12207,0.0610352,-9.21631,0.017,-0.009,85.06,0.0461273,0.132675,0,0,0,0,0,40.45,847.775,2079375
-0.00012207,-0.0247192,1.013430.610352,-0.0610352,-8.42285,0,-0.002,85.2,0.0461273,0.132675,0,0,0,0,0,40.45,847.792,2079390
0.012146,-0.0273438,1.01447-0.0610352,-0.12207,-8.36182,-0.002,-0.014,85.44,0.0461273,0.132675,0,0,0,0,0,40.45,847.813,2079420
0.010376,-0.0350342,1.011780,0.244141,-10.0708,-0.01,-0.012,85.86,0.0461273,0.132675,0,0,0,0,0,40.45,847.858,2079466
0.0131226,-0.0113525,1.012760.427246,0.12207,-9.70459,0.013,-0.013,86,0.0461273,0.132675,0,0,0,0,0,40.45,847.873,2079480
     0,-0.0194092,1.01160.732422,0.183105,-10.0098,0.004,-0.001,86.15,0.0461273,0.132675,0,0,0,0,0,40.45,847.893,2079495
0.00396729,-0.0309448,1.013060.671387,0.366211,-10.6812,-0.007,-0.005,86.31,0.0461273,0.132675,0,0,0,0,0,40.45,847.912,2079510
-0.00134277,-0.00787354,1.01050.12207,0.366211,-11.9629,0.014,0,86.65,0.0461273,0.132675,0,0,0,0,0,40.45,847.932,2079540
-0.00738525,-0.0266113,1.020260,0.427246,-12.3901,-0.004,0.005,86.84,0.0461273,0.132675,0,0,0,0,0,40.45,847.954,2079555
0.00592041,-0.00750732,1.01172-0.671387,0.244141,-12.3901,0.015,-0.006,87.02,0.0461273,0.132675,0,0,0,0,0,40.45,847.973,2079570
-0.000244141,-0.0239868,1.01678-0.0610352,0.12207,-13.0005,0,-0.001,87.41,0.0461273,0.132675,0,0,0,0,0,40.45,847.993,2079600
0.0126343,-0.0184326,1.014890.0610352,-0.0610352,-12.3901,0.004,-0.013,87.6,0.0461273,0.132675,0,0,0,0,0,40.45,848.013,2079615
-0.00134277,-0.0171509,1.022950.366211,0.244141,-12.085,0.005,0,87.78,0.0461273,0.132675,0,0,0,0,0,40.45,848.033,2079630
0.0153198,-0.0209351,1.00549-0.244141,0.244141,-12.3291,0.002,-0.016,88.15,0.0461273,0.132675,0,0,0,0,0,40.45,848.054,2079661
0.0137329,-0.0171509,1.01941-0.305176,0.427246,-12.6343,0.006,-0.014,88.34,0.0461273,0.132675,0,0,0,0,0,40.45,848.073,2079676
0.00830078,-0.0317383,1.01215-0.366211,0.671387,-12.5122,-0.008,-0.009,88.53,0.0461273,0.132675,0,0,0,0,0,40.45,848.093,2079691
0.00512695,-0.0218506,1.016050.12207,0.732422,-12.085,0.001,-0.005,88.89,0.0461273,0.132675,0,0,0,0,0,40.45,848.113,2079721
0.00750732,-0.0319214,1.011230.244141,0.671387,-11.9019,-0.008,-0.008,89.07,0.0461273,0.132675,0,0,0,0,0,40.45,848.133,2079736
0.000488281,-0.00738525,1.008540.244141,0.549316,-11.8408,0.015,-0.001,89.25,0.0461273,0.132675,0,0,0,0,0,40.45,848.154,2079751
-0.00152588,-0.0268555,1.01312-0.427246,0.12207,-11.9629,-0.004,0,89.61,0.0461273,0.132675,0,0,0,0,0,40.45,848.174,2079781
-0.00286865,-0.0147095,1.00879-0.488281,0.12207,-11.4746,0.008,0.001,89.78,0.0461273,0.132675,0,0,0,0,0,40.45,848.193,2079796
-0.00531006,-0.0236206,1.01257-0.183105,-0.0610352,-10.9863,0,0.004,89.95,0.0461273,0.132675,0,0,0,0,0,40.45,848.213,2079811
0.00256348,-0.0223999,1.0080.366211,0,-10.0098,0,-0.003,90.25,0.0461273,0.132675,0,0,0,0,0,40.45,848.233,2079841
0.00213623,-0.022644,1.011170.183105,-0.12207,-9.76562,0,-0.003,90.41,0.0461273,0.132675,0,0,0,0,0,40.45,848.253,2079856
0.0150757,-0.0280762,1.017640,0.12207,-9.46045,-0.005,-0.015,90.55,0.0461273,0.132675,0,0,0,0,0,40.45,848.273,2079871
0.0128784,-0.00872803,1.00977-0.12207,0.305176,-9.8877,0.013,-0.013,90.84,0.0461273,0.132675,0,0,0,0,0,40.45,848.294,2079901
0.0101318,-0.00860596,1.002560,0.549316,-10.1318,0.013,-0.01,90.99,0.0461273,0.132675,0,0,0,0,0,40.45,848.314,2079916
-0.00134277,-0.0216675,1.019350.427246,0.732422,-11.1694,0,0,91.15,0.0461273,0.132675,0,0,0,0,0,40.45,848.335,2079931
-0.00354004,-0.0390015,1.005860,0.488281,-9.27734,-0.016,0.003,91.31,0.0461273,0.132675,0,0,0,0,0,40.45,848.353,2079946
-0.00970459,-0.00427246,1.022090.183105,0.366211,-5.92041,0.018,0.008,91.52,0.0461273,0.132675,0,0,0,0,0,40.45,848.373,2079976
-0.00616455,-0.0354004,1.008240.12207,0.0610352,-3.2959,-0.012,0.005,91.58,0.0461273,0.132675,0,0,0,0,0,40.45,848.393,2079991
-0.00268555,-0.0218506,1.01373-0.0610352,-0.183105,-0.915527,0,0.001,91.61,0.0461273,0.132675,0,0,0,0,0,40.45,848.413,2080006
0.0115356,-0.0300293,1.01025-0.183105,-0.427246,1.28174,-0.007,-0.012,91.59,0.0461273,0.132675,0,0,0,0,0,40.45,848.439,2080036
0.0020752,-0.0238037,1.01874-0.427246,-0.488281,1.64795,0,-0.002,91.57,0.0461273,0.132675,0,0,0,0,0,40.45,848.453,2080051
0.0128784,-0.0188599,1.00629-0.183105,-0.0610352,-0.0610352,0.003,-0.013,91.54,0.0461273,0.132675,0,0,0,0,0,40.45,848.474,2080081
0.00250244,-0.0211182,1.011350.183105,0.0610352,-0.366211,0.001,-0.002,91.55,0.0461273,0.132675,0,0,0,0,0,40.45,848.492,2080096
0.00506592,-0.022522,1.011720.549316,0.12207,-0.488281,0,-0.005,91.56,0.0461273,0.132675,0,0,0,0,0,40.45,848.513,2080111
-0.0045166,-0.0256348,1.019780.0610352,0,0.488281,-0.002,0.004,91.56,0.0461273,0.132675,0,0,0,0,0,40.45,848.536,2080141
0.000854492,-0.0169678,1.01917-0.0610352,-0.0610352,0.610352,0.005,-0.001,91.55,0.0461273,0.132675,0,0,0,0,0,40.45,848.552,2080156
-0.00531006,-0.0176392,1.00983-0.0610352,-0.12207,0.915527,0.004,0.004,91.53,0.0461273,0.132675,0,0,0,0,0,40.45,848.575,2080171
0.000427246,-0.0126953,1.011350,-0.183105,0.976562,0.009,0,91.5,0.0461273,0.132675,0,0,0,0,0,40.47,848.593,2080201
0.00213623,-0.0205078,1.00543-0.0610352,-0.305176,0.976562,0.001,-0.002,91.49,0.0461273,0.132675,0,0,0,0,0,40.47,848.613,2080216
0.00970459,-0.0216675,1.01672-0.244141,-0.12207,0.915527,0,-0.009,91.47,0.0461273,0.132675,0,0,0,0,0,40.47,848.633,2080231
0.00909424,-0.0123291,1.01428-0.12207,-0.12207,0.549316,0.009,-0.009,91.46,0.0461273,0.132675,0,0,0,0,0,40.47,848.653,2080246
0.00671387,-0.020813,1.0130.0610352,-0.12207,0.366211,0.001,-0.006,91.45,0.0461273,0.132675,0,0,0,0,0,40.47,848.675,2080276
0.00762939,-0.0204468,1.013240,0,0.12207,0.001,-0.007,91.45,0.0461273,0.132675,0,0,0,0,0,40.47,848.695,2080291
0.00201416,-0.0200195,1.01660,0,0.0610352,0.002,-0.001,91.44,0.0461273,0.132675,0,0,0,0,0,40.47,848.713,2080321
0.00408936,-0.0203247,1.01581-0.0610352,-0.183105,0.12207,0.001,-0.003,91.44,0.0461273,0.132675,0,0,0,0,0,40.47,848.733,2080336
-0.000976562,-0.0189209,1.00983-0.0610352,-0.183105,0.0610352,0.003,0.001,91.44,0.0461273,0.132675,0,0,0,0,0,40.47,848.753,2080351
0.00610352,-0.0209351,1.01715-0.12207,-0.183105,0,0,-0.005,91.44,0.0461273,0.132675,0,0,0,0,0,40.47,848.773,2080381
0.0022583,-0.0202026,1.014890,0,-0.0610352,0.001,-0.001,91.44,0.0461273,0.132675,0,0,0,0,0,40.47,848.792,2080396
0.00317383,-0.0211792,1.0097-0.12207,-0.183105,0.0610352,0,-0.002,91.44,0.0461273,0.132675,0,0,0,0,0,40.47,848.813,2080411
0.00518799,-0.0170288,1.00861-0.0610352,-0.12207,-0.0610352,0.004,-0.004,91.44,0.0461273,0.132675,0,0,0,0,0,40.47,848.833,2080441
0.00415039,-0.020752,1.02094-0.0610352,-0.12207,0.12207,0.001,-0.003,91.44,0.0461273,0.132675,0,0,0,0,0,40.47,848.852,2080456
0.00354004,-0.0221558,1.008480,0,0,0,-0.002,91.44,0.0461273,0.132675,0,0,0,0,0,40.47,848.872,2080471
0.0010376,0.0353394,1.006470.671387,0.0610352,-0.366211,0.056,-0.001,91.44,0.0461578,0.132675,0,0,0,0,0,40.47,848.892,2080486
0.000793457,-0.0285034,1.022892.74658,-0.0610352,-0.427246,-0.009,0,91.47,0.0463562,0.132675,0,0,0,0,0,40.47,848.919,2080516
-0.00537109,-0.0177002,0.994082.2583,-0.183105,-0.427246,0,0.005,91.48,0.0463562,0.132675,0,0,0,0,0,40.47,848.932,2080531
0.00518799,-0.0223999,1.016851.2207,-0.183105,-0.12207,-0.004,-0.004,91.48,0.0463562,0.132675,0,0,0,0,0,40.47,848.952,2080547
-0.00805664,-0.0247192,1.021422.86865,-0.183105,-1.2207,-0.008,0.009,91.51,0.0464783,0.132675,0,0,0,0,0,40.47,848.973,2080576
0.0098877,-0.00952148,1.002382.50244,-0.244141,-0.976562,0.005,-0.009,91.52,0.0465546,0.132675,0,0,0,0,0,40.47,848.992,2080591
0.00531006,-0.0258789,1.00971.89209,0,-1.2207,-0.011,-0.004,91.54,0.0465546,0.132675,0,0,0,0,0,40.47,849.012,2080607
0.0123901,0.03302,1.01270.12207,-0.183105,-0.549316,0.047,-0.012,91.56,0.046524,0.132675,0,0,0,0,0,40.47,849.032,2080636
0.00219727,-0.0178223,1.003420.12207,0.305176,-1.15967,-0.004,-0.001,91.58,0.0465546,0.132675,0,0,0,0,0,40.47,849.053,2080651
0.00463867,0.0967407,1.02131.58691,0.12207,-0.732422,0.11,-0.006,91.59,0.0466309,0.132675,0,0,0,0,0,40.47,849.073,2080681
-0.00390625,0.0874634,1.001656.10352,0.12207,-0.854492,0.098,0.002,91.61,0.0468597,0.132675,0,0,0,0,0,40.47,849.093,2080696
0.0100708,-0.0532227,1.025948.72803,-0.305176,-0.183105,-0.044,-0.007,91.61,0.0471191,0.132675,0,0,0,0,0,40.47,849.113,2080711
-0.0122681,-0.0266724,1.003176.28662,-0.488281,-0.488281,-0.021,0.014,91.62,0.0475464,0.132675,0,0,0,0,0,40.47,849.133,2080741
0.0238037,0.0915527,1.07416.34766,-0.244141,0.244141,0.094,-0.025,91.62,0.047821,0.13266,0,0,0,0,0,40.47,849.156,2080756
0.00634766,-0.0727539,1.019534.82178,-1.0376,-0.0610352,-0.071,-0.002,91.62,0.0480957,0.132629,0,0,0,0,0,40.47,849.178,2080771
-0.0332642,0.0353394,0.9707643.05176,-0.12207,0.671387,0.036,0.033,91.62,0.0483398,0.132629,0,0,0,0,0,40.47,849.193,2080787
-0.00610352,0.0759888,1.02661-1.77002,0.183105,0.12207,0.076,0.005,91.6,0.0489502,0.132584,0,0,0,0,0,40.47,849.213,2080816
-0.00280762,0.160034,1.037961.0376,0.244141,0.0610352,0.158,0,91.61,0.0494537,0.132584,0,0,0,0,0,40.47,849.233,2080831
0.00689697,0.0713501,1.040953.35693,0.12207,1.15967,0.067,-0.006,91.58,0.0500946,0.132584,0,0,0,0,0,40.47,849.253,2080847
-0.0057373,0.0600586,0.988953-2.0752,0.183105,0.0610352,0.056,0.006,91.57,0.0515289,0.132523,0,0,0,0,0,40.47,849.273,2080876
0.0354004,0.12207,1.05511-2.0752,0.183105,-0.549316,0.116,-0.036,91.58,0.0523834,0.132462,0,0,0,0,0,40.47,849.293,2080891
-0.0088501,-0.0391235,0.996582-2.2583,0.183105,-1.09863,-0.043,0.011,91.59,0.0532837,0.132401,0,0,0,0,0,40.47,849.313,2080907
0.0123901,0.0178223,1.03955-3.90625,0.12207,-0.12207,0.015,-0.011,91.62,0.0550079,0.132355,0,0,0,0,0,40.47,849.333,2080936
-0.00213623,-0.00463867,1.04895-3.11279,0.12207,0,-0.005,0.004,91.62,0.0550079,0.132355,0,0,0,0,0,40.47,849.355,2080951
-0.000244141,-0.0584717,0.983276-0.427246,0,0.183105,-0.059,0.003,91.61,0.0550995,0.132431,0,0,0,0,0,40.47,849.374,2080981
0.0149536,-0.00860596,0.995728-0.610352,-0.0610352,0.427246,-0.009,-0.012,91.6,0.0551147,0.132462,0,0,0,0,0,40.47,849.394,2080996
0.0252686,0.0010376,1.02966-1.40381,-0.610352,0.671387,0,-0.023,91.59,0.0551147,0.132492,0,0,0,0,0,40.47,849.413,2081011
0.00231934,0.137024,1.029972.44141,0.0610352,0.549316,0.135,-0.003,91.58,0.0552063,0.132492,0,0,0,0,0,40.47,849.433,2081027
0.0057373,-0.0339355,0.9570925.61523,0.0610352,0.305176,-0.038,-0.002,91.57,0.0555115,0.132477,0,0,0,0,0,40.47,849.453,2081057
0.00952148,-0.0656738,1.030092.44141,-0.366211,1.2207,-0.071,-0.005,91.56,0.0555725,0.132477,0,0,0,0,0,40.47,849.473,2081072
-0.0170898,0.0263062,1.05171.2207,-0.12207,-0.183105,0.021,0.019,91.55,0.055603,0.132477,0,0,0,0,0,40.47,849.492,2081087
0.00292969,0.0669556,1.006652.13623,0.427246,-0.183105,0.058,-0.002,91.58,0.0559387,0.132477,0,0,0,0,0,40.47,849.513,2081117
0.0511475,-0.0448608,1.021851.83105,-0.793457,1.34277,-0.055,-0.047,91.57,0.0561676,0.132446,0,0,0,0,0,40.47,849.533,2081132
-0.0209351,0.147034,0.971802-0.915527,0.0610352,0.305176,0.138,0.019,91.56,0.0566864,0.132324,0,0,0,0,0,40.47,849.552,2081162
0.0177612,-0.0288696,1.06854-0.976562,-0.183105,0.671387,-0.039,-0.013,91.55,0.0570679,0.132324,0,0,0,0,0,40.47,849.573,2081177
-0.0344238,0.0401001,1.04816-0.183105,-0.671387,0.12207,0.03,0.036,91.54,0.0574341,0.132339,0,0,0,0,0,40.47,849.593,2081192
0.0293579,0.0372925,0.949585-0.610352,0.0610352,-0.244141,0.027,-0.027,91.55,0.0578613,0.132355,0,0,0,0,0,40.47,849.613,2081207
-0.00866699,-0.0205078,1.06348-1.40381,-0.183105,0.12207,-0.029,0.012,91.53,0.0586853,0.13237,0,0,0,0,0,40.49,849.633,2081237
0.0178833,0.039917,1.00006-1.2207,0.244141,-0.854492,0.031,-0.015,91.55,0.0590973,0.13237,0,0,0,0,0,40.49,849.653,2081252
0.0349121,-0.0141602,1.005-2.2583,0.0610352,-0.12207,-0.022,-0.031,91.55,0.0595093,0.132339,0,0,0,0,0,40.49,849.673,2081267
-0.026062,-0.032959,1.04956-2.2583,1.09863,-0.305176,-0.038,0.029,91.55,0.060257,0.132294,0,0,0,0,0,40.49,849.693,2081297
0.0581055,-0.00732422,0.982727-3.11279,-0.183105,1.0376,-0.013,-0.055,91.54,0.0605927,0.132263,0,0,0,0,0,40.49,849.713,2081312
-0.0231934,-0.0349121,1.08051-2.19727,1.0376,0.305176,-0.038,0.027,91.51,0.0612335,0.132111,0,0,0,0,0,40.49,849.734,2081342
0.00744629,-0.000244141,1.01129-3.35693,-0.488281,1.46484,-0.003,-0.005,91.5,0.0615082,0.132065,0,0,0,0,0,40.49,849.755,2081357
0.0378418,0.00427246,1.01746-2.80762,-0.671387,-0.183105,0.001,-0.035,91.49,0.0617981,0.131973,0,0,0,0,0,40.49,849.773,2081372
0.0106812,-0.00378418,0.997559-3.78418,-0.732422,0.12207,-0.004,-0.009,91.51,0.0622559,0.131897,0,0,0,0,0,40.49,849.793,2081402
0.0386353,0.0132446,1.00525-2.99072,-0.610352,-0.549316,0.012,-0.036,91.51,0.0624847,0.131851,0,0,0,0,0,40.49,849.814,2081417
-0.0343628,-0.0189819,1.07471-2.31934,0.12207,-1.52588,-0.016,0.037,91.53,0.0624847,0.131805,0,0,0,0,0,40.49,849.834,2081432
-0.0127563,-0.00775146,0.995117-3.41797,-0.915527,0.305176,-0.005,0.014,91.53,0.0624847,0.131805,0,0,0,0,0,40.49,849.853,2081447
-0.0195312,-0.0527344,1.07758-2.86865,0.0610352,-1.28174,-0.047,0.024,91.55,0.062561,0.131638,0,0,0,0,0,40.49,849.873,2081477
-0.0192871,0.0186768,0.982483-4.02832,-0.915527,0.488281,0.024,0.021,91.56,0.0625916,0.131561,0,0,0,0,0,40.49,849.893,2081492
-0.0157471,-0.0211792,1.0531-2.86865,0.610352,-0.244141,-0.013,0.019,91.55,0.0627136,0.131241,0,0,0,0,0,40.49,849.913,2081522
0.0505371,-0.0465088,0.9823-5.00488,-2.01416,1.52588,-0.039,-0.046,91.53,0.0627594,0.131042,0,0,0,0,0,40.49,849.932,2081537
0.03125,-0.034668,0.986633-0.366211,-0.366211,0.549316,-0.026,-0.027,91.52,0.0627441,0.130798,0,0,0,0,0,40.49,849.952,2081552
-0.0130615,0.0319824,0.9844972.50244,-0.610352,0.732422,0.04,0.014,91.52,0.0624084,0.130463,0,0,0,0,0,40.49,849.972,2081582
-0.0147095,-0.0212402,1.004882.74658,-0.915527,-0.244141,-0.012,0.018,91.51,0.0622101,0.130371,0,0,0,0,0,40.49,849.992,2081597
0.0734253,0.0232544,1.03369-0.610352,-1.58691,-3.2959,0.03,-0.07,91.54,0.0620422,0.130234,0,0,0,0,0,40.49,850.012,2081612
-0.0189819,-0.0571289,0.953003-2.62451,-2.50244,-2.01416,-0.048,0.023,91.58,0.0618439,0.130066,0,0,0,0,0,40.49,850.035,2081627
-0.0211182,-0.0322876,0.981445-1.40381,-1.15967,-1.95312,-0.022,0.026,91.61,0.0613861,0.129776,0,0,0,0,0,40.49,850.054,2081657
0.0239258,0.0513306,0.8563230.732422,-3.11279,-1.83105,0.059,-0.022,91.64,0.0611725,0.129654,0,0,0,0,0,40.49,850.075,2081672
0.147583,0.0358276,1.123840.305176,-1.28174,0.488281,0.043,-0.143,91.63,0.0610352,0.129425,0,0,0,0,0,40.49,850.093,2081687
0.0284424,0.0474854,0.9408574.21143,-0.549316,0.915527,0.055,-0.025,91.61,0.0604095,0.128952,0,0,0,0,0,40.49,850.112,2081717
0.0857544,-0.0785522,1.012760.610352,0.854492,2.56348,-0.072,-0.078,91.57,0.0600433,0.128693,0,0,0,0,0,40.49,850.132,2081732
0.0213013,0.0200806,1.085452.56348,0.244141,1.83105,0.028,-0.015,91.54,0.0596313,0.128357,0,0,0,0,0,40.49,850.153,2081747
0.100281,0.0255127,0.8859860.671387,0,2.31934,0.029,-0.096,91.49,0.0588989,0.127701,0,0,0,0,0,40.49,850.175,2081777
-0.00878906,-0.0311279,1.094970.915527,0.488281,0.793457,-0.022,0.015,91.46,0.0585327,0.127319,0,0,0,0,0,40.49,850.194,2081792
0.103394,0.00665283,0.9382930.549316,-1.2207,1.34277,0.01,-0.099,91.44,0.0581665,0.126724,0,0,0,0,0,40.49,850.215,2081822
-0.0114136,-0.0203247,1.029111.89209,-0.671387,0.12207,-0.013,0.017,91.44,0.0581665,0.126389,0,0,0,0,0,40.49,850.233,2081837
-0.107178,-0.03479,1.065061.64795,-0.0610352,-0.183105,-0.025,0.113,91.44,0.058136,0.126129,0,0,0,0,0,40.49,850.253,2081852
0.0993042,-0.0133057,0.97760.793457,-1.64795,1.28174,-0.01,-0.094,91.44,0.0580902,0.125885,0,0,0,0,0,40.49,850.272,2081867
-0.113953,-0.0322266,1.032230.854492,0.0610352,-0.488281,-0.023,0.12,91.43,0.0579529,0.12532,0,0,0,0,0,40.49,850.293,2081897
0.113586,-0.0180664,0.984985-0.366211,-1.83105,1.58691,-0.015,-0.107,91.41,0.0578461,0.125076,0,0,0,0,0,40.49,850.313,2081912
-0.0966797,-0.0457153,1.012630.305176,0.732422,0.183105,-0.038,0.104,91.39,0.057663,0.124481,0,0,0,0,0,40.49,850.333,2081942
0.115906,-0.0161133,0.973877-0.732422,-0.671387,1.89209,-0.013,-0.109,91.37,0.0575409,0.124191,0,0,0,0,0,40.49,850.353,2081957
0.0337524,0.0123291,1.028930.671387,0.183105,1.70898,0.016,-0.026,91.35,0.0575409,0.123825,0,0,0,0,0,40.49,850.373,2081972
-0.119141,-0.0475464,1.026980.549316,1.09863,-0.12207,-0.039,0.126,91.34,0.0575256,0.12352,0,0,0,0,0,40.49,850.393,2081988
0.0409546,0.0310059,1.012820.854492,-0.244141,0.915527,0.034,-0.035,91.3,0.0574646,0.122879,0,0,0,0,0,40.49,850.412,2082017
-0.103271,-0.046814,1.032230.854492,0.976562,0.305176,-0.04,0.11,91.3,0.0574341,0.122574,0,0,0,0,0,40.49,850.436,2082032
0.0203857,-0.0284424,1.00818-0.305176,-0.305176,1.0376,-0.024,-0.013,91.26,0.0572815,0.121964,0,0,0,0,0,40.49,850.457,2082062
-0.124084,-0.0195312,1.05804-0.12207,0.610352,-0.366211,-0.011,0.13,91.26,0.0571747,0.121689,0,0,0,0,0,40.49,850.473,2082077
0.102234,-0.0108032,0.969421-1.15967,-1.70898,1.09863,-0.008,-0.097,91.25,0.0570526,0.12146,0,0,0,0,0,40.49,850.493,2082092
0.0368042,-0.00512695,0.984558-0.732422,-0.671387,0.0610352,0,-0.03,91.25,0.0570526,0.121124,0,0,0,0,0,40.49,850.512,2082108
0.0767212,0.00109863,0.987549-1.2207,-1.09863,0.854492,0.004,-0.071,91.25,0.0570526,0.120605,0,0,0,0,0,40.49,850.533,2082137
0.0500488,0.0170288,1.00824-0.244141,-0.427246,-0.183105,0.021,-0.044,91.25,0.0570831,0.12027,0,0,0,0,0,40.49,850.554,2082152
-0.0778198,-0.029541,1.032410.366211,1.09863,-0.366211,-0.022,0.084,91.25,0.0570984,0.119949,0,0,0,0,0,40.49,850.573,2082168
0.0953369,0.00189209,1.03949-0.854492,-0.183105,1.28174,0.006,-0.088,91.22,0.0570526,0.119354,0,0,0,0,0,40.49,850.593,2082197
-0.0946655,-0.0169678,0.9981080.0610352,1.2207,-0.305176,-0.009,0.101,91.22,0.0570221,0.119019,0,0,0,0,0,40.49,850.613,2082212
0.0181274,-0.0303955,1.00476-0.549316,-0.244141,2.44141,-0.024,-0.012,91.2,0.0569611,0.118744,0,0,0,0,0,40.49,850.634,2082228
-0.114319,-0.0454102,1.02362-1.2207,1.46484,0.12207,-0.036,0.121,91.17,0.0567474,0.118088,0,0,0,0,0,40.48,850.653,2082257
0.0231323,0.0211792,0.957825-2.01416,-1.0376,1.15967,0.027,-0.018,91.15,0.0566254,0.117844,0,0,0,0,0,40.48,850.673,2082272
0.0899048,-0.034729,1.0354-1.15967,0.12207,-0.0610352,-0.029,-0.083,91.14,0.0565033,0.117523,0,0,0,0,0,40.48,850.694,2082288
0.0424805,0.00976562,0.990356-2.0752,-0.732422,-0.427246,0.017,-0.038,91.17,0.0561676,0.116989,0,0,0,0,0,40.48,850.713,2082317
0.0979614,-0.0103149,1.03619-1.89209,-0.366211,-0.976562,-0.003,-0.091,91.17,0.0561676,0.116669,0,0,0,0,0,40.48,850.735,2082332
-0.109192,-0.0247192,1.01904-1.40381,0.976562,-1.52588,-0.013,0.115,91.2,0.0561676,0.116364,0,0,0,0,0,40.48,850.753,2082348
0.0944824,-0.00811768,1.03534-2.01416,-0.427246,-0.366211,0,-0.088,91.2,0.0561066,0.115814,0,0,0,0,0,40.48,850.773,2082377
-0.100281,-0.0328979,1.04193-2.0752,1.58691,0.244141,-0.019,0.107,91.2,0.0560455,0.115509,0,0,0,0,0,40.48,850.793,2082392
0.0661011,-0.0279541,1.00519-3.35693,-0.244141,1.89209,-0.017,-0.06,91.19,0.0560455,0.11525,0,0,0,0,0,40.48,850.813,2082408
-0.105774,-0.00256348,1.03351-2.80762,1.77002,0.305176,0.013,0.112,91.15,0.0560455,0.114517,0,0,0,0,0,40.48,850.834,2082437
0.0466309,-0.0165405,0.986816-3.96728,-0.549316,1.83105,-0.003,-0.041,91.12,0.0560455,0.114212,0,0,0,0,0,40.48,850.853,2082452
0.0505371,-0.0484619,1.00177-1.58691,-0.610352,-0.488281,-0.034,-0.043,91.11,0.0560303,0.113846,0,0,0,0,0,40.48,850.873,2082468
0.0775757,-0.0422974,1.03247-0.12207,0.0610352,0.12207,-0.027,-0.072,91.13,0.0558929,0.113388,0,0,0,0,0,40.48,850.898,2082498
0.0806274,-0.0802002,1.02081-1.28174,-0.671387,-0.366211,-0.065,-0.073,91.14,0.0557404,0.113113,0,0,0,0,0,40.48,850.913,2082513
-0.101685,0.108459,0.9328611.28174,0.366211,-1.09863,0.125,0.104,91.15,0.0556335,0.112839,0,0,0,0,0,40.48,850.933,2082528
0.0524902,0.0539551,1.002930.183105,-1.58691,-0.12207,0.069,-0.047,91.14,0.0557404,0.112122,0,0,0,0,0,40.48,850.953,2082558
-0.120239,-0.0601807,1.02094-0.183105,0.854492,-0.0610352,-0.04,0.127,91.15,0.0558472,0.111755,0,0,0,0,0,40.48,850.973,2082573
0.0314941,0.18219,0.990541.64795,0.305176,1.09863,0.199,-0.028,91.1,0.056015,0.110992,0,0,0,0,0,40.48,850.994,2082603
-0.0581055,-0.0803833,1.03912-1.70898,-0.0610352,0.244141,-0.061,0.065,91.1,0.0562286,0.110611,0,0,0,0,0,40.48,851.013,2082618
0.0675049,-0.133606,1.024351.70898,0.427246,1.09863,-0.117,-0.059,91.08,0.0563354,0.110229,0,0,0,0,0,40.48,851.033,2082633
-0.074646,-0.254211,1.243472.56348,2.80762,-0.183105,-0.231,0.087,91.08,0.0561829,0.109863,0,0,0,0,0,40.48,851.052,2082648
0.102295,-0.0980225,1.02924-0.366211,-1.2207,-0.183105,-0.082,-0.095,91.11,0.0553589,0.109558,0,0,0,0,0,40.48,851.072,2082678
-0.072998,-0.031189,0.9942630.732422,0.0610352,-2.74658,-0.012,0.079,91.15,0.0548248,0.109421,0,0,0,0,0,40.48,851.093,2082693
-0.152527,-0.0664062,1.0094-0.976562,-0.183105,-2.74658,-0.046,0.158,91.19,0.054245,0.109451,0,0,0,0,0,40.48,851.112,2082708
-0.0105591,0.081604,1.011840,-1.70898,-1.64795,0.099,0.015,91.24,0.0531311,0.109451,0,0,0,0,0,40.48,851.134,2082738
-0.17041,-0.098938,0.963989-0.549316,-0.366211,-0.671387,-0.078,0.178,91.27,0.0526123,0.109543,0,0,0,0,0,40.48,851.152,2082753
0.120605,-0.0559082,1.025211.70898,-1.2207,1.34277,-0.04,-0.113,91.26,0.0520172,0.109665,0,0,0,0,0,40.48,851.173,2082768
-0.0788574,0.0621338,0.962219-0.366211,-1.77002,0.488281,0.08,0.083,91.23,0.0511169,0.109741,0,0,0,0,0,40.48,851.193,2082798
0.14679,-0.00567627,1.01685-1.09863,-1.09863,1.58691,0.009,-0.139,91.2,0.0508118,0.109756,0,0,0,0,0,40.48,851.212,2082813
0.0335693,-0.0491943,1.12164-0.671387,1.28174,0.488281,-0.03,-0.023,91.18,0.0504761,0.109665,0,0,0,0,0,40.48,851.232,2082828
0.111877,-0.0325317,0.995178-1.58691,-0.0610352,1.70898,-0.016,-0.104,91.14,0.0498352,0.109573,0,0,0,0,0,40.48,851.252,2082858
-0.0374756,0.0442505,1.035710.366211,1.28174,0.0610352,0.064,0.044,91.13,0.0495453,0.109467,0,0,0,0,0,40.48,851.273,2082873
-0.0644531,-0.0527344,1.06281-1.58691,-0.427246,1.15967,-0.031,0.072,91.13,0.0492706,0.109451,0,0,0,0,0,40.48,851.293,2082888
-0.00714111,0.0803223,1.034120.488281,-0.671387,0.12207,0.099,0.013,91.1,0.0488129,0.109406,0,0,0,0,0,40.48,851.313,2082918
-0.0296631,-0.144836,1.03802-3.2959,-1.46484,2.13623,-0.125,0.039,91.09,0.0485992,0.109406,0,0,0,0,0,40.48,851.334,2082933
0.0615845,0.024353,0.958008-0.549316,-1.83105,2.38037,0.041,-0.054,91.04,0.0483398,0.10939,0,0,0,0,0,40.48,851.354,2082948
-0.0333252,-0.117615,1.059940.366211,0.427246,2.13623,-0.097,0.043,91.01,0.0476379,0.109467,0,0,0,0,0,40.48,851.373,2082978
0.0965576,0.00714111,0.9774170.488281,-1.09863,1.58691,0.024,-0.088,90.99,0.0471802,0.109528,0,0,0,0,0,40.48,851.393,2082993
-0.0700684,0.0401001,1.075621.77002,1.52588,0.305176,0.061,0.078,90.98,0.0467834,0.109573,0,0,0,0,0,40.48,851.413,2083008
0.126221,0.0541382,0.9566650.244141,-1.64795,1.83105,0.07,-0.118,90.92,0.0462341,0.109558,0,0,0,0,0,40.48,851.433,2083038
-0.0966797,0.0252686,1.08868-0.305176,2.2583,-0.183105,0.047,0.106,90.91,0.0460815,0.109482,0,0,0,0,0,40.48,851.452,2083053
0.0539551,-0.0292969,0.939941-2.01416,-0.915527,1.34277,-0.012,-0.045,90.9,0.0459595,0.109451,0,0,0,0,0,40.48,851.472,2083068
-0.114258,-0.0802002,1.095090,2.86865,0.671387,-0.058,0.124,90.85,0.0458984,0.109192,0,0,0,0,0,40.48,851.493,2083098
0.0108643,-0.0668335,1.00635-1.09863,0.732422,2.92969,-0.048,-0.002,90.82,0.0458374,0.109161,0,0,0,0,0,40.48,851.513,2083113
0.022583,-0.0448608,0.987610.793457,0.427246,2.38037,-0.026,-0.013,90.79,0.0457001,0.109161,0,0,0,0,0,40.48,851.533,2083128
0.151611,0.0786133,0.943848-3.11279,-2.92969,1.15967,0.094,-0.146,90.78,0.0454712,0.109329,0,0,0,0,0,40.48,851.552,2083158
0.0404663,0.0426636,0.940002-0.915527,-1.83105,-0.12207,0.06,-0.033,90.76,0.0454865,0.109283,0,0,0,0,0,40.48,851.574,2083173
0.0204468,-0.0234985,1.01593-1.83105,-0.488281,0.366211,-0.004,-0.012,90.81,0.0455475,0.109329,0,0,0,0,0,40.48,851.597,2083203
0.0949097,0.164673,0.892578-0.915527,-2.0752,0.12207,0.18,-0.089,90.8,0.0456696,0.109299,0,0,0,0,0,40.48,851.613,2083218
-0.0229492,0.152588,0.99823-0.183105,-0.793457,-2.19727,0.172,0.028,90.82,0.0460205,0.109238,0,0,0,0,0,40.48,851.635,2083233
0.086853,0.017395,0.962708-1.52588,-0.732422,0.793457,0.034,-0.078,90.81,0.046875,0.10907,0,0,0,0,0,40.49,851.657,2083263
-0.0996094,-0.0274048,1.045471.52588,1.0376,0.183105,-0.005,0.108,90.81,0.0473175,0.108978,0,0,0,0,0,40.49,851.676,2083278
0.129944,-0.0580444,1.160640.427246,0.183105,1.70898,-0.037,-0.119,90.78,0.0477295,0.108871,0,0,0,0,0,40.49,851.695,2083293
-0.103455,-0.121826,1.0376-1.40381,1.0376,1.58691,-0.099,0.113,90.76,0.0484314,0.108597,0,0,0,0,0,40.49,851.728,2083323
-0.12793,-0.0743408,1.021240.488281,2.38037,0.732422,-0.052,0.138,90.72,0.0487213,0.108429,0,0,0,0,0,40.49,851.753,2083353
0.0249634,0.105713,0.960327-0.793457,-1.15967,0.976562,0.124,-0.018,90.72,0.0488739,0.108444,0,0,0,0,0,40.49,851.773,2083369
-0.170654,0.00793457,0.9798582.50244,1.28174,-0.854492,0.03,0.179,90.73,0.0493317,0.108307,0,0,0,0,0,40.49,851.797,2083398
0.184631,-0.13562,1.11487-0.671387,-0.0610352,-0.427246,-0.115,-0.173,90.75,0.0495758,0.108459,0,0,0,0,0,40.49,851.829,2083429
-0.117371,-0.206665,1.08624-0.976562,1.70898,-0.12207,-0.183,0.129,90.76,0.0494232,0.108475,0,0,0,0,0,40.49,851.84,2083443
-0.081665,-0.0576782,0.9462281.34277,1.64795,2.13623,-0.037,0.089,90.76,0.049118,0.108627,0,0,0,0,0,40.49,851.853,2083458
0.127319,-0.0571899,0.9949341.52588,-0.183105,1.09863,-0.038,-0.117,90.74,0.0487518,0.10878,0,0,0,0,0,40.49,851.873,2083473
-0.116394,0.130066,0.9891972.80762,1.77002,0.488281,0.152,0.123,90.73,0.0484772,0.108917,0,0,0,0,0,40.49,851.893,2083489
0.106934,-0.0127563,1.00275-0.305176,-0.549316,-0.549316,0.006,-0.097,90.71,0.0482788,0.109238,0,0,0,0,0,40.49,851.92,2083518
-0.109253,-0.0284424,0.995178-0.549316,1.0376,-0.549316,-0.006,0.117,90.72,0.0482788,0.10936,0,0,0,0,0,40.49,851.933,2083533
0.0940552,-0.00177002,0.965271-0.854492,-1.15967,-1.46484,0.016,-0.085,90.72,0.0482788,0.109619,0,0,0,0,0,40.49,851.959,2083563
-0.0872192,0.029541,1.044920.183105,-0.0610352,-1.15967,0.052,0.095,90.74,0.0483246,0.109726,0,0,0,0,0,40.49,851.973,2083578
0.0895996,0.036377,1.01184-0.976562,-2.31934,0.732422,0.056,-0.082,90.73,0.0484467,0.109833,0,0,0,0,0,40.49,851.996,2083593
0.0115967,-0.00219727,0.996155-0.183105,-0.427246,-1.2207,0.018,-0.002,90.73,0.0486145,0.109879,0,0,0,0,0,40.49,852.013,2083609
0.138977,0.0656128,0.981812-1.77002,-3.72314,1.89209,0.084,-0.131,90.71,0.0492706,0.10997,0,0,0,0,0,40.49,852.033,2083638
-0.0949707,-0.131775,1.028380.366211,1.77002,0.793457,-0.108,0.106,90.69,0.0496368,0.109955,0,0,0,0,0,40.49,852.053,2083653
-0.0735474,-0.103271,1.039920.305176,0.549316,2.13623,-0.08,0.083,90.67,0.049881,0.110092,0,0,0,0,0,40.49,852.074,2083669
-0.146545,-0.0910034,0.9991463.78418,3.17383,-0.732422,-0.068,0.157,90.62,0.0499268,0.110184,0,0,0,0,0,40.49,852.094,2083698
-0.0776367,-0.272583,1.104063.35693,1.40381,1.34277,-0.249,0.09,90.62,0.0496674,0.110397,0,0,0,0,0,40.49,852.113,2083713
0.172974,-0.0799561,1.07080.915527,-0.854492,0.488281,-0.059,-0.161,90.62,0.0491943,0.110565,0,0,0,0,0,40.49,852.133,2083729
-0.0110474,-0.0336914,1.01581-0.793457,-1.09863,-1.46484,-0.012,0.02,90.68,0.048111,0.111038,0,0,0,0,0,40.49,852.153,2083758
0.141113,0.0275879,1.01178-0.610352,-2.0752,-1.09863,0.047,-0.131,90.7,0.0475616,0.111252,0,0,0,0,0,40.51,852.174,2083773
-0.155701,-0.139893,1.106450.0610352,1.40381,-2.86865,-0.114,0.168,90.74,0.0469818,0.111496,0,0,0,0,0,40.51,852.194,2083789
0.104431,-0.0936279,1.041380.183105,0,0.610352,-0.072,-0.091,90.76,0.0453491,0.112152,0,0,0,0,0,40.51,852.213,2083818
-0.101013,0.00439453,1.021791.70898,1.77002,-0.549316,0.027,0.111,90.77,0.0444336,0.112473,0,0,0,0,0,40.51,852.233,2083833
0.0313721,-0.0446167,1.024350.305176,-0.244141,2.13623,-0.022,-0.02,90.75,0.0435181,0.112839,0,0,0,0,0,40.51,852.253,2083849
-0.090271,-0.105103,1.03766-0.366211,1.52588,-0.0610352,-0.08,0.102,90.72,0.0415649,0.113571,0,0,0,0,0,40.51,852.275,2083879
0.0950928,-0.137024,1.07855-0.976562,-0.12207,2.01416,-0.114,-0.082,90.7,0.0404205,0.113968,0,0,0,0,0,40.51,852.293,2083894
-0.0361938,-0.132996,1.020870.549316,2.38037,-0.244141,-0.109,0.049,90.69,0.0391083,0.114349,0,0,0,0,0,40.51,852.313,2083909
0.124268,-0.0713501,10.488281,-1.34277,0.183105,-0.05,-0.113,90.71,0.0363922,0.11525,0,0,0,0,0,40.51,852.333,2083939
0.00366211,0.163574,0.921875-0.549316,-0.976562,-2.19727,0.184,0.004,90.72,0.0351105,0.115616,0,0,0,0,0,40.51,852.353,2083954
0.16925,-0.0496216,1.00671-2.38037,-3.479,0.671387,-0.028,-0.158,90.72,0.0328827,0.116241,0,0,0,0,0,40.51,852.378,2083984
-0.09729,-0.0809326,1.046390.366211,1.46484,-0.976562,-0.055,0.109,90.73,0.031723,0.116455,0,0,0,0,0,40.51,852.394,2083999
-0.00158691,0.0163574,0.94342-1.2207,-1.0376,1.46484,0.038,0.01,90.72,0.0305481,0.116776,0,0,0,0,0,40.51,852.412,2084014
0.124329,0.0238037,0.968079-1.77002,-2.80762,1.15967,0.045,-0.113,90.7,0.0294189,0.117004,0,0,0,0,0,40.51,852.435,2084029
0.00933838,-0.0147705,1.002810.305176,-0.183105,2.2583,0.008,0.001,90.67,0.0283356,0.117508,0,0,0,0,0,40.51,852.452,2084059
0.0744019,-0.141724,1.062872.01416,0.488281,1.64795,-0.117,-0.06,90.63,0.0282745,0.117737,0,0,0,0,0,40.51,852.473,2084074
-0.11615,-0.245117,1.100711.83105,3.72314,0.854492,-0.218,0.131,90.61,0.0279694,0.118027,0,0,0,0,0,40.51,852.492,2084089
0.0690308,-0.0847168,1.049621.70898,0.183105,2.2583,-0.061,-0.056,90.53,0.0270538,0.118668,0,0,0,0,0,40.51,852.512,2084119
-0.101746,-0.177429,1.073791.34277,3.05176,1.70898,-0.153,0.114,90.51,0.0264282,0.118988,0,0,0,0,0,40.51,852.532,2084134
0.0565796,-0.0159302,0.9950561.09863,0.183105,4.08936,0.005,-0.046,90.46,0.0257111,0.11937,0,0,0,0,0,40.51,852.552,2084149
-0.0535889,-0.171204,1.127691.83105,2.68555,2.0752,-0.146,0.065,90.4,0.0256042,0.12027,0,0,0,0,0,40.51,852.573,2084179
0.118774,-0.0545654,0.969360.671387,-0.793457,2.99072,-0.034,-0.109,90.35,0.0253754,0.120728,0,0,0,0,0,40.51,852.592,2084194
-0.072937,-0.0321655,1.001651.15967,0.976562,1.0376,-0.01,0.083,90.34,0.025116,0.121185,0,0,0,0,0,40.51,852.612,2084209
0.169495,-0.00201416,0.9918820.732422,-1.77002,1.77002,0.017,-0.16,90.3,0.025116,0.122162,0,0,0,0,0,40.51,852.632,2084239
-0.0754395,0.0333862,0.9702761.46484,0.732422,-0.183105,0.052,0.084,90.29,0.0251617,0.122543,0,0,0,0,0,40.51,852.652,2084254
-0.0252075,-0.0397949,0.9888311.15967,0.549316,0.793457,-0.02,0.034,90.29,0.0252228,0.123016,0,0,0,0,0,40.51,852.673,2084269
-0.0864258,0.0379639,0.9954831.46484,1.52588,0.244141,0.056,0.095,90.25,0.0254059,0.123749,0,0,0,0,0,40.47,852.693,2084299
-0.0176392,-0.0549927,1.02490.427246,0.793457,2.2583,-0.036,0.026,90.23,0.025528,0.124161,0,0,0,0,0,40.47,852.713,2084314
-0.0704956,-0.0492554,1.0257-0.976562,1.77002,1.2207,-0.03,0.079,90.16,0.0258026,0.124893,0,0,0,0,0,40.47,852.741,2084344
0.012207,-0.00402832,1.03442-1.46484,0.366211,3.11279,0.015,-0.004,90.12,0.0259247,0.125305,0,0,0,0,0,40.47,852.752,2084359
0.0369873,0.139038,0.942078-0.183105,1.15967,0.610352,0.157,-0.029,90.09,0.0261688,0.125687,0,0,0,0,0,40.47,852.773,2084374
-0.036438,-0.0579224,1.08472-0.732422,0.793457,0.732422,-0.037,0.044,90.09,0.0264893,0.126083,0,0,0,0,0,40.47,852.793,2084389
-0.0184326,0.0164185,0.970581-0.549316,1.40381,-0.671387,0.034,0.026,90.07,0.0269623,0.126755,0,0,0,0,0,40.47,852.813,2084419
0.0548706,0.0859375,1.013981.15967,-0.854492,-0.610352,0.104,-0.048,90.09,0.0272827,0.12706,0,0,0,0,0,40.47,852.833,2084434
0.0296021,-0.0743408,1.028022.62451,0.915527,0.12207,-0.055,-0.022,90.08,0.0276337,0.127304,0,0,0,0,0,40.47,852.853,2084449
-0.024292,-0.0678711,1.117250.12207,0.915527,0.976562,-0.047,0.031,90.08,0.0283508,0.12793,0,0,0,0,0,40.47,852.873,2084479
0.0810547,-0.0839844,1.04285-0.610352,1.28174,1.28174,-0.064,-0.074,90.05,0.0286407,0.12825,0,0,0,0,0,40.47,852.895,2084494
-0.0741577,0.0252686,0.9466550.305176,0.793457,-0.0610352,0.042,0.08,90.05,0.0289154,0.128586,0,0,0,0,0,40.47,852.913,2084509
0.0119019,0.245361,0.8659061.2207,-0.427246,-0.488281,0.261,-0.006,90.05,0.0296631,0.128952,0,0,0,0,0,40.47,852.932,2084539
-0.108337,-0.119934,1.029912.50244,0.549316,-1.83105,-0.1,0.114,90.08,0.0302277,0.129013,0,0,0,0,0,40.47,852.953,2084554
0.0385742,-0.165405,1.093020.732422,0.793457,0.610352,-0.146,-0.032,90.07,0.0306244,0.12915,0,0,0,0,0,40.47,852.973,2084569
-0.0413818,-0.0183716,1.052861.15967,0.305176,-0.549316,0,0.047,90.09,0.0313873,0.129272,0,0,0,0,0,40.47,852.993,2084599
0.0675659,-0.0336914,1.010070.305176,-1.15967,0.549316,-0.016,-0.062,90.08,0.0313873,0.129318,0,0,0,0,0,40.47,853.013,2084614
0.00244141,0.0450439,0.9744260.732422,0.0610352,-0.915527,0.061,0.003,90.09,0.0314178,0.129333,0,0,0,0,0,40.47,853.032,2084629
0.117737,-0.00592041,0.9802860.244141,-0.976562,1.58691,0.009,-0.112,90.07,0.0315704,0.129364,0,0,0,0,0,40.47,853.054,2084659
-0.0379028,0.00805664,0.9982910.427246,0.915527,-0.12207,0.024,0.043,90.06,0.031662,0.129303,0,0,0,0,0,40.47,853.073,2084674
-0.0217896,-0.0200806,1.051940.0610352,0.305176,2.01416,-0.003,0.027,90.04,0.0317841,0.129303,0,0,0,0,0,40.47,853.093,2084689
-0.0517578,0.0235596,1.02026-0.549316,0.854492,0.488281,0.04,0.057,90,0.0319672,0.129227,0,0,0,0,0,40.47,853.113,2084719
-0.0189209,-0.0724487,1.02606-1.70898,-0.915527,1.2207,-0.055,0.023,89.98,0.0320435,0.129242,0,0,0,0,0,40.47,853.133,2084734
0.0304565,0.0106201,0.953125-1.34277,-1.28174,2.31934,0.027,-0.025,89.96,0.0321045,0.129257,0,0,0,0,0,40.47,853.153,2084750
-0.0686035,-0.0247803,1.004091.64795,-0.671387,1.89209,-0.007,0.073,89.92,0.032196,0.12944,0,0,0,0,0,40.47,853.174,2084779
0.0164795,-0.18042,1.125921.46484,0.549316,1.95312,-0.16,-0.01,89.88,0.0320892,0.129623,0,0,0,0,0,40.49,853.193,2084794
-0.0319214,-0.170532,1.116640.976562,1.40381,2.19727,-0.151,0.037,89.85,0.0317535,0.129822,0,0,0,0,0,40.49,853.214,2084810
0.0546875,0.0733032,0.9869381.46484,-0.549316,1.70898,0.09,-0.048,89.79,0.0307922,0.130142,0,0,0,0,0,40.49,853.233,2084839
-0.0164795,-0.0392456,1.07080.0610352,1.46484,1.95312,-0.021,0.022,89.77,0.030365,0.130264,0,0,0,0,0,40.49,853.253,2084854
0.0988159,0.146606,0.907776-0.610352,-2.13623,1.95312,0.163,-0.092,89.73,0.0300293,0.130325,0,0,0,0,0,40.49,853.273,2084870
0.052124,0.19989,0.851624-3.41797,-1.40381,0.915527,0.214,-0.046,89.71,0.0297394,0.130295,0,0,0,0,0,40.49,853.293,2084899
0.00421143,-0.138672,1.001460.976562,-0.305176,0.244141,-0.12,0,89.69,0.0297394,0.130234,0,0,0,0,0,40.49,853.315,2084914
-0.0263672,-0.085022,1.031430.671387,-0.305176,0.671387,-0.067,0.03,89.67,0.0297241,0.130081,0,0,0,0,0,40.49,853.336,2084944
0.0197754,0.0211792,0.9683840.0610352,0.366211,0.305176,0.037,-0.014,89.66,0.0296936,0.130005,0,0,0,0,0,40.49,853.354,2084959
-0.0177002,-0.0178833,0.9793090.732422,-0.610352,0.305176,-0.001,0.022,89.66,0.0296936,0.129944,0,0,0,0,0,40.49,853.373,2084974
-0.0327148,-0.0751343,1.09039-0.427246,-0.0610352,0.793457,-0.057,0.036,89.65,0.0296478,0.129913,0,0,0,0,0,40.49,853.393,2084990
