accel_x,accel_y,accel_z,gyro_x,gyro_y,gyro_z,x,y,z,left_encoder_rate,right_encoder_rate,left_input,right_input,fpga time,navx time
     0,0,0,0,0,0,0,0,0,0,0,-0.0078125,0.0078125,101.651,0
     0,0,0,0,0,0,0,0,0,0,0,-0.0078125,0.0078125,101.67,0
     0,0,0,0,0,0,0,0,0,0,0,-0.0078125,0.0078125,101.689,0
     0,0,0,0,0,0,0,0,0,0,0,-0.0078125,0.0078125,101.71,0
     0,0,0,0,0,0,0,0,0,0,0,-0.0078125,0.0078125,101.73,0
     0,0,0,0,0,0,0,0,0,0,0,-0.0078125,0.0078125,101.75,0
     0,0,0,0,0,0,0,0,0,0,0,-0.0078125,0.0078125,101.77,0
     0,0,0,0,0,0,0,0,0,0,0,-0.0078125,0.0078125,101.79,0
     0,0,0,0,0,0,0,0,0,0,0,-0.0078125,0.0078125,101.811,0
     0,0,0,0,0,0,0,0,0,0,0,-0.0078125,0.0078125,101.829,0
     0,0,0,0,0,0,0,0,0,0,0,-0.0078125,0.0078125,101.849,0
     0,0,0,0,0,0,0,0,0,0,0,-0.0078125,0.0078125,101.869,0
     0,0,0,0,0,0,0,0,0,0,0,-0.0078125,0.0078125,101.889,0
     0,0,0,0,0,0,0,0,0,0,0,-0.0078125,0.0078125,101.909,0
     0,0,0,0,0,0,0,0,0,0,0,-0.0078125,0.0078125,101.929,0
     0,0,0,0,0,0,0,0,0,0,0,-0.0078125,0.0078125,101.95,0
     0,0,0,0,0,0,0,0,0,0,0,-0.0078125,0.0078125,101.97,0
     0,0,0,0,0,0,0,0,0,0,0,-0.0078125,0.0078125,101.991,0
     0,0,0,0,0,0,0,0,0,0,0,-0.0078125,0.0078125,102.01,0
     0,0,0,0,0,0,0,0,0,0,0,-0.0078125,0.0078125,102.03,0
     0,0,0,0,0,0,0,0,0,0,0,-0.0078125,0.0078125,102.05,0
     0,0,0,0,0,0,0,0,0,0,0,-0.0078125,0.0078125,102.07,0
     0,0,0,0,0,0,0,0,0,0,0,-0.0078125,0.0078125,102.09,0
     0,0,0,0,0,0,0,0,0,0,0,-0.0078125,0.0078125,102.11,0
     0,0,0,0,0,0,0,0,0,0,0,-0.0078125,0.0078125,102.129,0
     0,0,0,0,0,0,0,0,0,0,0,-0.0078125,0.0078125,102.149,0
     0,0,0,0,0,0,0,0,0,0,0,-0.0078125,0.0078125,102.17,0
     0,0,0,0,0,0,0,0,0,0,0,-0.0078125,0.0078125,102.19,0
     0,0,0,0,0,0,0,0,0,0,0,-0.0078125,0.0078125,102.21,0
     0,0,0,0,0,0,0,0,0,0,0,-0.0078125,0.0078125,102.23,0
     0,0,0,0,0,0,0,0,0,0,0,-0.0078125,0.0078125,102.25,0
     0,0,0,0,0,0,0,0,0,0,0,-0.0078125,0.0078125,102.27,0
     0,0,0,0,0,0,0,0,0,0,0,-0.0078125,0.0078125,102.291,0
     0,0,0,0,0,0,0,0,0,0,0,-0.0078125,0.0078125,102.31,0
     0,0,0,0,0,0,0,0,0,0,0,-0.0078125,0.0078125,102.342,0
     0,0,0,0,0,0,0,0,0,0,0,-0.0078125,0.0078125,102.353,0
     0,0,0,0,0,0,0,0,0,0,0,-0.0078125,0.0078125,102.369,0
     0,0,0,0,0,0,0,0,0,0,0,-0.0078125,0.0078125,102.389,0
     0,0,0,0,0,0,0,0,0,0,0,-0.0078125,0.0078125,102.41,0
     0,0,0,0,0,0,0,0,0,0,0,-0.0078125,0.0078125,102.429,0
     0,0,0,0,0,0,0,0,0,0,0,-0.0078125,0.0078125,102.449,0
     0,0,0,0,0,0,0,0,0,0,0,-0.0078125,0.0078125,102.469,0
     0,0,0,0,0,0,0,0,0,0,0,-0.0078125,0.0078125,102.489,0
     0,0,0,0,0,0,0,0,0,0,0,-0.0078125,0.0078125,102.51,0
     0,0,0,0,0,0,0,0,0,0,0,-0.0078125,0.0078125,102.53,0
     0,0,0,0,0,0,0,0,0,0,0,-0.0078125,0.0078125,102.55,0
     0,0,0,0,0,0,0,0,0,0,0,-0.0078125,0.0078125,102.57,0
     0,0,0,0,0,0,0,0,0,0,0,-0.0078125,0.0078125,102.59,0
     0,0,0,0,0,0,0,0,0,0,0,-0.0078125,0.0078125,102.609,0
     0,0,0,0,0,0,0,0,0,0,0,-0.0078125,0.0078125,102.629,0
     0,0,0,0,0,0,0,0,0,0,0,-0.0078125,0.0078125,102.649,0
     0,0,0,0,0,0,0,0,0,0,0,-0.0078125,0.0078125,102.669,0
     0,0,0,0,0,0,0,0,0,0,0,-0.0078125,0.0078125,102.69,0
     0,0,0,0,0,0,0,0,0,0,0,-0.0078125,0.0078125,102.709,0
     0,0,0,0,0,0,0,0,0,0,0,-0.0078125,0.0078125,102.729,0
     0,0,0,0,0,0,0,0,0,0,0,-0.0078125,0.0078125,102.75,0
     0,0,0,0,0,0,0,0,0,0,0,-0.0078125,0.0078125,102.772,0
     0,0,0,0,0,0,0,0,0,0,0,-0.0078125,0.0078125,102.79,0
     0,0,0,0,0,0,0,0,0,0,0,-0.0078125,0.0078125,102.81,0
     0,0,0,0,0,0,0,0,0,0,0,-0.0078125,0.0078125,102.83,0
     0,0,0,0,0,0,0,0,0,0,0,-0.0078125,0.0078125,102.85,0
     0,0,0,0,0,0,0,0,0,0,0,-0.0078125,0.0078125,102.869,0
     0,0,0,0,0,0,0,0,0,0,0,-0.0078125,0.0078125,102.891,0
     0,0,0,0,0,0,0,0,0,0,0,-0.0078125,0.0078125,102.909,0
     0,0,0,0,0,0,0,0,0,0,0,-0.0078125,0.0078125,102.93,0
     0,0,0,0,0,0,0,0,0,0,0,-0.0078125,0.0078125,102.95,0
     0,0,0,0,0,0,0,0,0,0,0,-0.0078125,0.0078125,102.971,0
     0,0,0,0,0,0,0,0,0,0,0,-0.0078125,0.0078125,102.989,0
     0,0,0,0,0,0,0,0,0,0,0,-0.0078125,0.0078125,103.009,0
     0,0,0,0,0,0,0,0,0,0,0,-0.0078125,0.0078125,103.03,0
     0,0,0,0,0,0,0,0,0,0,0,-0.0078125,0.0078125,103.05,0
     0,0,0,0,0,0,0,0,0,0,0,-0.0078125,0.0078125,103.069,0
     0,0,0,0,0,0,0,0,0,0,0,-0.0078125,0.0078125,103.09,0
     0,0,0,0,0,0,0,0,0,0,0,-0.0078125,0.0078125,103.11,0
     0,0,0,0,0,0,0,0,0,0,0,-0.0078125,0.0078125,103.13,0
     0,0,0,0,0,0,0,0,0,0,0,-0.0078125,0.0078125,103.151,0
     0,0,0,0,0,0,0,0,0,0,0,-0.0078125,0.0078125,103.17,0
     0,0,0,0,0,0,0,0,0,0,0,-0.0078125,0.0390625,103.19,0
     0,0,0,0,0,0,0,0,0,0,0,-0.0078125,0.179688,103.21,0
     0,0,0,0,0,0,0,0,0,0,0,-0.0078125,0.351562,103.23,0
     0,0,0,0,0,0,0,0,0,0,-169.256,-0.0078125,0.6875,103.25,0
     0,0,0,0,0,0,0,0,0,0,-282.45,-0.0078125,0.90625,103.269,0
     0,0,0,0,0,0,0,0,0,43.4039,-322.648,-0.0078125,0.984375,103.29,0
     0,0,0,0,0,0,0,0,0,26.1504,-574.713,-0.0078125,1,103.31,0
     0,0,0,0,0,0,0,0,0,30.8796,-768.728,-0.0078125,1,103.33,0
     0,0,0,0,0,0,0,0,0,89.9184,-714.439,-0.0078125,1,103.35,0
     0,0,0,0,0,0,0,0,0,125.316,-876.655,-0.0078125,1,103.37,0
     0,0,0,0,0,0,0,0,0,144.306,-864.977,-0.0078125,1,103.389,0
     0,0,0,0,0,0,0,0,0,162.52,-621.755,-0.0078125,1,103.41,0
     0,0,0,0,0,0,0,0,0,198.904,-531.307,-0.0078125,1,103.43,0
     0,0,0,0,0,0,0,0,0,226.439,-780.732,-0.0078125,1,103.449,0
     0,0,0,0,0,0,0,0,0,238.299,-718.21,-0.0078125,1,103.469,0
     0,0,0,0,0,0,0,0,0,296.274,-1159.76,-0.0078125,1,103.49,0
     0,0,0,0,0,0,0,0,0,356.157,-1024.49,-0.0078125,1,103.51,0
     0,0,0,0,0,0,0,0,0,383.2,-804.343,-0.0078125,1,103.53,0
     0,0,0,0,0,0,0,0,0,413.283,-903.302,-0.0078125,1,103.55,0
     0,0,0,0,0,0,0,0,0,477.111,-807.852,0,1,103.578,0
     0,0,0,0,0,0,0,0,0,483.512,-1133.34,0.023622,1,103.59,0
     0,0,0,0,0,0,0,0,0,533.646,-830.151,0.0629921,1,103.61,0
     0,0,0,0,0,0,0,0,0,427.963,-948.452,0.149606,1,103.63,0
     0,0,0,0,0,0,0,0,0,323.771,-1079.27,0.220472,1,103.65,0
     0,0,0,0,0,0,0,0,0,182.59,-1121.83,0.244094,1,103.67,0
     0,0,0,0,0,0,0,0,0,112.189,-1130.77,0.251969,1,103.69,0
     0,0,0,0,0,0,0,0,0,58.5768,-928.333,0.259843,1,103.71,0
     0,0,0,0,0,0,0,0,0,58.5768,-1083.19,0.259843,1,103.729,0
     0,0,0,0,0,0,0,0,0,58.5768,-1079.33,0.259843,1,103.751,0
     0,0,0,0,0,0,0,0,0,58.5768,-1236.48,0.259843,1,103.769,0
     0,0,0,0,0,0,0,0,0,58.5768,-1112.72,0.259843,1,103.791,0
     0,0,0,0,0,0,0,0,0,58.5768,-1203.8,0.259843,1,103.81,0
     0,0,0,0,0,0,0,0,0,58.5768,-1036.38,0.259843,1,103.83,0
     0,0,0,0,0,0,0,0,0,58.5768,-1048.33,0.259843,1,103.849,0
     0,0,0,0,0,0,0,0,0,58.5768,-1269.6,0.267717,1,103.87,0
     0,0,0,0,0,0,0,0,0,58.5768,-1190.12,0.283465,1,103.89,0
     0,0,0,0,0,0,0,0,0,58.5768,-1066.27,0.299213,1,103.909,0
     0,0,0,0,0,0,0,0,0,58.5768,-1330.14,0.307087,1,103.929,0
     0,0,0,0,0,0,0,0,0,58.5768,-785.423,0.307087,1,103.95,0
     0,0,0,0,0,0,0,0,0,1.92274,-1344.36,0.307087,1,103.97,0
     0,0,0,0,0,0,0,0,0,1.92274,-1038.31,0.307087,1,103.99,0
     0,0,0,0,0,0,0,0,0,1.92274,-1053.35,0.307087,1,104.01,0
     0,0,0,0,0,0,0,0,0,0,-1135.14,0.307087,1,104.029,0
     0,0,0,0,0,0,0,0,0,0,-777.122,0.314961,1,104.05,0
     0,0,0,0,0,0,0,0,0,-1.37284,-935.06,0.314961,1,104.07,0
     0,0,0,0,0,0,0,0,0,-1.37284,-1025.38,0.314961,1,104.091,0
     0,0,0,0,0,0,0,0,0,-1.37284,-1235.25,0.314961,1,104.109,0
     0,0,0,0,0,0,0,0,0,-1.37284,-1161.44,0.314961,1,104.129,0
     0,0,0,0,0,0,0,0,0,-1.37284,-937.075,0.314961,1,104.149,0
     0,0,0,0,0,0,0,0,0,-1.37284,-879.662,0.314961,1,104.17,0
     0,0,0,0,0,0,0,0,0,-1.37284,-753.892,0.314961,1,104.19,0
     0,0,0,0,0,0,0,0,0,-1.37284,-1233.81,0.314961,1,104.21,0
     0,0,0,0,0,0,0,0,0,-1.37284,-1070.78,0.314961,1,104.23,0
     0,0,0,0,0,0,0,0,0,-1.37284,-1119.88,0.314961,1,104.25,0
     0,0,0,0,0,0,0,0,0,-1.37284,-1098.78,0.314961,1,104.27,0
     0,0,0,0,0,0,0,0,0,-6.70181,-841.963,0.322835,1,104.29,0
     0,0,0,0,0,0,0,0,0,-6.70181,-984.688,0.322835,1,104.309,0
     0,0,0,0,0,0,0,0,0,-6.70181,-1085.3,0.330709,1,104.33,0
     0,0,0,0,0,0,0,0,0,-6.70181,-1074.11,0.338583,1,104.35,0
     0,0,0,0,0,0,0,0,0,-6.70181,-1039.39,0.338583,1,104.37,0
     0,0,0,0,0,0,0,0,0,-6.70181,-1047.94,0.338583,1,104.39,0
     0,0,0,0,0,0,0,0,0,-6.70181,-971.817,0.338583,1,104.41,0
     0,0,0,0,0,0,0,0,0,-6.70181,-1166.59,0.338583,1,104.429,0
     0,0,0,0,0,0,0,0,0,-6.70181,-1155.67,0.338583,1,104.449,0
     0,0,0,0,0,0,0,0,0,-6.70181,-1013.02,0.338583,1,104.48,0
     0,0,0,0,0,0,0,0,0,-6.70181,-956.663,0.338583,1,104.504,0
     0,0,0,0,0,0,0,0,0,-6.70181,-1022.81,0.338583,1,104.51,0
     0,0,0,0,0,0,0,0,0,-6.70181,-1215.58,0.338583,1,104.53,0
     0,0,0,0,0,0,0,0,0,-6.70181,-1144.23,0.338583,1,104.55,0
     0,0,0,0,0,0,0,0,0,-6.70181,-984.64,0.338583,1,104.57,0
     0,0,0,0,0,0,0,0,0,-6.70181,-1065.98,0.267717,1,104.59,0
     0,0,0,0,0,0,0,0,0,-6.70181,-1075.85,0.220472,1,104.61,0
     0,0,0,0,0,0,0,0,0,-6.70181,-1150.95,0.133858,1,104.63,0
     0,0,0,0,0,0,0,0,0,-6.70181,-1240.54,0.0708661,1,104.658,0
     0,0,0,0,0,0,0,0,0,-1.69993,-1187.51,0.0314961,1,104.67,0
     0,0,0,0,0,0,0,0,0,82.2791,-1254.78,0.00787402,1,104.691,0
     0,0,0,0,0,0,0,0,0,159.453,-1115.88,0,0.890625,104.709,0
     0,0,0,0,0,0,0,0,0,201.009,-977.613,-0.0078125,0.492188,104.73,0
     0,0,0,0,0,0,0,0,0,247.813,-964.088,-0.0078125,0.25,104.75,0
     0,0,0,0,0,0,0,0,0,293.44,-928.764,-0.0078125,-0.015748,104.77,0
     0,0,0,0,0,0,0,0,0,268.233,-760.601,-0.0078125,-0.015748,104.789,0
     0,0,0,0,0,0,0,0,0,318.547,-790.483,-0.0078125,-0.015748,104.809,0
     0,0,0,0,0,0,0,0,0,303.099,-715.717,-0.0078125,-0.015748,104.833,0
     0,0,0,0,0,0,0,0,0,300.824,-686.201,-0.0078125,-0.015748,104.849,0
     0,0,0,0,0,0,0,0,0,284.034,-740.22,-0.0078125,-0.015748,104.869,0
     0,0,0,0,0,0,0,0,0,336.027,-633.392,-0.0078125,-0.015748,104.89,0
     0,0,0,0,0,0,0,0,0,366.744,-579.24,-0.0078125,-0.015748,104.91,0
     0,0,0,0,0,0,0,0,0,294.733,-535.461,-0.0078125,-0.015748,104.93,0
     0,0,0,0,0,0,0,0,0,324.423,-486.582,-0.0078125,-0.015748,104.949,0
     0,0,0,0,0,0,0,0,0,395.922,-432.638,-0.0078125,-0.015748,104.969,0
     0,0,0,0,0,0,0,0,0,360.822,-448.059,-0.0078125,-0.015748,104.99,0
     0,0,0,0,0,0,0,0,0,387.349,-426.53,-0.0078125,-0.015748,105.009,0
     0,0,0,0,0,0,0,0,0,370.508,-262.206,-0.0078125,-0.015748,105.031,0
     0,0,0,0,0,0,0,0,0,302.989,-338.943,-0.0078125,-0.015748,105.05,0
     0,0,0,0,0,0,0,0,0,331.076,-382.819,-0.0078125,-0.015748,105.072,0
     0,0,0,0,0,0,0,0,0,341.419,-446.349,-0.03125,-0.015748,105.089,0
     0,0,0,0,0,0,0,0,0,344.525,-331.395,-0.1875,-0.015748,105.109,0
     0,0,0,0,0,0,0,0,0,294.52,-292.599,-0.359375,0.0546875,105.142,0
     0,0,0,0,0,0,0,0,0,306.405,-272.454,-0.554688,0.109375,105.15,0
     0,0,0,0,0,0,0,0,0,290.926,-228.891,-0.835938,0.234375,105.17,0
     0,0,0,0,0,0,0,0,0,607.607,-306.513,-0.914062,0.34375,105.19,0
     0,0,0,0,0,0,0,0,0,689.322,-286.34,-0.953125,0.390625,105.209,0
     0,0,0,0,0,0,0,0,0,742.005,-330.693,-0.992188,0.421875,105.229,0
     0,0,0,0,0,0,0,0,0,877.347,-448.229,-0.992188,0.421875,105.249,0
     0,0,0,0,0,0,0,0,0,748.167,-440.937,-0.914062,0.421875,105.269,0
     0,0,0,0,0,0,0,0,0,833.646,-535.203,-0.914062,0.421875,105.29,0
     0,0,0,0,0,0,0,0,0,829.772,-585.566,-0.726562,0.421875,105.31,0
     0,0,0,0,0,0,0,0,0,738.689,-605.602,-0.46875,0.421875,105.33,0
     0,0,0,0,0,0,0,0,0,712.403,-530.279,-0.210938,0.421875,105.35,0
     0,0,0,0,0,0,0,0,0,595.398,-769.379,-0.101562,0.421875,105.37,0
     0,0,0,0,0,0,0,0,0,567.054,-657.895,-0.015625,0.289062,105.39,0
     0,0,0,0,0,0,0,0,0,448.169,-595.061,-0.0078125,0.148438,105.409,0
     0,0,0,0,0,0,0,0,0,597.961,-612.708,-0.0078125,0.03125,105.431,0
     0,0,0,0,0,0,0,0,0,593.349,-580.501,-0.0078125,0.0078125,105.449,0
     0,0,0,0,0,0,0,0,0,618.219,-631.892,0.015748,0.0078125,105.47,0
     0,0,0,0,0,0,0,0,0,545.569,-557.631,0.0787402,0.0078125,105.491,0
     0,0,0,0,0,0,0,0,0,504.375,-469.792,0.259843,0.0078125,105.509,0
     0,0,0,0,0,0,0,0,0,138.141,-423.549,0.527559,0.0078125,105.53,0
     0,0,0,0,0,0,0,0,0,80.0766,-384.726,0.787402,0.0078125,105.549,0
     0,0,0,0,0,0,0,0,0,-205.177,-382.066,0.905512,0.0078125,105.578,0
     0,0,0,0,0,0,0,0,0,-345.668,-289.348,1,0.0078125,105.59,0
     0,0,0,0,0,0,0,0,0,-503.423,-279.732,1,0.0703125,105.611,0
     0,0,0,0,0,0,0,0,0,-699.178,-116.192,1,0.101562,105.63,0
     0,0,0,0,0,0,0,0,0,-549.858,-91.6872,1,0.101562,105.651,0
     0,0,0,0,0,0,0,0,0,-590.005,-78.3417,0.80315,0.101562,105.67,0
     0,0,0,0,0,0,0,0,0,-682.524,-39.5805,0.425197,0.0390625,105.69,0
     0,0,0,0,0,0,0,0,0,-540.687,-39.5805,0.0708661,0.015625,105.71,0
     0,0,0,0,0,0,0,0,0,-343.106,-39.5805,-0.0078125,0.015625,105.73,0
     0,0,0,0,0,0,0,0,0,-149.244,16.8362,-0.0078125,0.0078125,105.749,0
     0,0,0,0,0,0,0,0,0,-183.382,61.354,-0.0078125,0.0078125,105.77,0
     0,0,0,0,0,0,0,0,0,-145.749,55.8388,-0.0078125,0.0078125,105.789,0
     0,0,0,0,0,0,0,0,0,-121.131,55.5864,-0.0078125,0.0078125,105.809,0
     0,0,0,0,0,0,0,0,0,-90.4895,38.1624,-0.0078125,0.0078125,105.829,0
     0,0,0,0,0,0,0,0,0,-59.4288,74.2454,-0.0078125,0.0078125,105.849,0
     0,0,0,0,0,0,0,0,0,-49.4648,69.1666,-0.0078125,0.0078125,105.87,0
     0,0,0,0,0,0,0,0,0,-43.1105,52.9782,-0.0078125,0.0078125,105.89,0
     0,0,0,0,0,0,0,0,0,-37.6063,39.4112,-0.0078125,0.0078125,105.91,0
     0,0,0,0,0,0,0,0,0,-36.2253,35.6212,-0.0078125,0.0078125,105.93,0
     0,0,0,0,0,0,0,0,0,-28.1844,21.6844,-0.0078125,0.0078125,105.952,0
     0,0,0,0,0,0,0,0,0,-28.1844,21.6844,-0.0078125,0.0078125,105.97,0
     0,0,0,0,0,0,0,0,0,-28.1844,21.6844,-0.0078125,0.0078125,105.99,0
     0,0,0,0,0,0,0,0,0,-28.1844,21.6844,-0.0078125,0.0078125,106.017,0
     0,0,0,0,0,0,0,0,0,-4.10363,21.6844,-0.0078125,0.0078125,106.03,0
     0,0,0,0,0,0,0,0,0,-4.10363,21.6844,-0.0078125,0.0078125,106.05,0
     0,0,0,0,0,0,0,0,0,-4.10363,21.6844,-0.0078125,0.0078125,106.071,0
     0,0,0,0,0,0,0,0,0,-4.10363,21.6844,-0.0078125,0.0078125,106.09,0
     0,0,0,0,0,0,0,0,0,-4.10363,21.6844,-0.0078125,0.0078125,106.11,0
     0,0,0,0,0,0,0,0,0,-4.10363,21.6844,-0.0078125,0.0078125,106.13,0
     0,0,0,0,0,0,0,0,0,-4.10363,21.6844,-0.0078125,0.0078125,106.15,0
     0,0,0,0,0,0,0,0,0,-4.10363,21.6844,-0.0078125,0.0078125,106.17,0
     0,0,0,0,0,0,0,0,0,-4.10363,21.6844,-0.0078125,0.0078125,106.191,0
     0,0,0,0,0,0,0,0,0,-4.10363,21.6844,-0.0078125,0.0078125,106.21,0
     0,0,0,0,0,0,0,0,0,-4.10363,21.6844,-0.0078125,0.0078125,106.23,0
     0,0,0,0,0,0,0,0,0,-4.10363,21.6844,-0.0078125,0.0078125,106.25,0
     0,0,0,0,0,0,0,0,0,-4.10363,21.6844,-0.0078125,-0.015748,106.27,0
     0,0,0,0,0,0,0,0,0,-4.10363,21.6844,-0.0078125,-0.0787402,106.3,0
     0,0,0,0,0,0,0,0,0,-4.10363,21.6844,-0.0078125,-0.141732,106.31,0
     0,0,0,0,0,0,0,0,0,-4.10363,21.6844,-0.0078125,-0.251969,106.33,0
     0,0,0,0,0,0,0,0,0,-4.10363,21.6844,0.110236,-0.322835,106.35,0
     0,0,0,0,0,0,0,0,0,-4.10363,147.6,0.19685,-0.448819,106.37,0
     0,0,0,0,0,0,0,0,0,-11.3961,96.6216,0.362205,-0.543307,106.389,0
     0,0,0,0,0,0,0,0,0,-179.221,115.211,0.456693,-0.708661,106.409,0
     0,0,0,0,0,0,0,0,0,-298.334,217.103,0.456693,-0.708661,106.43,0
     0,0,0,0,0,0,0,0,0,-236.275,283.226,0.574803,-0.866142,106.45,0
     0,0,0,0,0,0,0,0,0,-377.102,441.774,0.685039,-0.937008,106.471,0
     0,0,0,0,0,0,0,0,0,-421.879,553.22,0.732283,-1,106.49,0
     0,0,0,0,0,0,0,0,0,-462.749,654.236,0.787402,-1,106.51,0
     0,0,0,0,0,0,0,0,0,-619.559,868.659,0.787402,-1,106.531,0
     0,0,0,0,0,0,0,0,0,-672.314,681.501,0.787402,-1,106.55,0
     0,0,0,0,0,0,0,0,0,-669.994,743.66,0.787402,-1,106.57,0
     0,0,0,0,0,0,0,0,0,-764.38,1092.3,0.787402,-1,106.603,0
     0,0,0,0,0,0,0,0,0,-766.812,856.714,0.787402,-1,106.61,0
     0,0,0,0,0,0,0,0,0,-796.908,935.848,0.787402,-1,106.63,0
     0,0,0,0,0,0,0,0,0,-946.611,1118.51,0.590551,-1,106.651,0
     0,0,0,0,0,0,0,0,0,-851.644,1047.72,0.393701,-1,106.67,0
     0,0,0,0,0,0,0,0,0,-1156.34,1085.36,0.133858,-1,106.69,0
     0,0,0,0,0,0,0,0,0,-680.735,1072.04,0.015748,-1,106.71,0
     0,0,0,0,0,0,0,0,0,-750.272,950.57,-0.0390625,-1,106.729,0
     0,0,0,0,0,0,0,0,0,-909.587,979.72,-0.234375,-1,106.749,0
     0,0,0,0,0,0,0,0,0,-627.786,1172.06,-0.484375,-1,106.77,0
     0,0,0,0,0,0,0,0,0,-352.516,1376.56,-0.828125,-0.937008,106.79,0
     0,0,0,0,0,0,0,0,0,-142.161,1184.55,-0.96875,-0.889764,106.81,0
     0,0,0,0,0,0,0,0,0,226.073,889.047,-1,-0.80315,106.83,0
     0,0,0,0,0,0,0,0,0,333.617,862.218,-1,-0.755906,106.85,0
     0,0,0,0,0,0,0,0,0,475.692,720.721,-1,-0.700787,106.869,0
     0,0,0,0,0,0,0,0,0,569.314,791.264,-1,-0.692913,106.89,0
     0,0,0,0,0,0,0,0,0,623.014,720.799,-1,-0.685039,106.91,0
     0,0,0,0,0,0,0,0,0,603.992,730.247,-1,-0.685039,106.93,0
     0,0,0,0,0,0,0,0,0,817.361,697.496,-1,-0.685039,106.95,0
     0,0,0,0,0,0,0,0,0,574.845,660.262,-1,-0.685039,106.971,0
     0,0,0,0,0,0,0,0,0,729.076,660.066,-1,-0.755906,106.99,0
     0,0,0,0,0,0,0,0,0,759.157,610.631,-1,-0.76378,107.009,0
     0,0,0,0,0,0,0,0,0,723.641,643.604,-1,-0.76378,107.03,0
     0,0,0,0,0,0,0,0,0,808.636,515.331,-1,-0.771654,107.049,0
     0,0,0,0,0,0,0,0,0,763.213,687.9,-1,-0.771654,107.07,0
     0,0,0,0,0,0,0,0,0,864.454,595.752,-1,-0.771654,107.098,0
     0,0,0,0,0,0,0,0,0,875.044,642.963,-1,-0.771654,107.11,0
     0,0,0,0,0,0,0,0,0,724.848,619.809,-1,-0.771654,107.13,0
     0,0,0,0,0,0,0,0,0,829.635,560.601,-1,-0.771654,107.15,0
     0,0,0,0,0,0,0,0,0,772.111,690.393,-1,-0.771654,107.17,0
     0,0,0,0,0,0,0,0,0,753.608,619.138,-1,-0.771654,107.19,0
     0,0,0,0,0,0,0,0,0,706.215,567.167,-1,-0.771654,107.21,0
     0,0,0,0,0,0,0,0,0,731.636,735.537,-1,-0.771654,107.23,0
     0,0,0,0,0,0,0,0,0,745.74,633.653,-1,-0.771654,107.25,0
     0,0,0,0,0,0,0,0,0,845.38,598.677,-1,-0.700787,107.27,0
     0,0,0,0,0,0,0,0,0,769.201,588.859,-1,-0.645669,107.29,0
     0,0,0,0,0,0,0,0,0,948.137,626.841,-1,-0.645669,107.309,0
     0,0,0,0,0,0,0,0,0,972.006,581.446,-1,-0.488189,107.329,0
     0,0,0,0,0,0,0,0,0,896.298,420.009,-1,-0.330709,107.35,0
     0,0,0,0,0,0,0,0,0,975.61,346.542,-1,-0.0314961,107.37,0
     0,0,0,0,0,0,0,0,0,926.269,174.224,-1,0.0078125,107.389,0
     0,0,0,0,0,0,0,0,0,968.335,89.1381,-1,0.0078125,107.41,0
     0,0,0,0,0,0,0,0,0,1059.27,58.964,-1,0.0078125,107.43,0
     0,0,0,0,0,0,0,0,0,1153.47,10.1285,-1,0.0078125,107.45,0
     0,0,0,0,0,0,0,0,0,1039.93,-71.9834,-1,0.0078125,107.469,0
     0,0,0,0,0,0,0,0,0,1178.2,-96.321,-1,0.0078125,107.49,0
     0,0,0,0,0,0,0,0,0,1147.45,-147.62,-1,0.0078125,107.51,0
     0,0,0,0,0,0,0,0,0,1168.7,-192.832,-1,0.0078125,107.529,0
     0,0,0,0,0,0,0,0,0,1200.84,-199.209,-1,0.0078125,107.55,0
     0,0,0,0,0,0,0,0,0,1383.7,-242.58,-1,0.0078125,107.569,0
     0,0,0,0,0,0,0,0,0,1148.24,-306.068,-1,0.0078125,107.589,0
     0,0,0,0,0,0,0,0,0,1161.04,-364.997,-1,0.0078125,107.609,0
     0,0,0,0,0,0,0,0,0,1115.14,-349.412,-1,0.0078125,107.63,0
     0,0,0,0,0,0,0,0,0,1134.43,-372.898,-1,0.0078125,107.65,0
     0,0,0,0,0,0,0,0,0,1254.63,-390.885,-1,0.0078125,107.67,0
     0,0,0,0,0,0,0,0,0,1224.14,-475.715,-1,0.0078125,107.69,0
     0,0,0,0,0,0,0,0,0,1325.12,-492.162,-1,0.0078125,107.71,0
     0,0,0,0,0,0,0,0,0,1186.94,-489.213,-1,0.0078125,107.729,0
     0,0,0,0,0,0,0,0,0,1261.35,-552.837,-1,0.0078125,107.75,0
     0,0,0,0,0,0,0,0,0,1254.94,-580.585,-1,0.0078125,107.769,0
     0,0,0,0,0,0,0,0,0,1283.29,-437.34,-1,0.0078125,107.79,0
     0,0,0,0,0,0,0,0,0,1172.06,-757.174,-1,0.0078125,107.809,0
     0,0,0,0,0,0,0,0,0,1183.5,-693.866,-1,0.0078125,107.83,0
     0,0,0,0,0,0,0,0,0,1268.79,-673.446,-1,0.0078125,107.85,0
     0,0,0,0,0,0,0,0,0,1271.86,-768.374,-1,0.0078125,107.87,0
     0,0,0,0,0,0,0,0,0,1211.61,-784.098,-1,0.0078125,107.89,0
     0,0,0,0,0,0,0,0,0,1186.59,-819.303,-1,0.0078125,107.91,0
     0,0,0,0,0,0,0,0,0,1265.9,-796.781,-1,0.0078125,107.93,0
     0,0,0,0,0,0,0,0,0,1381.69,-551.892,-1,0.0078125,107.949,0
     0,0,0,0,0,0,0,0,0,1275.59,-838.188,-1,-0.110236,107.97,0
     0,0,0,0,0,0,0,0,0,1153.07,-626.881,-1,-0.149606,107.99,0
     0,0,0,0,0,0,0,0,0,1281.89,-456.475,-1,-0.165354,108.01,0
     0,0,0,0,0,0,0,0,0,1349.71,-275.353,-1,-0.173228,108.03,0
     0,0,0,0,0,0,0,0,0,1176.75,-163.133,-1,-0.173228,108.05,0
     0,0,0,0,0,0,0,0,0,1185.33,-141.721,-1,-0.173228,108.071,0
     0,0,0,0,0,0,0,0,0,1175.5,-91.4269,-1,-0.173228,108.09,0
     0,0,0,0,0,0,0,0,0,1259.6,-56.8663,-1,-0.173228,108.11,0
     0,0,0,0,0,0,0,0,0,1237.78,-48.8689,-1,-0.173228,108.13,0
     0,0,0,0,0,0,0,0,0,1252.03,-43.0723,-1,-0.173228,108.15,0
     0,0,0,0,0,0,0,0,0,1198.18,-33.267,-1,-0.173228,108.169,0
     0,0,0,0,0,0,0,0,0,1099.87,-23.4729,-1,-0.220472,108.19,0
     0,0,0,0,0,0,0,0,0,1145.21,-16.6518,-1,-0.307087,108.212,0
     0,0,0,0,0,0,0,0,0,1150.81,-16.6518,-1,-0.409449,108.23,0
     0,0,0,0,0,0,0,0,0,1202.79,-16.6518,-1,-0.527559,108.25,0
     0,0,0,0,0,0,0,0,0,1099.57,68.4566,-1,-0.590551,108.272,0
     0,0,0,0,0,0,0,0,0,1077.7,106.01,-1,-0.598425,108.29,0
     0,0,0,0,0,0,0,0,0,1083.89,126.311,-1,-0.598425,108.31,0
     0,0,0,0,0,0,0,0,0,1039.88,236.457,-1,-0.598425,108.33,0
     0,0,0,0,0,0,0,0,0,1139.8,229.25,-1,-0.472441,108.35,0
     0,0,0,0,0,0,0,0,0,1032.68,222.104,-1,-0.417323,108.37,0
     0,0,0,0,0,0,0,0,0,1101.14,167.093,-1,-0.370079,108.412,0
     0,0,0,0,0,0,0,0,0,1069.23,148.468,-1,-0.370079,108.415,0
     0,0,0,0,0,0,0,0,0,1058.03,127.995,-1,-0.338583,108.431,0
     0,0,0,0,0,0,0,0,0,1075.56,78.5025,-1,-0.19685,108.449,0
     0,0,0,0,0,0,0,0,0,1001.95,50.3997,-1,-0.0866142,108.469,0
     0,0,0,0,0,0,0,0,0,1119.63,0,-1,-0.0314961,108.49,0
     0,0,0,0,0,0,0,0,0,1204.31,-134.436,-1,0.0078125,108.51,0
     0,0,0,0,0,0,0,0,0,1055.13,-217.184,-1,0.0078125,108.53,0
     0,0,0,0,0,0,0,0,0,1059.1,-253.53,-1,0.0078125,108.55,0
     0,0,0,0,0,0,0,0,0,1145.8,-300.906,-1,0.0078125,108.57,0
     0,0,0,0,0,0,0,0,0,1107.79,-366.737,-1,0.0078125,108.59,0
     0,0,0,0,0,0,0,0,0,1138.89,-363.306,-1,0.0078125,108.61,0
     0,0,0,0,0,0,0,0,0,1056.91,-387.77,-1,0.0078125,108.634,0
     0,0,0,0,0,0,0,0,0,1182.8,-331.884,-1,0.0078125,108.65,0
     0,0,0,0,0,0,0,0,0,1216.77,-447.858,-1,0.0078125,108.67,0
     0,0,0,0,0,0,0,0,0,1126.95,-410.551,-1,0.0078125,108.69,0
     0,0,0,0,0,0,0,0,0,1079.68,-523.848,-1,0.0078125,108.71,0
     0,0,0,0,0,0,0,0,0,1133.02,-449.974,-1,0.0078125,108.729,0
     0,0,0,0,0,0,0,0,0,1142.53,-480.423,-1,0.0078125,108.75,0
     0,0,0,0,0,0,0,0,0,1208.02,-494.829,-1,0.0078125,108.77,0
     0,0,0,0,0,0,0,0,0,1116.13,-494.486,-1,0.0078125,108.79,0
     0,0,0,0,0,0,0,0,0,1263.02,-557.631,-1,0.0078125,108.81,0
     0,0,0,0,0,0,0,0,0,1260.8,-547.181,-1,0.0078125,108.83,0
     0,0,0,0,0,0,0,0,0,1122.96,-674.832,-1,0.0078125,108.849,0
     0,0,0,0,0,0,0,0,0,1235.41,-657.83,-1,0.0078125,108.871,0
     0,0,0,0,0,0,0,0,0,1127.9,-570.76,-1,0.0078125,108.89,0
     0,0,0,0,0,0,0,0,0,1194.03,-672.608,-1,0.0078125,108.909,0
     0,0,0,0,0,0,0,0,0,1149.16,-646.371,-1,0.0078125,108.929,0
     0,0,0,0,0,0,0,0,0,1335.56,-700.697,-1,0.0078125,108.949,0
     0,0,0,0,0,0,0,0,0,1316.05,-614.119,-1,0.0078125,108.969,0
     0,0,0,0,0,0,0,0,0,1380.17,-816.127,-1,0.0078125,108.989,0
     0,0,0,0,0,0,0,0,0,1224.07,-801.314,-1,0.0078125,109.011,0
     0,0,0,0,0,0,0,0,0,1212.78,-816.393,-1,0.0078125,109.03,0
     0,0,0,0,0,0,0,0,0,1377.32,-820.546,-1,0.0078125,109.05,0
     0,0,0,0,0,0,0,0,0,1254.15,-677.117,-1,0.0078125,109.069,0
     0,0,0,0,0,0,0,0,0,1309.33,-823.961,-1,0.0078125,109.09,0
     0,0,0,0,0,0,0,0,0,1206.85,-1023.12,-1,0.0078125,109.11,0
     0,0,0,0,0,0,0,0,0,1280,-991.179,-1,0.0078125,109.13,0
     0,0,0,0,0,0,0,0,0,1289.82,-1003.26,-1,0.0078125,109.151,0
     0,0,0,0,0,0,0,0,0,1158.95,-1162.39,-1,0.0078125,109.169,0
     0,0,0,0,0,0,0,0,0,1178.83,-1098.96,-1,0.0078125,109.191,0
     0,0,0,0,0,0,0,0,0,1297.1,-1064.62,-1,0.0078125,109.209,0
     0,0,0,0,0,0,0,0,0,1210.87,-959.969,-1,0.0078125,109.23,0
     0,0,0,0,0,0,0,0,0,1297.86,-885.818,-1,0.0078125,109.249,0
     0,0,0,0,0,0,0,0,0,1366.03,-785.762,-1,0.0078125,109.269,0
     0,0,0,0,0,0,0,0,0,1366.49,-879.933,-1,0.0078125,109.29,0
     0,0,0,0,0,0,0,0,0,1373.63,-1069.23,-1,0.0078125,109.317,0
     0,0,0,0,0,0,0,0,0,1227.67,-1070.09,-1,0.0078125,109.349,0
     0,0,0,0,0,0,0,0,0,1298.11,-1032.9,-1,0.0078125,109.352,0
     0,0,0,0,0,0,0,0,0,1245.8,-986.631,-1,0.0078125,109.37,0
     0,0,0,0,0,0,0,0,0,1160.36,-990.933,-1,0.0078125,109.39,0
     0,0,0,0,0,0,0,0,0,1365.93,-1025.17,-1,0.0078125,109.409,0
     0,0,0,0,0,0,0,0,0,1221.15,-1250.47,-1,0.0078125,109.43,0
     0,0,0,0,0,0,0,0,0,1347.8,-1208.17,-1,0.0078125,109.45,0
     0,0,0,0,0,0,0,0,0,1376.37,-1072.44,-1,0.0078125,109.47,0
     0,0,0,0,0,0,0,0,0,1274.29,-1260.16,-1,0.0078125,109.49,0
     0,0,0,0,0,0,0,0,0,1213.89,-915.206,-1,0.0078125,109.512,0
     0,0,0,0,0,0,0,0,0,1359.71,-1072.73,-1,0.0078125,109.53,0
     0,0,0,0,0,0,0,0,0,1264.78,-1271.13,-1,0.0078125,109.55,0
     0,0,0,0,0,0,0,0,0,1425.21,-1146,-1,0.0078125,109.57,0
     0,0,0,0,0,0,0,0,0,1387.83,-1299.71,-1,0.0078125,109.589,0
     0,0,0,0,0,0,0,0,0,1353.55,-1320.83,-1,0.0078125,109.609,0
     0,0,0,0,0,0,0,0,0,1410.44,-1058.09,-1,0.0078125,109.63,0
     0,0,0,0,0,0,0,0,0,1397.23,-1150.62,-1,0.0078125,109.65,0
     0,0,0,0,0,0,0,0,0,1269.76,-1216.69,-1,0.0078125,109.689,0
     0,0,0,0,0,0,0,0,0,1336.63,-1204.6,-1,0.0078125,109.694,0
     0,0,0,0,0,0,0,0,0,1452.64,-1226.17,-1,0.0078125,109.711,0
     0,0,0,0,0,0,0,0,0,1376.27,-1014.46,-1,0.0078125,109.732,0
     0,0,0,0,0,0,0,0,0,1432.97,-967.258,-1,-0.0708661,109.749,0
     0,0,0,0,0,0,0,0,0,1510.23,-883.822,-1,-0.165354,109.77,0
     0,0,0,0,0,0,0,0,0,1387.25,-555.417,-1,-0.244094,109.789,0
     0,0,0,0,0,0,0,0,0,1384.18,-196.009,-1,-0.354331,109.81,0
     0,0,0,0,0,0,0,0,0,1355.75,-114.329,-1,-0.448819,109.83,0
     0,0,0,0,0,0,0,0,0,1339.14,-76.2323,-1,-0.503937,109.85,0
     0,0,0,0,0,0,0,0,0,1377.03,11.5291,-1,-0.551181,109.87,0
     0,0,0,0,0,0,0,0,0,1220.11,155.125,-1,-0.559055,109.89,0
     0,0,0,0,0,0,0,0,0,1275.67,287.948,-1,-0.566929,109.909,0
     0,0,0,0,0,0,0,0,0,1257.94,284.006,-1,-0.566929,109.93,0
     0,0,0,0,0,0,0,0,0,1246.03,261.595,-1,-0.566929,109.95,0
     0,0,0,0,0,0,0,0,0,1225.49,364.538,-1,-0.566929,109.974,0
     0,0,0,0,0,0,0,0,0,1277.71,347.651,-1,-0.566929,110.004,0
     0,0,0,0,0,0,0,0,0,1082.66,372.863,-1,-0.566929,110.01,0
     0,0,0,0,0,0,0,0,0,1220.85,354.302,-1,-0.566929,110.029,0
     0,0,0,0,0,0,0,0,0,1225.49,478.069,-1,-0.566929,110.05,0
     0,0,0,0,0,0,0,0,0,1174.95,338.88,-1,-0.566929,110.07,0
     0,0,0,0,0,0,0,0,0,1183.78,365.47,-1,-0.566929,110.09,0
     0,0,0,0,0,0,0,0,0,1100.17,515.265,-1,-0.566929,110.115,0
     0,0,0,0,0,0,0,0,0,1026.43,349.864,-1,-0.566929,110.13,0
     0,0,0,0,0,0,0,0,0,1164.75,343.578,-1,-0.566929,110.159,0
     0,0,0,0,0,0,0,0,0,1192.82,289.335,-1,-0.566929,110.17,0
     0,0,0,0,0,0,0,0,0,1136.3,248.182,-1,-0.566929,110.19,0
     0,0,0,0,0,0,0,0,0,1166.38,265.784,-1,-0.456693,110.21,0
     0,0,0,0,0,0,0,0,0,1114.27,181.627,-1,-0.370079,110.248,0
     0,0,0,0,0,0,0,0,0,1136.04,205.723,-1,-0.370079,110.252,0
     0,0,0,0,0,0,0,0,0,1054.02,148.356,-1,-0.370079,110.27,0
     0,0,0,0,0,0,0,0,0,1075.91,55.3033,-1,-0.283465,110.291,0
     0,0,0,0,0,0,0,0,0,1154.8,27.4925,-1,-0.244094,110.314,0
     0,0,0,0,0,0,0,0,0,1096.61,29.2631,-1,-0.220472,110.33,0
     0,0,0,0,0,0,0,0,0,1213.81,29.2631,-1,-0.19685,110.35,0
     0,0,0,0,0,0,0,0,0,1006.04,29.2631,-1,-0.19685,110.37,0
     0,0,0,0,0,0,0,0,0,1185.33,29.2631,-1,-0.173228,110.389,0
     0,0,0,0,0,0,0,0,0,1179.04,29.2631,-1,-0.15748,110.41,0
     0,0,0,0,0,0,0,0,0,1090.57,29.2631,-1,-0.125984,110.43,0
     0,0,0,0,0,0,0,0,0,1127.4,3.20045,-1,-0.102362,110.451,0
     0,0,0,0,0,0,0,0,0,1081.61,0,-1,-0.0866142,110.47,0
     0,0,0,0,0,0,0,0,0,1132.63,-38.3497,-1,-0.0708661,110.49,0
     0,0,0,0,0,0,0,0,0,1062.08,-75.657,-1,-0.0551181,110.51,0
     0,0,0,0,0,0,0,0,0,1151.28,-107.88,-1,-0.0314961,110.53,0
     0,0,0,0,0,0,0,0,0,1067.52,-180.546,-1,-0.00787402,110.55,0
     0,0,0,0,0,0,0,0,0,1325.29,-311.643,-1,-0,110.57,0
     0,0,0,0,0,0,0,0,0,1206.13,-311.308,-1,0.0078125,110.59,0
     0,0,0,0,0,0,0,0,0,1149.69,-385.312,-0.90625,0.0078125,110.61,0
     0,0,0,0,0,0,0,0,0,1145.41,-412.967,-0.65625,0.0078125,110.63,0
     0,0,0,0,0,0,0,0,0,1036.48,-392.165,-0.421875,0.0078125,110.65,0
     0,0,0,0,0,0,0,0,0,1070.95,-325.489,-0.117188,0.0078125,110.669,0
     0,0,0,0,0,0,0,0,0,875.197,-507.576,-0.0234375,0.0078125,110.69,0
     0,0,0,0,0,0,0,0,0,587.389,-672.518,-0.0078125,0.0078125,110.709,0
     0,0,0,0,0,0,0,0,0,767.843,-551.602,-0.0078125,0.0078125,110.73,0
     0,0,0,0,0,0,0,0,0,759.157,-500.651,-0.0078125,0.0078125,110.75,0
     0,0,0,0,0,0,0,0,0,628.496,-563.126,-0.0078125,0.0078125,110.77,0
     0,0,0,0,0,0,0,0,0,610.165,-569.249,-0.0078125,0.0078125,110.791,0
     0,0,0,0,0,0,0,0,0,571.38,-530.532,-0.0078125,0.0078125,110.816,0
     0,0,0,0,0,0,0,0,0,572.738,-611.453,-0.0078125,0.0078125,110.83,0
     0,0,0,0,0,0,0,0,0,494.071,-556.808,-0.0078125,0.0078125,110.85,0
     0,0,0,0,0,0,0,0,0,508.789,-547.256,-0.0078125,0.0078125,110.87,0
     0,0,0,0,0,0,0,0,0,466.843,-577.684,-0.0078125,0.0078125,110.89,0
     0,0,0,0,0,0,0,0,0,537.909,-511.561,-0.0078125,0.0078125,110.91,0
     0,0,0,0,0,0,0,0,0,535.017,-537.953,-0.0078125,0.0078125,110.93,0
     0,0,0,0,0,0,0,0,0,431.09,-484.766,-0.0078125,0.0078125,110.952,0
     0,0,0,0,0,0,0,0,0,438.059,-466.287,-0.0078125,0.0078125,110.97,0
     0,0,0,0,0,0,0,0,0,459.675,-521.934,-0.0078125,0.0078125,110.99,0
     0,0,0,0,0,0,0,0,0,463.8,-443.223,-0.0078125,0.0078125,111.01,0
     0,0,0,0,0,0,0,0,0,419.965,-502.109,-0.0078125,0.0078125,111.03,0
     0,0,0,0,0,0,0,0,0,475.048,-488.257,-0.0078125,0.0078125,111.05,0
     0,0,0,0,0,0,0,0,0,389.826,-393.879,-0.0078125,0.0078125,111.07,0
     0,0,0,0,0,0,0,0,0,360.282,-371.23,-0.0078125,0.0078125,111.09,0
     0,0,0,0,0,0,0,0,0,365.738,-380.17,-0.0078125,0.0078125,111.11,0
     0,0,0,0,0,0,0,0,0,375.249,-361.5,-0.0078125,0.0078125,111.13,0
     0,0,0,0,0,0,0,0,0,359.253,-403.747,-0.0078125,0.0078125,111.15,0
     0,0,0,0,0,0,0,0,0,360.218,-330.764,-0.0078125,0.0078125,111.17,0
     0,0,0,0,0,0,0,0,0,328.208,-313.249,-0.0078125,0.0078125,111.19,0
     0,0,0,0,0,0,0,0,0,319.494,-269.204,-0.0078125,0.0078125,111.21,0
     0,0,0,0,0,0,0,0,0,308.685,-247.482,-0.0078125,0.0078125,111.23,0
     0,0,0,0,0,0,0,0,0,282.024,-245.293,-0.0078125,0.0078125,111.25,0
     0,0,0,0,0,0,0,0,0,269.858,-283.897,-0.0078125,0.0078125,111.271,0
     0,0,0,0,0,0,0,0,0,275.122,-282.171,-0.0078125,0.0078125,111.291,0
     0,0,0,0,0,0,0,0,0,241.167,-225.533,-0.0078125,0.0078125,111.31,0
     0,0,0,0,0,0,0,0,0,200.922,-210.631,-0.0078125,0.0078125,111.33,0
     0,0,0,0,0,0,0,0,0,185.577,-205.85,-0.0078125,0.0078125,111.35,0
     0,0,0,0,0,0,0,0,0,159.415,-169.057,-0.0078125,0.0078125,111.37,0
     0,0,0,0,0,0,0,0,0,160.569,-141.179,-0.0078125,0.0078125,111.39,0
     0,0,0,0,0,0,0,0,0,143.503,-139.417,-0.0078125,0.0078125,111.41,0
     0,0,0,0,0,0,0,0,0,120.865,-120.426,0,0.0078125,111.43,0
     0,0,0,0,0,0,0,0,0,103.187,-104.809,0.00787402,0.0078125,111.45,0
     0,0,0,0,0,0,0,0,0,83.1653,-85.9516,0.0314961,0.0078125,111.47,0
     0,0,0,0,0,0,0,0,0,59.0361,-69.278,0.0629921,0.0078125,111.49,0
     0,0,0,0,0,0,0,0,0,36.573,-50.4466,0.0866142,0.0078125,111.511,0
     0,0,0,0,0,0,0,0,0,36.573,-41.8127,0.133858,0.0078125,111.529,0
     0,0,0,0,0,0,0,0,0,36.573,-9.63923,0.173228,-0.0629921,111.549,0
     0,0,0,0,0,0,0,0,0,-6.33423,8.86934,0.220472,-0.125984,111.569,0
     0,0,0,0,0,0,0,0,0,-63.3475,41.4555,0.251969,-0.165354,111.589,0
     0,0,0,0,0,0,0,0,0,-75.7731,66.9896,0.251969,-0.204724,111.61,0
     0,0,0,0,0,0,0,0,0,-95.9702,102.016,0.259843,-0.23622,111.63,0
     0,0,0,0,0,0,0,0,0,-104.486,114.045,0.259843,-0.251969,111.65,0
     0,0,0,0,0,0,0,0,0,-151.822,148.045,0.259843,-0.259843,111.67,0
     0,0,0,0,0,0,0,0,0,-193.996,139.32,0.267717,-0.283465,111.69,0
     0,0,0,0,0,0,0,0,0,-204.292,217.54,0.267717,-0.314961,111.71,0
     0,0,0,0,0,0,0,0,0,-207.896,247.911,0.267717,-0.322835,111.73,0
     0,0,0,0,0,0,0,0,0,-280.525,229.901,0.267717,-0.330709,111.751,0
     0,0,0,0,0,0,0,0,0,-294.2,325.309,0.267717,-0.330709,111.769,0
     0,0,0,0,0,0,0,0,0,-291.384,301.741,0.267717,-0.330709,111.792,0
     0,0,0,0,0,0,0,0,0,-231.57,303.113,0.267717,-0.330709,111.814,0
     0,0,0,0,0,0,0,0,0,-329.772,293.341,0.275591,-0.330709,111.833,0
     0,0,0,0,0,0,0,0,0,-356.201,196.092,0.283465,-0.330709,111.85,0
     0,0,0,0,0,0,0,0,0,-402.099,327.654,0.299213,-0.330709,111.87,0
     0,0,0,0,0,0,0,0,0,-433.651,397.947,0.307087,-0.330709,111.89,0
     0,0,0,0,0,0,0,0,0,-424.637,368.473,0.307087,-0.330709,111.91,0
     0,0,0,0,0,0,0,0,0,-404.678,449.741,0.307087,-0.330709,111.954,0
     0,0,0,0,0,0,0,0,0,-450.907,412.763,0.307087,-0.330709,111.957,0
     0,0,0,0,0,0,0,0,0,-413.42,362.851,0.314961,-0.330709,111.969,0
     0,0,0,0,0,0,0,0,0,-444.514,467.202,0.314961,-0.330709,111.99,0
     0,0,0,0,0,0,0,0,0,-392.65,446.818,0.314961,-0.330709,112.01,0
     0,0,0,0,0,0,0,0,0,-458.61,447.357,0.314961,-0.330709,112.03,0
     0,0,0,0,0,0,0,0,0,-450.806,397.606,0.314961,-0.330709,112.05,0
     0,0,0,0,0,0,0,0,0,-483.582,423.021,0.314961,-0.330709,112.07,0
     0,0,0,0,0,0,0,0,0,-464.479,479.996,0.314961,-0.330709,112.091,0
     0,0,0,0,0,0,0,0,0,-471.776,395.656,0.314961,-0.330709,112.134,0
     0,0,0,0,0,0,0,0,0,-477.065,442.214,0.314961,-0.330709,112.149,0
     0,0,0,0,0,0,0,0,0,-473.653,463.231,0.314961,-0.251969,112.169,0
     0,0,0,0,0,0,0,0,0,-483.898,465.127,0.314961,-0.220472,112.191,0
     0,0,0,0,0,0,0,0,0,-453.165,478.755,0.314961,-0.181102,112.21,0
     0,0,0,0,0,0,0,0,0,-476.463,466.766,0.314961,-0.141732,112.23,0
     0,0,0,0,0,0,0,0,0,-490.064,366.683,0.314961,-0.0787402,112.251,0
     0,0,0,0,0,0,0,0,0,-434.216,326.979,0.314961,-0.0393701,112.27,0
     0,0,0,0,0,0,0,0,0,-472.713,411.269,0.314961,-0.00787402,112.29,0
     0,0,0,0,0,0,0,0,0,-386.757,375.15,0.314961,0.0078125,112.311,0
     0,0,0,0,0,0,0,0,0,-440.937,425.622,0.322835,0.0078125,112.33,0
     0,0,0,0,0,0,0,0,0,-452.817,432.47,0.330709,0.0078125,112.35,0
     0,0,0,0,0,0,0,0,0,-486.772,411.565,0.338583,0.0078125,112.369,0
     0,0,0,0,0,0,0,0,0,-452.366,382.709,0.346457,0.0078125,112.39,0
     0,0,0,0,0,0,0,0,0,-305.33,420.265,0.354331,0.0078125,112.41,0
     0,0,0,0,0,0,0,0,0,-462.62,389.909,0.377953,0.0078125,112.43,0
     0,0,0,0,0,0,0,0,0,-537.158,347.76,0.409449,0.0078125,112.45,0
     0,0,0,0,0,0,0,0,0,-411.243,510.087,0.488189,0.0078125,112.474,0
     0,0,0,0,0,0,0,0,0,-466.657,399.856,0.574803,0.0078125,112.49,0
     0,0,0,0,0,0,0,0,0,-488.627,424.809,0.653543,0.0078125,112.511,0
     0,0,0,0,0,0,0,0,0,-552.99,358.629,0.740157,0.0078125,112.529,0
     0,0,0,0,0,0,0,0,0,-709.547,460.426,0.795276,0.0078125,112.55,0
     0,0,0,0,0,0,0,0,0,-597.872,521.349,0.874016,0.0078125,112.578,0
     0,0,0,0,0,0,0,0,0,-680.897,446.468,0.929134,0.0078125,112.589,0
     0,0,0,0,0,0,0,0,0,-576.385,447.187,0.976378,0.0078125,112.61,0
     0,0,0,0,0,0,0,0,0,-820.479,564.048,1,0.0078125,112.63,0
     0,0,0,0,0,0,0,0,0,-902.894,470.954,1,0.0078125,112.65,0
     0,0,0,0,0,0,0,0,0,-946.477,529.045,1,0.03125,112.67,0
     0,0,0,0,0,0,0,0,0,-959.785,424.376,1,0.0859375,112.69,0
     0,0,0,0,0,0,0,0,0,-985.367,338.69,1,0.132812,112.71,0
     0,0,0,0,0,0,0,0,0,-1045.26,264.827,1,0.140625,112.73,0
     0,0,0,0,0,0,0,0,0,-1098.78,150.706,1,0.140625,112.749,0
     0,0,0,0,0,0,0,0,0,-1098.12,164.943,1,0.140625,112.77,0
     0,0,0,0,0,0,0,0,0,-976.276,90.0657,1,0.140625,112.79,0
     0,0,0,0,0,0,0,0,0,-928.764,82.3716,1,0.140625,112.811,0
     0,0,0,0,0,0,0,0,0,-963.948,116.964,1,0.140625,112.835,0
     0,0,0,0,0,0,0,0,0,-1180.99,119.854,1,0.140625,112.85,0
     0,0,0,0,0,0,0,0,0,-1121.7,126.986,1,0.140625,112.87,0
     0,0,0,0,0,0,0,0,0,-941.354,121.434,1,0.140625,112.89,0
     0,0,0,0,0,0,0,0,0,-951.113,88.6211,1,0.140625,112.91,0
     0,0,0,0,0,0,0,0,0,-954.608,83.626,1,0.140625,112.93,0
     0,0,0,0,0,0,0,0,0,-1063.94,81.1949,1,0.140625,112.95,0
     0,0,0,0,0,0,0,0,0,-1071.75,59.8115,1,0.140625,112.97,0
     0,0,0,0,0,0,0,0,0,-980.152,59.8115,1,0.140625,112.991,0
     0,0,0,0,0,0,0,0,0,-1088.44,16.8819,1,0.140625,113.023,0
     0,0,0,0,0,0,0,0,0,-916.422,16.8819,1,0.140625,113.031,0
     0,0,0,0,0,0,0,0,0,-1110.19,4.74925,1,0.140625,113.062,0
     0,0,0,0,0,0,0,0,0,-1108.95,4.74925,1,0.140625,113.07,0
     0,0,0,0,0,0,0,0,0,-1061.06,4.74925,1,0.140625,113.09,0
     0,0,0,0,0,0,0,0,0,-1043.9,0,1,0.140625,113.109,0
     0,0,0,0,0,0,0,0,0,-1233.5,0,1,0.140625,113.129,0
     0,0,0,0,0,0,0,0,0,-945.895,0,1,0.140625,113.149,0
     0,0,0,0,0,0,0,0,0,-998.652,0,1,0.140625,113.17,0
     0,0,0,0,0,0,0,0,0,-1047.5,0,0.826772,0.140625,113.191,0
     0,0,0,0,0,0,0,0,0,-1124.92,0,0.677165,0.140625,113.21,0
     0,0,0,0,0,0,0,0,0,-968.242,0,0.370079,0.140625,113.23,0
     0,0,0,0,0,0,0,0,0,-879.16,0,0.19685,0.140625,113.25,0
     0,0,0,0,0,0,0,0,0,-644.268,0,0.023622,0.140625,113.27,0
     0,0,0,0,0,0,0,0,0,-752.7,-1.5454,-0.0078125,0.140625,113.29,0
     0,0,0,0,0,0,0,0,0,-582.089,-4.79684,-0.0078125,0.140625,113.31,0
     0,0,0,0,0,0,0,0,0,-582.276,-41.5034,-0.0390625,0.140625,113.331,0
     0,0,0,0,0,0,0,0,0,-603.5,-61.922,-0.101562,0.140625,113.351,0
     0,0,0,0,0,0,0,0,0,-501.706,-45.6883,-0.234375,0.140625,113.369,0
     0,0,0,0,0,0,0,0,0,-320.056,-36.8556,-0.335938,0.140625,113.391,0
     0,0,0,0,0,0,0,0,0,-239.295,-58.984,-0.484375,0.140625,113.411,0
     0,0,0,0,0,0,0,0,0,-113.176,-87.1141,-0.5625,0.140625,113.434,0
     0,0,0,0,0,0,0,0,0,-59.8401,-107.793,-0.671875,0.140625,113.45,0
     0,0,0,0,0,0,0,0,0,38.7042,-161.346,-0.742188,0.140625,113.47,0
     0,0,0,0,0,0,0,0,0,186.7,-148.532,-0.84375,0.140625,113.49,0
     0,0,0,0,0,0,0,0,0,302.572,-229.864,-0.90625,0.140625,113.511,0
     0,0,0,0,0,0,0,0,0,483.115,-198.306,-0.96875,0.140625,113.529,0
     0,0,0,0,0,0,0,0,0,501.128,-259.091,-0.984375,0.140625,113.549,0
     0,0,0,0,0,0,0,0,0,554.77,-227.467,-0.992188,0.140625,113.569,0
     0,0,0,0,0,0,0,0,0,645.494,-254.004,-0.992188,0.140625,113.59,0
     0,0,0,0,0,0,0,0,0,769.912,-287.455,-1,0.140625,113.609,0
     0,0,0,0,0,0,0,0,0,824.742,-261.11,-1,0.078125,113.63,0
     0,0,0,0,0,0,0,0,0,810.209,-276.855,-1,0.078125,113.65,0
     0,0,0,0,0,0,0,0,0,867.002,-290.495,-1,0.078125,113.681,0
     0,0,0,0,0,0,0,0,0,834.376,-251.323,-1,0.078125,113.69,0
     0,0,0,0,0,0,0,0,0,976.992,-298.565,-1,0.078125,113.712,0
     0,0,0,0,0,0,0,0,0,889.047,-278.172,-1,0.078125,113.73,0
     0,0,0,0,0,0,0,0,0,1007.25,-313.44,-1,0.078125,113.751,0
     0,0,0,0,0,0,0,0,0,1028.59,-347.301,-1,0.078125,113.77,0
     0,0,0,0,0,0,0,0,0,1049.76,-296.665,-1,0.078125,113.79,0
     0,0,0,0,0,0,0,0,0,1047.28,-304.109,-1,0.078125,113.81,0
     0,0,0,0,0,0,0,0,0,1003.11,-368.874,-1,0.078125,113.829,0
     0,0,0,0,0,0,0,0,0,1017.19,-418.454,-0.929688,0.164062,113.875,0
     0,0,0,0,0,0,0,0,0,1124.29,-357.079,-0.929688,0.164062,113.877,0
     0,0,0,0,0,0,0,0,0,961.076,-360.887,-0.890625,0.242188,113.89,0
     0,0,0,0,0,0,0,0,0,985.853,-368.128,-0.789062,0.359375,113.91,0
     0,0,0,0,0,0,0,0,0,863.26,-330.83,-0.75,0.421875,113.93,0
     0,0,0,0,0,0,0,0,0,988.386,-639.407,-0.679688,0.460938,113.951,0
     0,0,0,0,0,0,0,0,0,980.584,-612.014,-0.617188,0.515625,113.969,0
     0,0,0,0,0,0,0,0,0,838.047,-760.081,-0.5,0.648438,113.992,0
     0,0,0,0,0,0,0,0,0,790.952,-769.764,-0.5,0.648438,114.017,0
     0,0,0,0,0,0,0,0,0,845.737,-934.579,-0.4375,0.757812,114.03,0
     0,0,0,0,0,0,0,0,0,785.978,-990.05,-0.398438,0.796875,114.05,0
     0,0,0,0,0,0,0,0,0,768.905,-949.307,-0.359375,0.820312,114.07,0
     0,0,0,0,0,0,0,0,0,821.76,-906.659,-0.351562,0.835938,114.09,0
     0,0,0,0,0,0,0,0,0,670.107,-874.852,-0.351562,0.835938,114.11,0
     0,0,0,0,0,0,0,0,0,802.987,-894.294,-0.351562,0.851562,114.13,0
     0,0,0,0,0,0,0,0,0,781.006,-979.528,-0.34375,0.859375,114.15,0
     0,0,0,0,0,0,0,0,0,697.18,-1070.43,-0.34375,0.867188,114.17,0
     0,0,0,0,0,0,0,0,0,806.127,-984.834,-0.34375,0.867188,114.19,0
     0,0,0,0,0,0,0,0,0,801.025,-1140.71,-0.34375,0.875,114.22,0
     0,0,0,0,0,0,0,0,0,808.767,-795.323,-0.34375,0.875,114.231,0
     0,0,0,0,0,0,0,0,0,753.949,-1062.25,-0.34375,0.875,114.25,0
     0,0,0,0,0,0,0,0,0,678.127,-956.617,-0.34375,0.875,114.27,0
     0,0,0,0,0,0,0,0,0,741.95,-990.589,-0.34375,0.875,114.29,0
     0,0,0,0,0,0,0,0,0,755.944,-1049.65,-0.34375,0.875,114.31,0
     0,0,0,0,0,0,0,0,0,723.301,-903.506,-0.34375,0.875,114.33,0
     0,0,0,0,0,0,0,0,0,724.743,-828.26,-0.34375,0.78125,114.35,0
     0,0,0,0,0,0,0,0,0,677.53,-1090.57,-0.34375,0.742188,114.37,0
     0,0,0,0,0,0,0,0,0,707.264,-962.927,-0.34375,0.703125,114.39,0
     0,0,0,0,0,0,0,0,0,664.209,-995.421,-0.34375,0.664062,114.41,0
     0,0,0,0,0,0,0,0,0,723.118,-920.387,-0.34375,0.640625,114.43,0
     0,0,0,0,0,0,0,0,0,713.19,-853.388,-0.34375,0.609375,114.45,0
     0,0,0,0,0,0,0,0,0,748.335,-799.297,-0.34375,0.59375,114.47,0
     0,0,0,0,0,0,0,0,0,732.386,-585.069,-0.429688,0.578125,114.49,0
     0,0,0,0,0,0,0,0,0,800.897,-1049.43,-0.492188,0.53125,114.511,0
     0,0,0,0,0,0,0,0,0,848.788,-850.34,-0.539062,0.46875,114.53,0
     0,0,0,0,0,0,0,0,0,795.988,-871.042,-0.609375,0.4375,114.55,0
     0,0,0,0,0,0,0,0,0,927.558,-800.384,-0.640625,0.40625,114.57,0
     0,0,0,0,0,0,0,0,0,876.578,-805.672,-0.664062,0.40625,114.589,0
     0,0,0,0,0,0,0,0,0,930.752,-919.287,-0.679688,0.40625,114.609,0
     0,0,0,0,0,0,0,0,0,963.948,-835.911,-0.6875,0.40625,114.629,0
     0,0,0,0,0,0,0,0,0,821.591,-917.726,-0.710938,0.40625,114.65,0
     0,0,0,0,0,0,0,0,0,885.504,-789.952,-0.710938,0.40625,114.67,0
     0,0,0,0,0,0,0,0,0,1025.8,-794.281,-0.710938,0.40625,114.691,0
     0,0,0,0,0,0,0,0,0,843.739,-812.513,-0.710938,0.40625,114.71,0
     0,0,0,0,0,0,0,0,0,904.323,-677.186,-0.710938,0.40625,114.73,0
     0,0,0,0,0,0,0,0,0,952.925,-775.916,-0.710938,0.40625,114.75,0
     0,0,0,0,0,0,0,0,0,936.549,-761.296,-0.710938,0.40625,114.769,0
     0,0,0,0,0,0,0,0,0,976.038,-801.025,-0.710938,0.46875,114.79,0
     0,0,0,0,0,0,0,0,0,867.115,-608.439,-0.710938,0.492188,114.81,0
     0,0,0,0,0,0,0,0,0,928.678,-1016.05,-0.710938,0.515625,114.83,0
     0,0,0,0,0,0,0,0,0,878.889,-909.174,-0.710938,0.53125,114.85,0
     0,0,0,0,0,0,0,0,0,837.135,-784.314,-0.710938,0.546875,114.87,0
     0,0,0,0,0,0,0,0,0,969.697,-883.353,-0.710938,0.554688,114.89,0
     0,0,0,0,0,0,0,0,0,974.421,-636.395,-0.710938,0.5625,114.91,0
     0,0,0,0,0,0,0,0,0,839.701,-896.459,-0.710938,0.570312,114.93,0
     0,0,0,0,0,0,0,0,0,953.289,-866.664,-0.710938,0.59375,114.95,0
     0,0,0,0,0,0,0,0,0,1048.99,-1069.63,-0.640625,0.609375,114.97,0
     0,0,0,0,0,0,0,0,0,983.284,-979.288,-0.632812,0.617188,114.99,0
     0,0,0,0,0,0,0,0,0,1008.37,-977.852,-0.632812,0.617188,115.009,0
     0,0,0,0,0,0,0,0,0,1027.54,-1205.62,-0.632812,0.617188,115.029,0
     0,0,0,0,0,0,0,0,0,913.993,-1045.48,-0.632812,0.617188,115.049,0
     0,0,0,0,0,0,0,0,0,1092.9,-983.429,-0.632812,0.617188,115.07,0
     0,0,0,0,0,0,0,0,0,1021.14,-814.001,-0.632812,0.617188,115.09,0
     0,0,0,0,0,0,0,0,0,954.426,-841.326,-0.632812,0.617188,115.11,0
     0,0,0,0,0,0,0,0,0,974.042,-984.446,-0.632812,0.617188,115.13,0
     0,0,0,0,0,0,0,0,0,1042.21,-1134.88,-0.632812,0.617188,115.15,0
     0,0,0,0,0,0,0,0,0,984.3,-1097.88,-0.632812,0.617188,115.17,0
     0,0,0,0,0,0,0,0,0,905.469,-822.639,-0.632812,0.617188,115.19,0
     0,0,0,0,0,0,0,0,0,953.153,-860.993,-0.632812,0.554688,115.21,0
     0,0,0,0,0,0,0,0,0,1101.44,-1022.29,-0.632812,0.554688,115.23,0
     0,0,0,0,0,0,0,0,0,955.977,-944.733,-0.632812,0.554688,115.251,0
     0,0,0,0,0,0,0,0,0,1048.49,-930.449,-0.632812,0.554688,115.27,0
     0,0,0,0,0,0,0,0,0,837.837,-878.928,-0.632812,0.554688,115.29,0
     0,0,0,0,0,0,0,0,0,976.038,-972.81,-0.632812,0.515625,115.31,0
     0,0,0,0,0,0,0,0,0,979.288,-952.699,-0.695312,0.476562,115.33,0
     0,0,0,0,0,0,0,0,0,944.778,-670.174,-0.71875,0.4375,115.35,0
     0,0,0,0,0,0,0,0,0,1112.9,-1387.35,-0.726562,0.421875,115.37,0
     0,0,0,0,0,0,0,0,0,1095.41,-969.086,-0.726562,0.421875,115.391,0
     0,0,0,0,0,0,0,0,0,995.471,-835.981,-0.726562,0.421875,115.41,0
     0,0,0,0,0,0,0,0,0,1052.13,-840.195,-0.742188,0.414062,115.43,0
     0,0,0,0,0,0,0,0,0,952.88,-866.176,-0.757812,0.40625,115.45,0
     0,0,0,0,0,0,0,0,0,1026.59,-972.999,-0.789062,0.398438,115.47,0
     0,0,0,0,0,0,0,0,0,978.139,-968.289,-0.804688,0.398438,115.49,0
     0,0,0,0,0,0,0,0,0,989.12,-1006.14,-0.8125,0.398438,115.51,0
     0,0,0,0,0,0,0,0,0,960.338,-952.744,-0.8125,0.390625,115.53,0
     0,0,0,0,0,0,0,0,0,1000.75,-968.804,-0.820312,0.390625,115.55,0
     0,0,0,0,0,0,0,0,0,1164.82,-965.344,-0.820312,0.390625,115.57,0
     0,0,0,0,0,0,0,0,0,1064.06,-958.865,-0.820312,0.390625,115.59,0
     0,0,0,0,0,0,0,0,0,1027.22,-768.02,-0.828125,0.390625,115.61,0
     0,0,0,0,0,0,0,0,0,1110.8,-906.331,-0.828125,0.367188,115.639,0
     0,0,0,0,0,0,0,0,0,1117.51,-909.794,-0.828125,0.351562,115.65,0
     0,0,0,0,0,0,0,0,0,970.073,-907.523,-0.828125,0.328125,115.67,0
     0,0,0,0,0,0,0,0,0,1037.02,-922.254,-0.828125,0.328125,115.691,0
     0,0,0,0,0,0,0,0,0,1006.39,-951.973,-0.828125,0.328125,115.71,0
     0,0,0,0,0,0,0,0,0,1055.69,-824.538,-0.828125,0.328125,115.729,0
     0,0,0,0,0,0,0,0,0,988.582,-945.582,-0.828125,0.328125,115.75,0
     0,0,0,0,0,0,0,0,0,1012.56,-924.513,-0.828125,0.328125,115.769,0
     0,0,0,0,0,0,0,0,0,992.408,-743.882,-0.828125,0.328125,115.794,0
     0,0,0,0,0,0,0,0,0,954.7,-844.63,-0.828125,0.328125,115.812,0
     0,0,0,0,0,0,0,0,0,1197.75,-805.769,-0.828125,0.328125,115.83,0
     0,0,0,0,0,0,0,0,0,1095.23,-739.235,-0.828125,0.328125,115.85,0
     0,0,0,0,0,0,0,0,0,1072.5,-807.526,-0.828125,0.328125,115.87,0
     0,0,0,0,0,0,0,0,0,1002.76,-764.234,-0.828125,0.328125,115.89,0
     0,0,0,0,0,0,0,0,0,1037.61,-782.167,-0.828125,0.328125,115.91,0
     0,0,0,0,0,0,0,0,0,985.367,-767.931,-0.828125,0.328125,115.93,0
     0,0,0,0,0,0,0,0,0,953.652,-894.855,-0.835938,0.328125,115.954,0
     0,0,0,0,0,0,0,0,0,1029.97,-1021.35,-0.84375,0.328125,115.97,0
     0,0,0,0,0,0,0,0,0,1051.41,-934.274,-0.851562,0.328125,116.007,0
     0,0,0,0,0,0,0,0,0,993.197,-898.594,-0.851562,0.328125,116.011,0
     0,0,0,0,0,0,0,0,0,1112.47,-815.461,-0.859375,0.320312,116.029,0
     0,0,0,0,0,0,0,0,0,993.098,-792.644,-0.867188,0.273438,116.053,0
     0,0,0,0,0,0,0,0,0,1112.29,-866.401,-0.867188,0.257812,116.07,0
     0,0,0,0,0,0,0,0,0,1032.68,-772.41,-0.875,0.25,116.089,0
     0,0,0,0,0,0,0,0,0,1157.07,-781.494,-0.875,0.25,116.109,0
     0,0,0,0,0,0,0,0,0,912.201,-772.41,-0.882812,0.25,116.148,0
     0,0,0,0,0,0,0,0,0,1057.42,-770.98,-0.882812,0.25,116.151,0
     0,0,0,0,0,0,0,0,0,1106.87,-753.807,-0.882812,0.242188,116.17,0
     0,0,0,0,0,0,0,0,0,1043.24,-718.262,-0.898438,0.21875,116.191,0
     0,0,0,0,0,0,0,0,0,1204.67,-582.547,-0.90625,0.203125,116.21,0
     0,0,0,0,0,0,0,0,0,1047.39,-692.593,-0.914062,0.179688,116.248,0
     0,0,0,0,0,0,0,0,0,1054.63,-545.063,-0.914062,0.179688,116.251,0
     0,0,0,0,0,0,0,0,0,1059.6,-597.746,-0.914062,0.140625,116.269,0
     0,0,0,0,0,0,0,0,0,1049.26,-580.973,-0.921875,0.0859375,116.289,0
     0,0,0,0,0,0,0,0,0,1029.71,-518.269,-0.921875,0.078125,116.31,0
     0,0,0,0,0,0,0,0,0,1061.97,-528.248,-0.921875,0.078125,116.33,0
     0,0,0,0,0,0,0,0,0,1131.67,-454.225,-0.921875,0.078125,116.35,0
     0,0,0,0,0,0,0,0,0,1022.81,-436.129,-0.921875,0.078125,116.37,0
     0,0,0,0,0,0,0,0,0,949.352,-464.317,-0.921875,0.078125,116.39,0
     0,0,0,0,0,0,0,0,0,993.443,-385.579,-0.921875,0.078125,116.41,0
     0,0,0,0,0,0,0,0,0,1069.06,-416.025,-0.921875,0.078125,116.43,0
     0,0,0,0,0,0,0,0,0,1119.38,-416.623,-0.921875,0.078125,116.449,0
     0,0,0,0,0,0,0,0,0,1194.32,-370.501,-0.921875,0.078125,116.469,0
     0,0,0,0,0,0,0,0,0,1136.69,-367.303,-0.921875,0.078125,116.497,0
     0,0,0,0,0,0,0,0,0,1199.26,-424.52,-0.921875,0.078125,116.528,0
     0,0,0,0,0,0,0,0,0,1069.8,-416.415,-0.921875,0.078125,116.531,0
     0,0,0,0,0,0,0,0,0,1102.9,-419.789,-0.929688,0.078125,116.551,0
     0,0,0,0,0,0,0,0,0,969.133,-527.872,-0.929688,0.140625,116.57,0
     0,0,0,0,0,0,0,0,0,1108.46,-415.326,-0.929688,0.164062,116.589,0
     0,0,0,0,0,0,0,0,0,992.753,-578.001,-0.929688,0.179688,116.611,0
     0,0,0,0,0,0,0,0,0,1094.75,-532.481,-0.929688,0.1875,116.63,0
     0,0,0,0,0,0,0,0,0,1083.95,-599.736,-0.929688,0.195312,116.65,0
     0,0,0,0,0,0,0,0,0,1122.9,-583.856,-0.929688,0.195312,116.67,0
     0,0,0,0,0,0,0,0,0,1111.79,-591.716,-0.929688,0.210938,116.69,0
     0,0,0,0,0,0,0,0,0,1096.19,-580.872,-0.929688,0.226562,116.716,0
     0,0,0,0,0,0,0,0,0,1238.77,-660.982,-0.929688,0.234375,116.732,0
     0,0,0,0,0,0,0,0,0,979.672,-569.979,-0.929688,0.234375,116.75,0
     0,0,0,0,0,0,0,0,0,1088.79,-496.796,-0.929688,0.234375,116.77,0
     0,0,0,0,0,0,0,0,0,1254.71,-667.379,-0.929688,0.234375,116.79,0
     0,0,0,0,0,0,0,0,0,1178.41,-537.837,-0.929688,0.234375,116.81,0
     0,0,0,0,0,0,0,0,0,1157.41,-458.337,-0.929688,0.234375,116.83,0
     0,0,0,0,0,0,0,0,0,1110.56,-668.003,-0.929688,0.234375,116.85,0
     0,0,0,0,0,0,0,0,0,1060.56,-603.737,-0.929688,0.234375,116.87,0
     0,0,0,0,0,0,0,0,0,972.337,-681.779,-0.929688,0.234375,116.89,0
     0,0,0,0,0,0,0,0,0,1089.98,-690.894,-0.929688,0.234375,116.91,0
     0,0,0,0,0,0,0,0,0,1061.46,-650.068,-0.929688,0.234375,116.93,0
     0,0,0,0,0,0,0,0,0,1115.76,-535.633,-0.929688,0.234375,116.95,0
     0,0,0,0,0,0,0,0,0,1034.23,-623.636,-0.929688,0.234375,116.97,0
     0,0,0,0,0,0,0,0,0,1088.67,-652.443,-0.929688,0.234375,116.99,0
     0,0,0,0,0,0,0,0,0,1116.01,-670.331,-0.929688,0.25,117.011,0
     0,0,0,0,0,0,0,0,0,1028.65,-590.249,-0.929688,0.273438,117.03,0
     0,0,0,0,0,0,0,0,0,1076.6,-631.532,-0.929688,0.289062,117.05,0
     0,0,0,0,0,0,0,0,0,1028.01,-690.226,-0.929688,0.296875,117.07,0
     0,0,0,0,0,0,0,0,0,1097.45,-687.427,-0.929688,0.3125,117.098,0
     0,0,0,0,0,0,0,0,0,1140.77,-641.807,-0.929688,0.335938,117.11,0
     0,0,0,0,0,0,0,0,0,1018.43,-757.892,-0.929688,0.367188,117.13,0
     0,0,0,0,0,0,0,0,0,1093.67,-804.764,-0.929688,0.382812,117.15,0
     0,0,0,0,0,0,0,0,0,1147.32,-784.068,-0.929688,0.390625,117.17,0
     0,0,0,0,0,0,0,0,0,1094.39,-924.599,-0.929688,0.390625,117.189,0
     0,0,0,0,0,0,0,0,0,1043.62,-642.24,-0.929688,0.390625,117.209,0
     0,0,0,0,0,0,0,0,0,1160.77,-863.111,-0.929688,0.390625,117.23,0
     0,0,0,0,0,0,0,0,0,1151.41,-740.604,-0.929688,0.390625,117.249,0
     0,0,0,0,0,0,0,0,0,1140.06,-844.88,-0.929688,0.390625,117.27,0
     0,0,0,0,0,0,0,0,0,1179.59,-720.228,-0.929688,0.398438,117.29,0
     0,0,0,0,0,0,0,0,0,1222.94,-646.872,-0.929688,0.398438,117.31,0
     0,0,0,0,0,0,0,0,0,1187.72,-846.31,-0.929688,0.398438,117.33,0
     0,0,0,0,0,0,0,0,0,1108.28,-844.131,-0.929688,0.398438,117.35,0
     0,0,0,0,0,0,0,0,0,1019.94,-766.783,-0.929688,0.398438,117.37,0
     0,0,0,0,0,0,0,0,0,1057.25,-894.775,-0.929688,0.398438,117.398,0
     0,0,0,0,0,0,0,0,0,1097.94,-831.152,-0.929688,0.398438,117.41,0
     0,0,0,0,0,0,0,0,0,1132.05,-654.986,-0.929688,0.398438,117.431,0
     0,0,0,0,0,0,0,0,0,1069.98,-859.107,-0.929688,0.398438,117.451,0
     0,0,0,0,0,0,0,0,0,1208.75,-702.247,-0.929688,0.398438,117.471,0
     0,0,0,0,0,0,0,0,0,1138.63,-878.31,-0.929688,0.398438,117.49,0
     0,0,0,0,0,0,0,0,0,1159.29,-737.354,-0.929688,0.398438,117.51,0
     0,0,0,0,0,0,0,0,0,1100.05,-717.077,-0.929688,0.398438,117.531,0
     0,0,0,0,0,0,0,0,0,1061.46,-1098.6,-0.929688,0.398438,117.549,0
     0,0,0,0,0,0,0,0,0,1178.27,-924.3,-0.929688,0.398438,117.586,0
     0,0,0,0,0,0,0,0,0,1136.88,-774.353,-0.929688,0.398438,117.591,0
     0,0,0,0,0,0,0,0,0,1314.58,-759.792,-0.929688,0.398438,117.61,0
     0,0,0,0,0,0,0,0,0,1180.01,-997.656,-0.929688,0.398438,117.638,0
     0,0,0,0,0,0,0,0,0,1112.72,-969.791,-0.929688,0.335938,117.65,0
     0,0,0,0,0,0,0,0,0,1117.32,-773.994,-0.929688,0.335938,117.67,0
     0,0,0,0,0,0,0,0,0,1228.05,-953.107,-0.929688,0.328125,117.696,0
     0,0,0,0,0,0,0,0,0,1150.75,-834.341,-0.929688,0.304688,117.71,0
     0,0,0,0,0,0,0,0,0,1155.33,-779.18,-0.929688,0.273438,117.729,0
     0,0,0,0,0,0,0,0,0,1162.93,-770.535,-0.929688,0.242188,117.749,0
     0,0,0,0,0,0,0,0,0,1146.26,-673.991,-0.929688,0.210938,117.77,0
     0,0,0,0,0,0,0,0,0,1137.4,-694.276,-0.929688,0.179688,117.789,0
     0,0,0,0,0,0,0,0,0,1165.5,-701.902,-0.929688,0.15625,117.81,0
     0,0,0,0,0,0,0,0,0,1133.47,-483.255,-0.929688,0.109375,117.836,0
     0,0,0,0,0,0,0,0,0,1220.78,-554.754,-0.929688,0.0859375,117.85,0
     0,0,0,0,0,0,0,0,0,1237.55,-576.485,-0.929688,0.0625,117.87,0
     0,0,0,0,0,0,0,0,0,1157.21,-547.315,-0.929688,0.0625,117.89,0
     0,0,0,0,0,0,0,0,0,1108.77,-516.369,-0.929688,0.046875,117.91,0
     0,0,0,0,0,0,0,0,0,1204.6,-534.831,-0.9375,0.03125,117.93,0
     0,0,0,0,0,0,0,0,0,1104.73,-452.755,-0.953125,0.0078125,117.95,0
     0,0,0,0,0,0,0,0,0,1027.54,-432.61,-0.984375,0.0078125,117.97,0
     0,0,0,0,0,0,0,0,0,1047.56,-611.303,-0.992188,0.0078125,117.991,0
     0,0,0,0,0,0,0,0,0,1019.47,-620.81,-0.992188,0.0078125,118.01,0
     0,0,0,0,0,0,0,0,0,1131.48,-548.366,-0.992188,0.0078125,118.03,0
     0,0,0,0,0,0,0,0,0,1272.18,-683.41,-0.992188,0.0078125,118.05,0
     0,0,0,0,0,0,0,0,0,1140.84,-749.26,-0.992188,0.0078125,118.07,0
     0,0,0,0,0,0,0,0,0,1170.28,-678.702,-0.992188,0.0078125,118.09,0
     0,0,0,0,0,0,0,0,0,1223.62,-732.038,-0.992188,0.0078125,118.11,0
     0,0,0,0,0,0,0,0,0,1034.13,-769.556,-0.992188,0.0078125,118.13,0
     0,0,0,0,0,0,0,0,0,1291.32,-726.269,-0.992188,0.0078125,118.15,0
     0,0,0,0,0,0,0,0,0,1237.93,-642.653,-0.992188,0.0078125,118.169,0
     0,0,0,0,0,0,0,0,0,1181.13,-819.471,-0.992188,0.0078125,118.193,0
     0,0,0,0,0,0,0,0,0,1301.15,-911.826,-0.992188,0.0078125,118.21,0
     0,0,0,0,0,0,0,0,0,1076.89,-631.014,-0.992188,0.0078125,118.23,0
     0,0,0,0,0,0,0,0,0,1116.07,-1117.01,-1,0.0078125,118.25,0
     0,0,0,0,0,0,0,0,0,1306.51,-912.367,-1,0.0078125,118.27,0
     0,0,0,0,0,0,0,0,0,1172.4,-927.042,-1,0.0078125,118.29,0
     0,0,0,0,0,0,0,0,0,1228.88,-767.784,-1,0.0078125,118.31,0
     0,0,0,0,0,0,0,0,0,1209.7,-833.299,-1,0.0078125,118.33,0
     0,0,0,0,0,0,0,0,0,1333.6,-1064.45,-1,0.0078125,118.35,0
     0,0,0,0,0,0,0,0,0,1224.44,-1201.78,-1,0.0078125,118.37,0
     0,0,0,0,0,0,0,0,0,1214.11,-1039.77,-1,0.0078125,118.389,0
     0,0,0,0,0,0,0,0,0,1197.1,-1122.4,-1,0.0078125,118.41,0
     0,0,0,0,0,0,0,0,0,1289.57,-1100.53,-1,0.0078125,118.43,0
     0,0,0,0,0,0,0,0,0,1169.52,-946.835,-1,0.0078125,118.449,0
     0,0,0,0,0,0,0,0,0,1220.48,-1131.73,-1,0.0078125,118.47,0
     0,0,0,0,0,0,0,0,0,1250.78,-699.986,-1,0.0078125,118.491,0
     0,0,0,0,0,0,0,0,0,1190.48,-1086.48,-1,0.0078125,118.51,0
     0,0,0,0,0,0,0,0,0,1368.27,-1221.37,-1,0.0078125,118.53,0
     0,0,0,0,0,0,0,0,0,1210.07,-1158.88,-1,0.0078125,118.55,0
     0,0,0,0,0,0,0,0,0,1397.23,-1116.26,-1,0.0078125,118.569,0
     0,0,0,0,0,0,0,0,0,1310.7,-1079.86,-1,0.0078125,118.59,0
     0,0,0,0,0,0,0,0,0,1291.57,-1276.41,-1,0.0078125,118.61,0
     0,0,0,0,0,0,0,0,0,1201.06,-1194.17,-1,0.0078125,118.63,0
     0,0,0,0,0,0,0,0,0,1231.22,-1074.11,-1,0.0078125,118.65,0
     0,0,0,0,0,0,0,0,0,1269.44,-1135.78,-1,0.0078125,118.67,0
     0,0,0,0,0,0,0,0,0,1286.09,-1196.6,-1,0.0078125,118.69,0
     0,0,0,0,0,0,0,0,0,1244.63,-1111.48,-1,0.0078125,118.709,0
     0,0,0,0,0,0,0,0,0,1526.37,-1265.5,-1,0.0078125,118.73,0
     0,0,0,0,0,0,0,0,0,1397.43,-1131.67,-1,0.0078125,118.75,0
     0,0,0,0,0,0,0,0,0,1207.44,-1220.55,-1,0.0078125,118.77,0
     0,0,0,0,0,0,0,0,0,1428.06,-1035.25,-1,-0,118.79,0
     0,0,0,0,0,0,0,0,0,1237.7,-1460.17,-1,-0.015748,118.81,0
     0,0,0,0,0,0,0,0,0,1188.5,-1070.95,-1,-0.0629921,118.831,0
     0,0,0,0,0,0,0,0,0,1419.75,-873.859,-1,-0.110236,118.849,0
     0,0,0,0,0,0,0,0,0,1233.88,-580.602,-1,-0.149606,118.869,0
     0,0,0,0,0,0,0,0,0,1265.18,-363.617,-1,-0.19685,118.89,0
     0,0,0,0,0,0,0,0,0,1238.01,-235.835,-1,-0.275591,118.91,0
     0,0,0,0,0,0,0,0,0,1250.86,-115.138,-1,-0.330709,118.93,0
     0,0,0,0,0,0,0,0,0,1287.08,-87.7024,-1,-0.440945,118.95,0
     0,0,0,0,0,0,0,0,0,1383.32,-15.2624,-1,-0.503937,118.97,0
     0,0,0,0,0,0,0,0,0,1190.76,26.7386,-1,-0.614173,118.99,0
     0,0,0,0,0,0,0,0,0,1130.52,68.9539,-1,-0.700787,119.01,0
     0,0,0,0,0,0,0,0,0,1268.79,228.165,-1,-0.76378,119.03,0
     0,0,0,0,0,0,0,0,0,1220.11,289.918,-1,-0.850394,119.05,0
     0,0,0,0,0,0,0,0,0,1149.95,353.613,-1,-0.929134,119.071,0
     0,0,0,0,0,0,0,0,0,1183.01,608.995,-1,-0.96063,119.09,0
     0,0,0,0,0,0,0,0,0,1143.97,523.697,-1,-0.976378,119.11,0
     0,0,0,0,0,0,0,0,0,1040.15,615.366,-1,-0.976378,119.13,0
     0,0,0,0,0,0,0,0,0,1127.14,591.349,-1,-0.976378,119.149,0
     0,0,0,0,0,0,0,0,0,1206.78,623.286,-1,-0.976378,119.17,0
     0,0,0,0,0,0,0,0,0,1161.37,757.461,-1,-0.976378,119.19,0
     0,0,0,0,0,0,0,0,0,1092.84,841.822,-1,-0.976378,119.21,0
     0,0,0,0,0,0,0,0,0,1015.8,707.414,-1,-0.905512,119.23,0
     0,0,0,0,0,0,0,0,0,1065.7,654.664,-1,-0.897638,119.261,0
     0,0,0,0,0,0,0,0,0,1041.02,784.252,-1,-0.889764,119.269,0
     0,0,0,0,0,0,0,0,0,1007.76,623.383,-1,-0.889764,119.29,0
     0,0,0,0,0,0,0,0,0,1089.86,657.938,-1,-0.88189,119.31,0
     0,0,0,0,0,0,0,0,0,947.508,648.761,-1,-0.88189,119.33,0
     0,0,0,0,0,0,0,0,0,1000.1,591.034,-1,-0.88189,119.349,0
     0,0,0,0,0,0,0,0,0,1035.25,561.766,-1,-0.88189,119.37,0
     0,0,0,0,0,0,0,0,0,999.7,641.581,-1,-0.88189,119.39,0
     0,0,0,0,0,0,0,0,0,945.761,588.46,-1,-0.88189,119.41,0
     0,0,0,0,0,0,0,0,0,977.422,622.781,-1,-0.795276,119.433,0
     0,0,0,0,0,0,0,0,0,980.248,759.013,-1,-0.629921,119.45,0
     0,0,0,0,0,0,0,0,0,929.023,623.403,-1,-0.629921,119.47,0
     0,0,0,0,0,0,0,0,0,1026.17,575.275,-1,-0.0551181,119.49,0
     0,0,0,0,0,0,0,0,0,1039.72,352.939,-1,0.0078125,119.511,0
     0,0,0,0,0,0,0,0,0,861.215,153.648,-1,0.0078125,119.531,0
     0,0,0,0,0,0,0,0,0,999.7,96.6244,-1,0.0078125,119.55,0
     0,0,0,0,0,0,0,0,0,940.734,-18.6165,-1,0.0078125,119.57,0
     0,0,0,0,0,0,0,0,0,1097.57,-141.136,-1,0.0078125,119.59,0
     0,0,0,0,0,0,0,0,0,1183.01,-216.039,-1,0.0078125,119.609,0
     0,0,0,0,0,0,0,0,0,1179.11,-290.263,-1,0.0390625,119.63,0
     0,0,0,0,0,0,0,0,0,1133.14,-254.952,-1,0.125,119.65,0
     0,0,0,0,0,0,0,0,0,1180.85,-261.732,-1,0.203125,119.67,0
     0,0,0,0,0,0,0,0,0,1111.79,-337.684,-1,0.359375,119.69,0
     0,0,0,0,0,0,0,0,0,1122.08,-366.267,-1,0.601562,119.71,0
     0,0,0,0,0,0,0,0,0,1191.4,-483.349,-1,0.835938,119.73,0
     0,0,0,0,0,0,0,0,0,981.981,-665.89,-1,0.945312,119.751,0
     0,0,0,0,0,0,0,0,0,1165.09,-768.344,-1,1,119.778,0
     0,0,0,0,0,0,0,0,0,1111.85,-854.263,-1,1,119.79,0
     0,0,0,0,0,0,0,0,0,1187.01,-956.755,-1,1,119.811,0
     0,0,0,0,0,0,0,0,0,1211.24,-959.187,-1,1,119.829,0
     0,0,0,0,0,0,0,0,0,1215.73,-975.705,-1,1,119.85,0
     0,0,0,0,0,0,0,0,0,1186.24,-1205.84,-1,1,119.878,0
     0,0,0,0,0,0,0,0,0,1267.67,-939.585,-1,1,119.89,0
     0,0,0,0,0,0,0,0,0,1166.32,-1243.09,-1,1,119.91,0
     0,0,0,0,0,0,0,0,0,1241.54,-1124.16,-1,1,119.93,0
     0,0,0,0,0,0,0,0,0,1330.23,-1222.34,-1,1,119.95,0
     0,0,0,0,0,0,0,0,0,1196.03,-1332.89,-1,1,119.97,0
     0,0,0,0,0,0,0,0,0,1280.08,-1120.76,-1,1,119.99,0
     0,0,0,0,0,0,0,0,0,1433.69,-1305.65,-1,1,120.01,0
     0,0,0,0,0,0,0,0,0,1438.43,-1357.31,-1,1,120.03,0
     0,0,0,0,0,0,0,0,0,1352.54,-1789.39,-1,1,120.05,0
     0,0,0,0,0,0,0,0,0,1456.98,-1428.16,-1,1,120.07,0
     0,0,0,0,0,0,0,0,0,1386.48,-1140.12,-1,1,120.09,0
     0,0,0,0,0,0,0,0,0,1417.64,-1319.87,-1,1,120.134,0
     0,0,0,0,0,0,0,0,0,1469.08,-1440.4,-1,1,120.137,0
     0,0,0,0,0,0,0,0,0,1478.09,-1353.27,-1,1,120.159,0
     0,0,0,0,0,0,0,0,0,1437.71,-1598.59,-1,1,120.17,0
     0,0,0,0,0,0,0,0,0,1415.93,-1346.62,-1,1,120.191,0
     0,0,0,0,0,0,0,0,0,1618.25,-1396.06,-1,1,120.21,0
     0,0,0,0,0,0,0,0,0,1495.22,-1669.03,-1,1,120.229,0
     0,0,0,0,0,0,0,0,0,1664.86,-1601.54,-1,1,120.25,0
     0,0,0,0,0,0,0,0,0,1433.69,-1625.75,-1,1,120.27,0
     0,0,0,0,0,0,0,0,0,1347.25,-1545.95,-1,1,120.319,0
     0,0,0,0,0,0,0,0,0,1618.91,-1491.98,-1,1,120.323,0
     0,0,0,0,0,0,0,0,0,1510.8,-1547.15,-1,1,120.342,0
     0,0,0,0,0,0,0,0,0,1394.12,-1626.68,-1,1,120.35,0
     0,0,0,0,0,0,0,0,0,1572.33,-1525.44,-1,1,120.37,0
     0,0,0,0,0,0,0,0,0,1403.11,-1397.04,-1,1,120.389,0
     0,0,0,0,0,0,0,0,0,1594.39,-1862.72,-1,1,120.41,0
     0,0,0,0,0,0,0,0,0,1694.63,-1575.18,-1,1,120.43,0
     0,0,0,0,0,0,0,0,0,1642.04,-1742.16,-1,1,120.45,0
     0,0,0,0,0,0,0,0,0,1688.05,-1624.3,-1,1,120.469,0
     0,0,0,0,0,0,0,0,0,1441.86,-1458.58,-1,1,120.49,0
     0,0,0,0,0,0,0,0,0,1590.84,-1600.64,-1,1,120.51,0
     0,0,0,0,0,0,0,0,0,1618.38,-1562.87,-1,1,120.53,0
     0,0,0,0,0,0,0,0,0,1554.97,-1178.83,-1,1,120.549,0
     0,0,0,0,0,0,0,0,0,1770.54,-1601.54,-1,1,120.569,0
     0,0,0,0,0,0,0,0,0,1765.69,-1687.76,-1,1,120.59,0
     0,0,0,0,0,0,0,0,0,1755.62,-1940.05,-1,1,120.61,0
     0,0,0,0,0,0,0,0,0,1400.66,-1895.38,-1,1,120.63,0
     0,0,0,0,0,0,0,0,0,1783.33,-1560.79,-1,1,120.65,0
     0,0,0,0,0,0,0,0,0,1586.04,-1433.08,-1,1,120.68,0
     0,0,0,0,0,0,0,0,0,1769.91,-1410.24,-1,1,120.691,0
     0,0,0,0,0,0,0,0,0,1734.76,-1422.88,-1,1,120.71,0
     0,0,0,0,0,0,0,0,0,1412.73,-1548.95,-1,1,120.73,0
     0,0,0,0,0,0,0,0,0,1734.45,-1615.12,-1,1,120.75,0
     0,0,0,0,0,0,0,0,0,1685.06,-1692.62,-1,1,120.771,0
     0,0,0,0,0,0,0,0,0,1624.96,-1691.62,-1,1,120.791,0
     0,0,0,0,0,0,0,0,0,1539.88,-1640.96,-1,1,120.809,0
     0,0,0,0,0,0,0,0,0,1515.27,-1445.19,-0.914062,1,120.83,0
     0,0,0,0,0,0,0,0,0,1658.65,-1413.43,-0.859375,1,120.85,0
     0,0,0,0,0,0,0,0,0,1516.19,-1583.03,-0.851562,1,120.87,0
     0,0,0,0,0,0,0,0,0,1585.41,-1926.04,-0.84375,1,120.89,0
     0,0,0,0,0,0,0,0,0,1616.68,-1328.99,-0.828125,1,120.911,0
     0,0,0,0,0,0,0,0,0,1619.17,-1530.81,-0.8125,1,120.931,0
     0,0,0,0,0,0,0,0,0,1602.69,-1798.08,-0.757812,1,120.951,0
     0,0,0,0,0,0,0,0,0,1606.3,-1945.53,-0.710938,1,120.97,0
     0,0,0,0,0,0,0,0,0,1475.36,-1760.56,-0.625,1,120.99,0
     0,0,0,0,0,0,0,0,0,1442.07,-1537.99,-0.554688,1,121.01,0
     0,0,0,0,0,0,0,0,0,1399.87,-1821.66,-0.453125,1,121.03,0
     0,0,0,0,0,0,0,0,0,1287,-1266.3,-0.367188,1,121.05,0
     0,0,0,0,0,0,0,0,0,1231.83,-1447.28,-0.210938,1,121.07,0
     0,0,0,0,0,0,0,0,0,1134.88,-1355.01,-0.078125,1,121.09,0
     0,0,0,0,0,0,0,0,0,868.923,-1357.87,-0.0234375,1,121.11,0
     0,0,0,0,0,0,0,0,0,789.952,-1406.47,-0.0078125,1,121.139,0
     0,0,0,0,0,0,0,0,0,893.775,-1516.53,-0.0078125,0.921875,121.15,0
     0,0,0,0,0,0,0,0,0,1122.65,-1480.38,-0.0078125,0.78125,121.17,0
     0,0,0,0,0,0,0,0,0,1106.81,-1065.36,-0.0078125,0.632812,121.19,0
     0,0,0,0,0,0,0,0,0,1176.19,-1492.76,-0.0078125,0.585938,121.217,0
     0,0,0,0,0,0,0,0,0,1209.85,-1161.37,-0.0078125,0.5625,121.231,0
     0,0,0,0,0,0,0,0,0,1312.25,-1240,-0.0078125,0.5625,121.25,0
     0,0,0,0,0,0,0,0,0,1147.97,-1004.02,-0.0078125,0.5625,121.27,0
     0,0,0,0,0,0,0,0,0,1302.17,-1302.93,-0.0078125,0.5625,121.289,0
     0,0,0,0,0,0,0,0,0,1221.97,-1468.32,-0.0078125,0.5625,121.31,0
     0,0,0,0,0,0,0,0,0,1375.99,-949.217,-0.0078125,0.5625,121.329,0
     0,0,0,0,0,0,0,0,0,1216.62,-1177.02,-0.0078125,0.625,121.35,0
     0,0,0,0,0,0,0,0,0,1129.69,-1095.41,-0.0078125,0.625,121.37,0
     0,0,0,0,0,0,0,0,0,1161.98,-1102.78,-0.0078125,0.625,121.391,0
     0,0,0,0,0,0,0,0,0,1114.08,-1239.7,-0.0078125,0.625,121.411,0
     0,0,0,0,0,0,0,0,0,1043.41,-1050.25,-0.0078125,0.632812,121.432,0
     0,0,0,0,0,0,0,0,0,1171.3,-1176.75,-0.0078125,0.695312,121.451,0
     0,0,0,0,0,0,0,0,0,1095.05,-1097.94,-0.0078125,0.757812,121.471,0
     0,0,0,0,0,0,0,0,0,1107.73,-1430.41,-0.0078125,0.867188,121.49,0
     0,0,0,0,0,0,0,0,0,974.659,-1108.83,-0.0078125,0.945312,121.51,0
     0,0,0,0,0,0,0,0,0,962.51,-1236.55,-0.0078125,0.960938,121.53,0
     0,0,0,0,0,0,0,0,0,1050.75,-1276.16,-0.0078125,0.976562,121.55,0
     0,0,0,0,0,0,0,0,0,998.054,-1257.78,-0.0078125,0.984375,121.569,0
     0,0,0,0,0,0,0,0,0,1114.77,-1245.1,-0.0078125,0.992188,121.589,0
     0,0,0,0,0,0,0,0,0,1072.39,-1320.57,-0.0078125,0.992188,121.61,0
     0,0,0,0,0,0,0,0,0,1249.77,-1324.15,0.00787402,1,121.629,0
     0,0,0,0,0,0,0,0,0,1080.85,-1332.98,0.023622,1,121.649,0
     0,0,0,0,0,0,0,0,0,1034.93,-1214.48,0.0393701,1,121.669,0
     0,0,0,0,0,0,0,0,0,915.625,-1258.18,0.0551181,1,121.69,0
     0,0,0,0,0,0,0,0,0,605.767,-1318.74,0.0866142,1,121.711,0
     0,0,0,0,0,0,0,0,0,457.917,-1092.3,0.133858,1,121.73,0
     0,0,0,0,0,0,0,0,0,388.742,-1254,0.212598,1,121.75,0
     0,0,0,0,0,0,0,0,0,179.588,-1270.33,0.291339,1,121.77,0
     0,0,0,0,0,0,0,0,0,107.618,-1206.35,0.440945,1,121.79,0
     0,0,0,0,0,0,0,0,0,71.7298,-1229.11,0.590551,1,121.81,0
     0,0,0,0,0,0,0,0,0,-39.0921,-1217.8,0.669291,1,121.83,0
     0,0,0,0,0,0,0,0,0,-143.491,-1298.2,0.771654,1,121.85,0
     0,0,0,0,0,0,0,0,0,-218.46,-1214.48,0.850394,0.882812,121.87,0
     0,0,0,0,0,0,0,0,0,-371.423,-1268.55,0.952756,0.703125,121.89,0
     0,0,0,0,0,0,0,0,0,-403.926,-1086.6,0.992126,0.351562,121.91,0
     0,0,0,0,0,0,0,0,0,-639.08,-947.373,1,0.0703125,121.929,0
     0,0,0,0,0,0,0,0,0,-742.06,-798.339,1,0.0078125,121.95,0
     0,0,0,0,0,0,0,0,0,-778.938,-582.717,1,0.0078125,121.969,0
     0,0,0,0,0,0,0,0,0,-796.654,-670.017,1,0.0078125,121.989,0
     0,0,0,0,0,0,0,0,0,-763.621,-467.421,1,0.0078125,122.01,0
     0,0,0,0,0,0,0,0,0,-750.976,-462.984,1,0.0078125,122.03,0
     0,0,0,0,0,0,0,0,0,-849.509,-533.106,1,0.0078125,122.049,0
     0,0,0,0,0,0,0,0,0,-925.969,-392.812,1,0.0078125,122.07,0
     0,0,0,0,0,0,0,0,0,-916.296,-364.451,1,0.0078125,122.09,0
     0,0,0,0,0,0,0,0,0,-898.876,-270.143,1,0.0078125,122.11,0
     0,0,0,0,0,0,0,0,0,-876.847,-227.899,1,0.0078125,122.13,0
     0,0,0,0,0,0,0,0,0,-853.497,-151.581,1,0.0078125,122.159,0
     0,0,0,0,0,0,0,0,0,-944.421,-132.814,1,0.0078125,122.17,0
     0,0,0,0,0,0,0,0,0,-910.374,-89.6986,1,0.0078125,122.19,0
     0,0,0,0,0,0,0,0,0,-1084.89,-67.9136,1,0.0078125,122.21,0
     0,0,0,0,0,0,0,0,0,-972.999,-56.8718,1,0.0078125,122.23,0
     0,0,0,0,0,0,0,0,0,-886.997,-56.8718,1,0.0078125,122.251,0
     0,0,0,0,0,0,0,0,0,-994.184,-56.8718,1,0.0078125,122.27,0
     0,0,0,0,0,0,0,0,0,-996.165,62.1475,0.740157,0.0078125,122.29,0
     0,0,0,0,0,0,0,0,0,-1127.46,88.2379,0.370079,0.0078125,122.31,0
     0,0,0,0,0,0,0,0,0,-858.922,91.594,0,0.0078125,122.33,0
     0,0,0,0,0,0,0,0,0,-605.4,120.491,-0.03125,0.0078125,122.35,0
     0,0,0,0,0,0,0,0,0,-402.528,113.003,-0.03125,0.0078125,122.37,0
     0,0,0,0,0,0,0,0,0,-234.962,164.42,-0.03125,0.15625,122.39,0
     0,0,0,0,0,0,0,0,0,-343.33,126.501,-0.03125,0.414062,122.41,0
     0,0,0,0,0,0,0,0,0,-347.168,80.6006,-0.03125,0.632812,122.43,0
     0,0,0,0,0,0,0,0,0,-278.156,-143.516,-0.03125,0.875,122.45,0
     0,0,0,0,0,0,0,0,0,-286.771,-306.04,-0.03125,0.992188,122.47,0
     0,0,0,0,0,0,0,0,0,-226.224,-449.903,-0.03125,1,122.49,0
     0,0,0,0,0,0,0,0,0,-174.192,-510.96,-0.03125,1,122.511,0
     0,0,0,0,0,0,0,0,0,-103.683,-643.252,-0.03125,1,122.53,0
     0,0,0,0,0,0,0,0,0,-60.7755,-592.277,-0.03125,0.726562,122.549,0
     0,0,0,0,0,0,0,0,0,-40.919,-794.944,-0.03125,0.359375,122.569,0
     0,0,0,0,0,0,0,0,0,-40.919,-554.093,-0.03125,0.0234375,122.59,0
     0,0,0,0,0,0,0,0,0,74.3271,-452.223,-0.03125,-0.015748,122.61,0
     0,0,0,0,0,0,0,0,0,100.811,-359.576,-0.03125,-0.015748,122.63,0
     0,0,0,0,0,0,0,0,0,111.149,-297.424,-0.03125,-0.015748,122.65,0
     0,0,0,0,0,0,0,0,0,105.266,-370.13,-0.03125,-0.015748,122.67,0
     0,0,0,0,0,0,0,0,0,136.908,-276.755,-0.03125,-0.015748,122.69,0
     0,0,0,0,0,0,0,0,0,178.06,-259.205,-0.03125,-0.015748,122.711,0
     0,0,0,0,0,0,0,0,0,183.011,-172.233,-0.03125,-0.015748,122.729,0
     0,0,0,0,0,0,0,0,0,171.261,-168.031,-0.03125,-0.015748,122.749,0
     0,0,0,0,0,0,0,0,0,157.591,-159.195,-0.03125,-0.015748,122.769,0
     0,0,0,0,0,0,0,0,0,136.475,-138.905,-0.03125,-0.015748,122.789,0
     0,0,0,0,0,0,0,0,0,134.119,-116.683,-0.03125,-0.015748,122.81,0
     0,0,0,0,0,0,0,0,0,123.255,-118.578,-0.03125,0.0546875,122.829,0
     0,0,0,0,0,0,0,0,0,105.054,-106.954,-0.03125,0.195312,122.85,0
     0,0,0,0,0,0,0,0,0,97.7431,-133.252,-0.03125,0.328125,122.87,0
     0,0,0,0,0,0,0,0,0,90.6281,-195.358,-0.03125,0.546875,122.89,0
     0,0,0,0,0,0,0,0,0,87.2349,-263.71,-0.03125,0.75,122.91,0
     0,0,0,0,0,0,0,0,0,106.59,-342.8,-0.03125,0.851562,122.93,0
     0,0,0,0,0,0,0,0,0,144.797,-516.729,-0.03125,0.929688,122.95,0
     0,0,0,0,0,0,0,0,0,190.353,-723.956,-0.03125,0.929688,122.97,0
     0,0,0,0,0,0,0,0,0,225.846,-650.512,-0.03125,0.929688,122.99,0
     0,0,0,0,0,0,0,0,0,227.886,-753.012,-0.03125,0.929688,123.012,0
     0,0,0,0,0,0,0,0,0,216.628,-715.359,-0.03125,0.929688,123.03,0
     0,0,0,0,0,0,0,0,0,255.66,-830.979,-0.03125,0.820312,123.05,0
     0,0,0,0,0,0,0,0,0,308.276,-847.278,-0.03125,0.5,123.07,0
     0,0,0,0,0,0,0,0,0,305.078,-682.943,-0.03125,0.304688,123.089,0
     0,0,0,0,0,0,0,0,0,351.945,-555.355,-0.03125,0.0703125,123.11,0
     0,0,0,0,0,0,0,0,0,436.376,-551.01,-0.03125,0.0078125,123.129,0
     0,0,0,0,0,0,0,0,0,400.713,-421.061,-0.03125,0.0078125,123.15,0
     0,0,0,0,0,0,0,0,0,398.224,-315.035,-0.03125,0.0078125,123.169,0
     0,0,0,0,0,0,0,0,0,384.438,-458.484,-0.03125,0.0078125,123.19,0
     0,0,0,0,0,0,0,0,0,376.598,-503.563,-0.03125,0.0078125,123.21,0
     0,0,0,0,0,0,0,0,0,338.656,-384.971,-0.03125,0.0078125,123.23,0
     0,0,0,0,0,0,0,0,0,368.548,-349.43,-0.03125,0.0078125,123.25,0
     0,0,0,0,0,0,0,0,0,344.691,-315.886,-0.03125,0.0078125,123.27,0
     0,0,0,0,0,0,0,0,0,304.002,-324.223,-0.03125,0.0078125,123.29,0
     0,0,0,0,0,0,0,0,0,304.345,-286.821,-0.03125,0.0078125,123.31,0
     0,0,0,0,0,0,0,0,0,274.221,-291.834,-0.03125,0.0078125,123.33,0
     0,0,0,0,0,0,0,0,0,292.18,-247.924,-0.03125,0.0078125,123.356,0
     0,0,0,0,0,0,0,0,0,261.015,-257.921,-0.03125,0.0078125,123.378,0
     0,0,0,0,0,0,0,0,0,210.351,-226.226,-0.03125,0.132812,123.391,0
     0,0,0,0,0,0,0,0,0,223.03,-206.324,-0.03125,0.234375,123.41,0
     0,0,0,0,0,0,0,0,0,177.398,-202.38,-0.03125,0.367188,123.43,0
     0,0,0,0,0,0,0,0,0,168.631,-382.812,-0.03125,0.429688,123.457,0
     0,0,0,0,0,0,0,0,0,166.306,-186.536,-0.03125,0.460938,123.493,0
     0,0,0,0,0,0,0,0,0,148.167,-297.062,-0.03125,0.546875,123.504,0
     0,0,0,0,0,0,0,0,0,178.42,-231.873,-0.03125,0.601562,123.511,0
     0,0,0,0,0,0,0,0,0,241.333,-371.188,-0.03125,0.664062,123.53,0
     0,0,0,0,0,0,0,0,0,254.243,-396.299,-0.03125,0.671875,123.549,0
     0,0,0,0,0,0,0,0,0,265.266,-425.704,-0.03125,0.671875,123.57,0
     0,0,0,0,0,0,0,0,0,255.047,-429.784,-0.03125,0.671875,123.589,0
     0,0,0,0,0,0,0,0,0,309.837,-466.092,-0.03125,0.671875,123.609,0
     0,0,0,0,0,0,0,0,0,330.786,-522.466,-0.03125,0.671875,123.629,0
     0,0,0,0,0,0,0,0,0,363.365,-529.928,-0.03125,0.671875,123.65,0
     0,0,0,0,0,0,0,0,0,406.595,-485.131,-0.03125,0.734375,123.67,0
     0,0,0,0,0,0,0,0,0,403.91,-670.781,-0.03125,0.734375,123.69,0
     0,0,0,0,0,0,0,0,0,394.159,-661.354,-0.03125,0.75,123.716,0
     0,0,0,0,0,0,0,0,0,442.145,-703.977,-0.03125,0.75,123.733,0
     0,0,0,0,0,0,0,0,0,436.196,-698.861,0.0787402,0.75,123.758,0
     0,0,0,0,0,0,0,0,0,378.939,-718.959,0.149606,0.75,123.77,0
     0,0,0,0,0,0,0,0,0,279.142,-495.393,0.275591,0.75,123.79,0
     0,0,0,0,0,0,0,0,0,144.554,-699.717,0.338583,0.75,123.81,0
     0,0,0,0,0,0,0,0,0,107.269,-774.144,0.377953,0.640625,123.83,0
     0,0,0,0,0,0,0,0,0,-87.0015,-600.546,0.259843,0.5,123.85,0
     0,0,0,0,0,0,0,0,0,-78.4634,-755.744,0.15748,0.257812,123.869,0
     0,0,0,0,0,0,0,0,0,-61.9306,-628.476,0.0629921,0.125,123.889,0
     0,0,0,0,0,0,0,0,0,-61.9306,-642.137,-0.0078125,0.0078125,123.91,0
     0,0,0,0,0,0,0,0,0,83.6064,-425.903,-0.0078125,0.0078125,123.93,0
     0,0,0,0,0,0,0,0,0,206.166,-372.71,-0.0078125,0.0078125,123.95,0
     0,0,0,0,0,0,0,0,0,238.618,-482.253,-0.0078125,0.0078125,123.97,0
     0,0,0,0,0,0,0,0,0,349.235,-346.548,-0.0078125,0.0078125,123.99,0
     0,0,0,0,0,0,0,0,0,334.891,-469.307,-0.0078125,0.0078125,124.01,0
     0,0,0,0,0,0,0,0,0,276.541,-363.484,-0.0078125,0.0078125,124.03,0
     0,0,0,0,0,0,0,0,0,344.697,-307.017,-0.0078125,0.0078125,124.049,0
     0,0,0,0,0,0,0,0,0,287.377,-302.75,-0.0078125,0.0078125,124.069,0
     0,0,0,0,0,0,0,0,0,311.023,-334.465,-0.0078125,0.0078125,124.089,0
     0,0,0,0,0,0,0,0,0,270.256,-262.034,-0.0078125,0.0078125,124.11,0
     0,0,0,0,0,0,0,0,0,266.216,-262.961,-0.0078125,0.0078125,124.129,0
     0,0,0,0,0,0,0,0,0,263.089,-169.109,-0.0078125,0.0078125,124.15,0
     0,0,0,0,0,0,0,0,0,223.691,-233.85,-0.0078125,0.0078125,124.17,0
     0,0,0,0,0,0,0,0,0,200.795,-248.102,-0.0078125,0.0078125,124.19,0
     0,0,0,0,0,0,0,0,0,200.572,-216.715,-0.0078125,0.0078125,124.21,0
     0,0,0,0,0,0,0,0,0,190.641,-202.556,-0.0078125,0.0078125,124.23,0
     0,0,0,0,0,0,0,0,0,179.69,-214.121,-0.0078125,0.0078125,124.25,0
     0,0,0,0,0,0,0,0,0,160.936,-141.717,-0.0078125,0.0078125,124.27,0
     0,0,0,0,0,0,0,0,0,132.259,-152.318,-0.0078125,0.0078125,124.315,0
     0,0,0,0,0,0,0,0,0,140.076,-142.565,-0.0078125,0.0078125,124.334,0
     0,0,0,0,0,0,0,0,0,133.988,-122.945,-0.0078125,0.0078125,124.35,0
     0,0,0,0,0,0,0,0,0,114.812,-104.541,-0.0078125,0.0078125,124.37,0
     0,0,0,0,0,0,0,0,0,99.7551,-93.3872,-0.0078125,0.0078125,124.39,0
     0,0,0,0,0,0,0,0,0,85.2086,-80.0987,-0.0078125,0.0078125,124.409,0
     0,0,0,0,0,0,0,0,0,71.2213,-67.1908,-0.0078125,0.0078125,124.429,0
     0,0,0,0,0,0,0,0,0,56.2932,-54.7644,-0.0078125,0.0078125,124.45,0
     0,0,0,0,0,0,0,0,0,44.6365,-46.9401,-0.0078125,0.0078125,124.47,0
     0,0,0,0,0,0,0,0,0,34.5645,-41.7108,-0.0078125,0.0078125,124.49,0
     0,0,0,0,0,0,0,0,0,25.421,-32.5521,-0.0078125,0.0078125,124.51,0
     0,0,0,0,0,0,0,0,0,25.421,-26.1443,-0.0078125,0.0078125,124.53,0
     0,0,0,0,0,0,0,0,0,25.421,-26.1443,-0.0078125,0.0078125,124.55,0
     0,0,0,0,0,0,0,0,0,25.421,-26.1443,-0.0078125,0.0078125,124.57,0
     0,0,0,0,0,0,0,0,0,25.421,-26.1443,-0.0078125,0.0078125,124.59,0
     0,0,0,0,0,0,0,0,0,25.421,-26.1443,-0.0078125,0.0078125,124.609,0
     0,0,0,0,0,0,0,0,0,25.421,-26.1443,-0.0078125,0.0078125,124.629,0
     0,0,0,0,0,0,0,0,0,25.421,-3.36131,-0.0078125,0.0078125,124.651,0
     0,0,0,0,0,0,0,0,0,2.74084,-3.36131,-0.0078125,0.0078125,124.669,0
     0,0,0,0,0,0,0,0,0,2.74084,-3.36131,-0.0078125,0.0078125,124.69,0
     0,0,0,0,0,0,0,0,0,2.74084,-3.36131,-0.0078125,0.0078125,124.71,0
     0,0,0,0,0,0,0,0,0,2.74084,-3.36131,-0.0078125,0.0078125,124.73,0
     0,0,0,0,0,0,0,0,0,2.74084,-3.36131,-0.0078125,0.0078125,124.75,0
     0,0,0,0,0,0,0,0,0,2.74084,-3.36131,-0.0078125,0.0078125,124.775,0
     0,0,0,0,0,0,0,0,0,2.74084,-3.36131,-0.0078125,-0,124.79,0
     0,0,0,0,0,0,0,0,0,2.74084,-3.36131,0.149606,-0.0314961,124.81,0
     0,0,0,0,0,0,0,0,0,2.74084,-3.36131,0.299213,-0.149606,124.836,0
     0,0,0,0,0,0,0,0,0,-77.5422,-3.36131,0.496063,-0.267717,124.85,0
     0,0,0,0,0,0,0,0,0,-106.741,4.2293,0.811024,-0.480315,124.87,0
     0,0,0,0,0,0,0,0,0,-214.802,134.056,0.905512,-0.692913,124.89,0
     0,0,0,0,0,0,0,0,0,-383.303,229.539,0.96063,-0.811024,124.91,0
     0,0,0,0,0,0,0,0,0,-458.589,410.256,0.992126,-0.937008,124.93,0
     0,0,0,0,0,0,0,0,0,-432.966,470.743,1,-0.976378,124.949,0
     0,0,0,0,0,0,0,0,0,-566.861,564.382,1,-1,124.97,0
     0,0,0,0,0,0,0,0,0,-550.752,557.491,1,-1,124.99,0
     0,0,0,0,0,0,0,0,0,-756.458,685.471,1,-1,125.01,0
     0,0,0,0,0,0,0,0,0,-766.842,843.668,1,-1,125.029,0
     0,0,0,0,0,0,0,0,0,-848.32,1003.61,1,-1,125.05,0
     0,0,0,0,0,0,0,0,0,-894.815,930.622,1,-1,125.07,0
     0,0,0,0,0,0,0,0,0,-841.645,834.655,1,-1,125.09,0
     0,0,0,0,0,0,0,0,0,-922.935,869.49,1,-1,125.11,0
     0,0,0,0,0,0,0,0,0,-1002.2,1259.92,1,-1,125.13,0
     0,0,0,0,0,0,0,0,0,-1043.41,1161.44,1,-0.716535,125.149,0
     0,0,0,0,0,0,0,0,0,-1204.38,1008.22,1,-0.464567,125.169,0
     0,0,0,0,0,0,0,0,0,-1129.62,1055.07,1,-0.110236,125.19,0
     0,0,0,0,0,0,0,0,0,-1347.62,914.411,1,0.0078125,125.21,0
     0,0,0,0,0,0,0,0,0,-1167.82,696.233,1,0.0078125,125.23,0
     0,0,0,0,0,0,0,0,0,-1332.71,853.315,1,0.0078125,125.25,0
     0,0,0,0,0,0,0,0,0,-1405.38,943.574,1,0.0078125,125.27,0
     0,0,0,0,0,0,0,0,0,-1307.45,1009.95,1,0.0234375,125.29,0
     0,0,0,0,0,0,0,0,0,-1171.51,871.004,1,0.109375,125.311,0
     0,0,0,0,0,0,0,0,0,-1281.39,767.106,1,0.25,125.329,0
     0,0,0,0,0,0,0,0,0,-1215.58,368.84,1,0.335938,125.349,0
     0,0,0,0,0,0,0,0,0,-1315.27,184.32,1,0.429688,125.37,0
     0,0,0,0,0,0,0,0,0,-1221.3,124.486,1,0.460938,125.39,0
     0,0,0,0,0,0,0,0,0,-1240.23,51.7206,1,0.484375,125.41,0
     0,0,0,0,0,0,0,0,0,-1070.49,51.7206,1,0.53125,125.43,0
     0,0,0,0,0,0,0,0,0,-1236.71,51.7206,1,0.585938,125.45,0
     0,0,0,0,0,0,0,0,0,-1105.89,6.5594,1,0.679688,125.47,0
     0,0,0,0,0,0,0,0,0,-1071.29,0,1,0.71875,125.49,0
     0,0,0,0,0,0,0,0,0,-1084.54,-90.682,1,0.742188,125.51,0
     0,0,0,0,0,0,0,0,0,-1098.18,-139.243,1,0.742188,125.53,0
     0,0,0,0,0,0,0,0,0,-1001.35,-191.613,1,0.742188,125.55,0
     0,0,0,0,0,0,0,0,0,-956.8,-271.19,1,0.742188,125.57,0
     0,0,0,0,0,0,0,0,0,-976.038,-423.379,1,0.75,125.59,0
     0,0,0,0,0,0,0,0,0,-1161.24,-394.656,1,0.765625,125.61,0
     0,0,0,0,0,0,0,0,0,-1147.25,-675.607,1,0.765625,125.63,0
     0,0,0,0,0,0,0,0,0,-821.693,-582.615,1,0.773438,125.65,0
     0,0,0,0,0,0,0,0,0,-1028.65,-660.262,1,0.78125,125.67,0
     0,0,0,0,0,0,0,0,0,-1048.38,-691.372,1,0.78125,125.69,0
     0,0,0,0,0,0,0,0,0,-1069.12,-671.727,1,0.789062,125.71,0
     0,0,0,0,0,0,0,0,0,-971.723,-632.131,1,0.789062,125.73,0
     0,0,0,0,0,0,0,0,0,-1005.33,-589.901,1,0.789062,125.75,0
     0,0,0,0,0,0,0,0,0,-1088.85,-711.744,1,0.789062,125.77,0
     0,0,0,0,0,0,0,0,0,-1093.25,-734.619,1,0.789062,125.79,0
     0,0,0,0,0,0,0,0,0,-1028.75,-711.82,1,0.789062,125.81,0
     0,0,0,0,0,0,0,0,0,-1038.37,-807.037,1,0.789062,125.83,0
     0,0,0,0,0,0,0,0,0,-1100.29,-833.438,1,0.789062,125.852,0
     0,0,0,0,0,0,0,0,0,-1027.59,-809.979,1,0.789062,125.869,0
     0,0,0,0,0,0,0,0,0,-1098.96,-830.772,1,0.789062,125.89,0
     0,0,0,0,0,0,0,0,0,-1014.51,-1008.62,1,0.789062,125.91,0
     0,0,0,0,0,0,0,0,0,-970.732,-865.876,1,0.789062,125.93,0
     0,0,0,0,0,0,0,0,0,-1028.7,-866.814,1,0.789062,125.95,0
     0,0,0,0,0,0,0,0,0,-1061.06,-1033,1,0.789062,125.97,0
     0,0,0,0,0,0,0,0,0,-1039.66,-887.863,1,0.789062,125.99,0
     0,0,0,0,0,0,0,0,0,-936.724,-1145.93,1,0.789062,126.01,0
     0,0,0,0,0,0,0,0,0,-991.621,-990.344,1,0.789062,126.03,0
     0,0,0,0,0,0,0,0,0,-1135.78,-953.153,0.937008,0.789062,126.05,0
     0,0,0,0,0,0,0,0,0,-921.277,-936.242,0.629921,0.71875,126.07,0
     0,0,0,0,0,0,0,0,0,-928.031,-694.686,0.377953,0.664062,126.09,0
     0,0,0,0,0,0,0,0,0,-619.848,-650.809,0.0708661,0.523438,126.11,0
     0,0,0,0,0,0,0,0,0,-406.265,-870.057,-0.0078125,0.375,126.13,0
     0,0,0,0,0,0,0,0,0,-209.052,-733.434,-0.0078125,0.15625,126.151,0
     0,0,0,0,0,0,0,0,0,-110.969,-605.345,-0.03125,0.0546875,126.17,0
     0,0,0,0,0,0,0,0,0,-73.6315,-594.902,-0.179688,0.0078125,126.189,0
     0,0,0,0,0,0,0,0,0,-67.4261,-474.496,-0.28125,0.0078125,126.21,0
     0,0,0,0,0,0,0,0,0,-43.5482,-475.749,-0.40625,0.0078125,126.229,0
     0,0,0,0,0,0,0,0,0,145.034,-561.073,-0.46875,0.0078125,126.25,0
     0,0,0,0,0,0,0,0,0,274.789,-490.004,-0.554688,0.0078125,126.27,0
     0,0,0,0,0,0,0,0,0,214.964,-477.578,-0.648438,0.0078125,126.29,0
     0,0,0,0,0,0,0,0,0,343.466,-486.381,-0.710938,0.09375,126.31,0
     0,0,0,0,0,0,0,0,0,420.513,-355.764,-0.742188,0.15625,126.33,0
     0,0,0,0,0,0,0,0,0,535.934,-426.967,-0.773438,0.210938,126.351,0
     0,0,0,0,0,0,0,0,0,535.82,-335.43,-0.773438,0.210938,126.37,0
     0,0,0,0,0,0,0,0,0,632.811,-493.998,-0.796875,0.289062,126.39,0
     0,0,0,0,0,0,0,0,0,633.673,-408.238,-0.820312,0.359375,126.411,0
     0,0,0,0,0,0,0,0,0,632.231,-666.089,-0.820312,0.453125,126.43,0
     0,0,0,0,0,0,0,0,0,716.974,-520.251,-0.820312,0.539062,126.451,0
     0,0,0,0,0,0,0,0,0,833.82,-462.631,-0.820312,0.570312,126.472,0
     0,0,0,0,0,0,0,0,0,846.095,-695.967,-0.820312,0.601562,126.493,0
     0,0,0,0,0,0,0,0,0,712.301,-779.241,-0.820312,0.609375,126.51,0
     0,0,0,0,0,0,0,0,0,815.794,-696.573,-0.820312,0.609375,126.53,0
     0,0,0,0,0,0,0,0,0,805.218,-753.125,-0.820312,0.609375,126.549,0
     0,0,0,0,0,0,0,0,0,911.203,-768.049,-0.820312,0.609375,126.571,0
     0,0,0,0,0,0,0,0,0,860.474,-752.757,-0.820312,0.617188,126.591,0
     0,0,0,0,0,0,0,0,0,875.848,-991.522,-0.664062,0.625,126.61,0
     0,0,0,0,0,0,0,0,0,909.256,-1119.32,-0.484375,0.625,126.635,0
     0,0,0,0,0,0,0,0,0,937.075,-885.073,-0.203125,0.625,126.65,0
     0,0,0,0,0,0,0,0,0,886.603,-1043.84,-0.0703125,0.640625,126.677,0
     0,0,0,0,0,0,0,0,0,544.321,-1186.03,-0.0078125,0.664062,126.69,0
     0,0,0,0,0,0,0,0,0,698.397,-1054.35,-0.0078125,0.671875,126.71,0
     0,0,0,0,0,0,0,0,0,810.438,-949.397,-0.0078125,0.679688,126.73,0
     0,0,0,0,0,0,0,0,0,705.418,-950.57,0.015748,0.679688,126.75,0
     0,0,0,0,0,0,0,0,0,897.304,-902.446,0.0551181,0.6875,126.77,0
     0,0,0,0,0,0,0,0,0,750.103,-975.8,0.0866142,0.6875,126.79,0
     0,0,0,0,0,0,0,0,0,483.138,-984.834,0.11811,0.6875,126.81,0
     0,0,0,0,0,0,0,0,0,385.788,-862.255,0.133858,0.6875,126.831,0
     0,0,0,0,0,0,0,0,0,296.016,-572.148,0.133858,0.6875,126.849,0
     0,0,0,0,0,0,0,0,0,242.339,-1058.48,0.133858,0.6875,126.869,0
     0,0,0,0,0,0,0,0,0,169.496,-931.359,0.141732,0.6875,126.891,0
     0,0,0,0,0,0,0,0,0,172.889,-692.977,0.141732,0.703125,126.911,0
     0,0,0,0,0,0,0,0,0,129.361,-890.829,0.181102,0.734375,126.929,0
     0,0,0,0,0,0,0,0,0,86.3222,-801.186,0.251969,0.75,126.951,0
     0,0,0,0,0,0,0,0,0,57.0242,-642.426,0.322835,0.757812,126.97,0
     0,0,0,0,0,0,0,0,0,57.0242,-768.551,0.377953,0.765625,127.009,0
     0,0,0,0,0,0,0,0,0,57.0242,-775.014,0.377953,0.765625,127.013,0
     0,0,0,0,0,0,0,0,0,57.0242,-926.226,0.480315,0.765625,127.03,0
     0,0,0,0,0,0,0,0,0,5.63164,-859.919,0.637795,0.765625,127.049,0
     0,0,0,0,0,0,0,0,0,-172.117,-726.533,0.669291,0.765625,127.076,0
     0,0,0,0,0,0,0,0,0,-223.152,-867.34,0.669291,0.765625,127.091,0
     0,0,0,0,0,0,0,0,0,-214.259,-886.957,0.590551,0.765625,127.11,0
     0,0,0,0,0,0,0,0,0,-352.212,-821.963,0.417323,0.765625,127.13,0
     0,0,0,0,0,0,0,0,0,-286.299,-840.76,0.188976,0.765625,127.149,0
     0,0,0,0,0,0,0,0,0,-175.64,-784.221,0.0708661,0.765625,127.17,0
     0,0,0,0,0,0,0,0,0,-84.349,-783.945,-0.0078125,0.765625,127.19,0
     0,0,0,0,0,0,0,0,0,102.044,-871.992,-0.0078125,0.765625,127.21,0
     0,0,0,0,0,0,0,0,0,176.139,-725.032,-0.0078125,0.765625,127.23,0
     0,0,0,0,0,0,0,0,0,254.725,-705.094,-0.0078125,0.765625,127.25,0
     0,0,0,0,0,0,0,0,0,234.965,-602.355,-0.0078125,0.765625,127.27,0
     0,0,0,0,0,0,0,0,0,284.071,-631.692,-0.0078125,0.765625,127.29,0
     0,0,0,0,0,0,0,0,0,308.043,-773.216,-0.0078125,0.765625,127.31,0
     0,0,0,0,0,0,0,0,0,307.272,-852.66,-0.0078125,0.765625,127.33,0
     0,0,0,0,0,0,0,0,0,352.305,-793.682,-0.0078125,0.765625,127.358,0
     0,0,0,0,0,0,0,0,0,396.448,-950.661,-0.0078125,0.765625,127.37,0
     0,0,0,0,0,0,0,0,0,397.733,-844.309,-0.0234375,0.765625,127.401,0
     0,0,0,0,0,0,0,0,0,387.492,-957.075,-0.0546875,0.765625,127.41,0
     0,0,0,0,0,0,0,0,0,368.738,-795.165,-0.0859375,0.765625,127.43,0
     0,0,0,0,0,0,0,0,0,318.715,-886.8,-0.0859375,0.765625,127.45,0
     0,0,0,0,0,0,0,0,0,385.371,-737.626,-0.125,0.765625,127.47,0
     0,0,0,0,0,0,0,0,0,356.163,-967.914,-0.203125,0.765625,127.49,0
     0,0,0,0,0,0,0,0,0,405.795,-762.457,-0.28125,0.765625,127.511,0
     0,0,0,0,0,0,0,0,0,425.044,-916.59,-0.390625,0.765625,127.531,0
     0,0,0,0,0,0,0,0,0,523.423,-875.618,-0.445312,0.773438,127.551,0
     0,0,0,0,0,0,0,0,0,586.235,-948.092,-0.515625,0.773438,127.571,0
     0,0,0,0,0,0,0,0,0,591.261,-935.935,-0.601562,0.773438,127.592,0
     0,0,0,0,0,0,0,0,0,709.346,-1100.29,-0.671875,0.773438,127.611,0
     0,0,0,0,0,0,0,0,0,702.05,-896.258,-0.765625,0.773438,127.629,0
     0,0,0,0,0,0,0,0,0,810.898,-1030.5,-0.8125,0.773438,127.65,0
     0,0,0,0,0,0,0,0,0,849.473,-960.753,-0.820312,0.773438,127.67,0
     0,0,0,0,0,0,0,0,0,819.807,-980.488,-0.828125,0.773438,127.689,0
     0,0,0,0,0,0,0,0,0,919.963,-861.698,-0.851562,0.773438,127.71,0
     0,0,0,0,0,0,0,0,0,927.128,-875.388,-0.882812,0.773438,127.73,0
     0,0,0,0,0,0,0,0,0,1086.48,-814.365,-0.914062,0.773438,127.75,0
     0,0,0,0,0,0,0,0,0,1006.04,-983.381,-0.953125,0.773438,127.77,0
     0,0,0,0,0,0,0,0,0,1080.03,-1057.25,-0.960938,0.773438,127.79,0
     0,0,0,0,0,0,0,0,0,1175.64,-1098.42,-0.960938,0.773438,127.81,0
     0,0,0,0,0,0,0,0,0,1080.44,-841.326,-0.960938,0.703125,127.83,0
     0,0,0,0,0,0,0,0,0,1138.24,-1057.87,-0.960938,0.695312,127.85,0
     0,0,0,0,0,0,0,0,0,1351.53,-1235.86,-0.96875,0.6875,127.87,0
     0,0,0,0,0,0,0,0,0,1308.99,-1298.53,-0.96875,0.679688,127.89,0
     0,0,0,0,0,0,0,0,0,1177.02,-917.936,-0.96875,0.648438,127.909,0
     0,0,0,0,0,0,0,0,0,1233.88,-1159.89,-0.96875,0.625,127.93,0
     0,0,0,0,0,0,0,0,0,1289.08,-1069.69,-0.96875,0.578125,127.964,0
     0,0,0,0,0,0,0,0,0,1389.47,-1190.55,-0.96875,0.5625,127.97,0
     0,0,0,0,0,0,0,0,0,1361.56,-1110.37,-0.96875,0.5625,127.99,0
     0,0,0,0,0,0,0,0,0,1453.17,-1253.53,-0.96875,0.554688,128.012,0
     0,0,0,0,0,0,0,0,0,1211.17,-1020.88,-0.96875,0.554688,128.03,0
     0,0,0,0,0,0,0,0,0,1286.17,-1252.9,-0.96875,0.554688,128.049,0
     0,0,0,0,0,0,0,0,0,1381.5,-1140.58,-0.96875,0.554688,128.07,0
     0,0,0,0,0,0,0,0,0,1148.44,-1056.41,-0.96875,0.554688,128.091,0
     0,0,0,0,0,0,0,0,0,1190.05,-1277.55,-0.96875,0.554688,128.117,0
     0,0,0,0,0,0,0,0,0,1344.54,-1096.85,-0.96875,0.617188,128.13,0
     0,0,0,0,0,0,0,0,0,1328.11,-1250.23,-0.96875,0.617188,128.15,0
     0,0,0,0,0,0,0,0,0,1207,-1192.46,-0.96875,0.617188,128.17,0
     0,0,0,0,0,0,0,0,0,1432.87,-1154.67,-0.96875,0.617188,128.19,0
     0,0,0,0,0,0,0,0,0,1277.79,-1507.39,-0.96875,0.617188,128.222,0
     0,0,0,0,0,0,0,0,0,1227.9,-1089.8,-0.96875,0.617188,128.23,0
     0,0,0,0,0,0,0,0,0,1196.17,-1344.09,-0.96875,0.617188,128.249,0
     0,0,0,0,0,0,0,0,0,1455.39,-1018.43,-0.96875,0.617188,128.269,0
     0,0,0,0,0,0,0,0,0,1347.53,-1319.87,-0.96875,0.617188,128.29,0
     0,0,0,0,0,0,0,0,0,1308.99,-1069.8,-0.96875,0.617188,128.31,0
     0,0,0,0,0,0,0,0,0,1357.13,-1225.72,-0.890625,0.617188,128.33,0
     0,0,0,0,0,0,0,0,0,1372.87,-1230.69,-0.875,0.617188,128.35,0
     0,0,0,0,0,0,0,0,0,1356.94,-1100.29,-0.851562,0.617188,128.37,0
     0,0,0,0,0,0,0,0,0,1137.98,-1059.49,-0.835938,0.617188,128.399,0
     0,0,0,0,0,0,0,0,0,1156.14,-1253.6,-0.835938,0.617188,128.41,0
     0,0,0,0,0,0,0,0,0,1295.59,-1326.88,-0.820312,0.617188,128.43,0
     0,0,0,0,0,0,0,0,0,1193.25,-1050.42,-0.8125,0.617188,128.45,0
     0,0,0,0,0,0,0,0,0,1172.68,-1205.33,-0.765625,0.617188,128.477,0
     0,0,0,0,0,0,0,0,0,1250,-1303.27,-0.65625,0.617188,128.489,0
     0,0,0,0,0,0,0,0,0,1435.96,-1033.86,-0.578125,0.617188,128.51,0
     0,0,0,0,0,0,0,0,0,1178.97,-1436.88,-0.492188,0.617188,128.53,0
     0,0,0,0,0,0,0,0,0,1156.47,-1238.54,-0.476562,0.617188,128.55,0
     0,0,0,0,0,0,0,0,0,1135.46,-1273.72,-0.46875,0.617188,128.57,0
     0,0,0,0,0,0,0,0,0,1050.75,-1194.53,-0.46875,0.617188,128.59,0
     0,0,0,0,0,0,0,0,0,1043.41,-1198.25,-0.46875,0.617188,128.61,0
     0,0,0,0,0,0,0,0,0,1047.5,-1023.28,-0.46875,0.617188,128.63,0
     0,0,0,0,0,0,0,0,0,1040.47,-1231.15,-0.460938,0.617188,128.65,0
     0,0,0,0,0,0,0,0,0,1030.24,-1095.41,-0.460938,0.617188,128.669,0
     0,0,0,0,0,0,0,0,0,1007.35,-853.898,-0.460938,0.617188,128.691,0
     0,0,0,0,0,0,0,0,0,1080.5,-1051.03,-0.460938,0.617188,128.71,0
     0,0,0,0,0,0,0,0,0,885.034,-1045.48,-0.460938,0.617188,128.73,0
     0,0,0,0,0,0,0,0,0,963.391,-1146,-0.460938,0.617188,128.751,0
     0,0,0,0,0,0,0,0,0,906.536,-969.039,-0.460938,0.617188,128.773,0
     0,0,0,0,0,0,0,0,0,844.096,-1178.13,-0.460938,0.617188,128.79,0
     0,0,0,0,0,0,0,0,0,942.241,-1000.65,-0.460938,0.617188,128.813,0
     0,0,0,0,0,0,0,0,0,833.403,-1013.27,-0.460938,0.617188,128.83,0
     0,0,0,0,0,0,0,0,0,915.751,-911.369,-0.460938,0.617188,128.85,0
     0,0,0,0,0,0,0,0,0,830.22,-777.635,-0.460938,0.617188,128.87,0
     0,0,0,0,0,0,0,0,0,922.552,-1118.38,-0.460938,0.617188,128.89,0
     0,0,0,0,0,0,0,0,0,924.471,-920.302,-0.460938,0.617188,128.91,0
     0,0,0,0,0,0,0,0,0,843.419,-962.418,-0.460938,0.617188,128.93,0
     0,0,0,0,0,0,0,0,0,889.007,-1058.54,-0.460938,0.617188,128.95,0
     0,0,0,0,0,0,0,0,0,924.471,-1019.16,-0.460938,0.617188,128.971,0
     0,0,0,0,0,0,0,0,0,983.623,-871.574,-0.460938,0.617188,128.997,0
     0,0,0,0,0,0,0,0,0,914.62,-890.75,-0.445312,0.617188,129.011,0
     0,0,0,0,0,0,0,0,0,878.349,-885.936,-0.429688,0.617188,129.029,0
     0,0,0,0,0,0,0,0,0,877.539,-937.559,-0.421875,0.617188,129.049,0
     0,0,0,0,0,0,0,0,0,844.238,-894.614,-0.421875,0.617188,129.069,0
     0,0,0,0,0,0,0,0,0,999.45,-926.526,-0.414062,0.617188,129.09,0
     0,0,0,0,0,0,0,0,0,939.276,-910.374,-0.40625,0.617188,129.109,0
     0,0,0,0,0,0,0,0,0,912.742,-1028.49,-0.390625,0.617188,129.13,0
     0,0,0,0,0,0,0,0,0,917.894,-1030.93,-0.382812,0.617188,129.15,0
     0,0,0,0,0,0,0,0,0,913.034,-873.172,-0.382812,0.617188,129.17,0
     0,0,0,0,0,0,0,0,0,766.372,-923.873,-0.382812,0.617188,129.19,0
     0,0,0,0,0,0,0,0,0,875.082,-929.541,-0.382812,0.617188,129.209,0
     0,0,0,0,0,0,0,0,0,803.923,-922.424,-0.382812,0.617188,129.23,0
     0,0,0,0,0,0,0,0,0,772.469,-940.247,-0.367188,0.617188,129.25,0
     0,0,0,0,0,0,0,0,0,723.484,-969.039,-0.359375,0.617188,129.27,0
     0,0,0,0,0,0,0,0,0,757.06,-867.152,-0.359375,0.617188,129.29,0
     0,0,0,0,0,0,0,0,0,716.949,-868.169,-0.359375,0.617188,129.311,0
     0,0,0,0,0,0,0,0,0,723.772,-947.418,-0.335938,0.617188,129.33,0
     0,0,0,0,0,0,0,0,0,672.269,-835.946,-0.3125,0.617188,129.35,0
     0,0,0,0,0,0,0,0,0,785.33,-859.217,-0.265625,0.617188,129.37,0
     0,0,0,0,0,0,0,0,0,669.053,-871.954,-0.242188,0.617188,129.39,0
     0,0,0,0,0,0,0,0,0,658.979,-942.374,-0.210938,0.617188,129.411,0
     0,0,0,0,0,0,0,0,0,691.228,-879.391,-0.15625,0.617188,129.43,0
     0,0,0,0,0,0,0,0,0,591.839,-786.225,-0.101562,0.625,129.45,0
     0,0,0,0,0,0,0,0,0,571.282,-795.925,-0.03125,0.625,129.471,0
     0,0,0,0,0,0,0,0,0,606.263,-926.741,-0.0078125,0.632812,129.489,0
     0,0,0,0,0,0,0,0,0,720.851,-921.489,-0.0078125,0.632812,129.51,0
     0,0,0,0,0,0,0,0,0,614.1,-714.898,-0.0078125,0.640625,129.53,0
     0,0,0,0,0,0,0,0,0,710.858,-738.198,-0.0078125,0.65625,129.55,0
     0,0,0,0,0,0,0,0,0,715.999,-798.658,-0.0078125,0.664062,129.57,0
     0,0,0,0,0,0,0,0,0,708.793,-813.041,-0.0078125,0.671875,129.59,0
     0,0,0,0,0,0,0,0,0,653.979,-828.535,-0.0078125,0.679688,129.609,0
     0,0,0,0,0,0,0,0,0,681.431,-820.681,-0.0078125,0.695312,129.63,0
     0,0,0,0,0,0,0,0,0,798.722,-673.378,-0.0078125,0.71875,129.65,0
     0,0,0,0,0,0,0,0,0,710.379,-949.983,-0.0078125,0.734375,129.67,0
     0,0,0,0,0,0,0,0,0,778.059,-878.773,0,0.773438,129.69,0
     0,0,0,0,0,0,0,0,0,868.772,-884.956,0.0551181,0.851562,129.71,0
     0,0,0,0,0,0,0,0,0,600.835,-952.064,0.11811,0.875,129.729,0
     0,0,0,0,0,0,0,0,0,488.687,-924.044,0.23622,0.960938,129.75,0
     0,0,0,0,0,0,0,0,0,266.138,-1000.8,0.354331,0.984375,129.769,0
     0,0,0,0,0,0,0,0,0,114.512,-893.256,0.417323,0.992188,129.79,0
     0,0,0,0,0,0,0,0,0,0,-894.855,0.503937,1,129.81,0
     0,0,0,0,0,0,0,0,0,-74.7912,-963.948,0.559055,1,129.829,0
     0,0,0,0,0,0,0,0,0,-140.265,-1113.52,0.590551,1,129.85,0
     0,0,0,0,0,0,0,0,0,-201.043,-1084.07,0.637795,1,129.869,0
     0,0,0,0,0,0,0,0,0,-225.175,-1003.61,0.677165,1,129.89,0
     0,0,0,0,0,0,0,0,0,-310.733,-1060.9,0.700787,1,129.91,0
     0,0,0,0,0,0,0,0,0,-399.696,-1070.95,0.716535,1,129.93,0
     0,0,0,0,0,0,0,0,0,-374.869,-1135.01,0.716535,1,129.95,0
     0,0,0,0,0,0,0,0,0,-434.32,-1133.79,0.724409,1,129.97,0
     0,0,0,0,0,0,0,0,0,-518.282,-917.936,0.724409,1,129.99,0
     0,0,0,0,0,0,0,0,0,-532.85,-1138.5,0.724409,1,130.01,0
     0,0,0,0,0,0,0,0,0,-508.815,-759.648,0.732283,1,130.03,0
     0,0,0,0,0,0,0,0,0,-546.239,-1407.06,0.740157,1,130.05,0
     0,0,0,0,0,0,0,0,0,-547.855,-1133.4,0.755906,1,130.07,0
     0,0,0,0,0,0,0,0,0,-601.993,-1151.28,0.76378,1,130.091,0
     0,0,0,0,0,0,0,0,0,-675.311,-921.489,0.76378,1,130.117,0
     0,0,0,0,0,0,0,0,0,-507.318,-771.754,0.76378,1,130.13,0
     0,0,0,0,0,0,0,0,0,-573.888,-907.029,0.76378,1,130.15,0
     0,0,0,0,0,0,0,0,0,-673.673,-1271.78,0.76378,1,130.17,0
     0,0,0,0,0,0,0,0,0,-602.882,-1019.68,0.76378,1,130.19,0
     0,0,0,0,0,0,0,0,0,-490.052,-1157.14,0.76378,0.804688,130.21,0
     0,0,0,0,0,0,0,0,0,-531.971,-975.182,0.653543,0.554688,130.231,0
     0,0,0,0,0,0,0,0,0,-576.568,-943.619,0.614173,0.21875,130.25,0
     0,0,0,0,0,0,0,0,0,-431.658,-896.338,0.574803,0.0078125,130.279,0
     0,0,0,0,0,0,0,0,0,-509.1,-581.818,0.566929,0.0078125,130.291,0
     0,0,0,0,0,0,0,0,0,-424.169,-747.887,0.543307,0.0078125,130.311,0
     0,0,0,0,0,0,0,0,0,-372.814,-660.764,0.393701,0.0078125,130.33,0
     0,0,0,0,0,0,0,0,0,-317.748,-527.858,0.181102,0.0078125,130.35,0
     0,0,0,0,0,0,0,0,0,-234.401,-599.916,0.015748,0.0078125,130.369,0
     0,0,0,0,0,0,0,0,0,-124.019,-592.786,-0.0078125,0.0078125,130.389,0
     0,0,0,0,0,0,0,0,0,89.1484,-364.964,-0.0078125,0.0078125,130.41,0
     0,0,0,0,0,0,0,0,0,97.3184,-361.605,-0.0078125,0.0078125,130.43,0
     0,0,0,0,0,0,0,0,0,78.0476,-273.898,-0.0078125,0.0078125,130.449,0
     0,0,0,0,0,0,0,0,0,74.983,-341.204,-0.0078125,0.0078125,130.47,0
     0,0,0,0,0,0,0,0,0,82.0287,-294.468,-0.0078125,-0,130.491,0
     0,0,0,0,0,0,0,0,0,107.445,-263.536,-0.0078125,-0.0472441,130.511,0
     0,0,0,0,0,0,0,0,0,127.72,-215.696,0.165354,-0.125984,130.53,0
     0,0,0,0,0,0,0,0,0,72.6179,-209.499,0.283465,-0.267717,130.55,0
     0,0,0,0,0,0,0,0,0,72.6179,-63.4965,0.448819,-0.338583,130.57,0
     0,0,0,0,0,0,0,0,0,72.6179,0,0.527559,-0.385827,130.589,0
     0,0,0,0,0,0,0,0,0,-76.6401,62.3682,0.582677,-0.393701,130.61,0
     0,0,0,0,0,0,0,0,0,-175.721,164.942,0.606299,-0.393701,130.631,0
     0,0,0,0,0,0,0,0,0,-234.431,211.927,0.637795,-0.401575,130.65,0
     0,0,0,0,0,0,0,0,0,-327.863,253.988,0.700787,-0.409449,130.67,0
     0,0,0,0,0,0,0,0,0,-422.52,361.154,0.740157,-0.425197,130.698,0
     0,0,0,0,0,0,0,0,0,-477.874,357.769,0.787402,-0.433071,130.71,0
     0,0,0,0,0,0,0,0,0,-459.179,497.686,0.795276,-0.440945,130.73,0
     0,0,0,0,0,0,0,0,0,-605.327,451.926,0.818898,-0.448819,130.75,0
     0,0,0,0,0,0,0,0,0,-628.753,538.648,0.818898,-0.448819,130.77,0
     0,0,0,0,0,0,0,0,0,-758.639,514.417,0.84252,-0.448819,130.79,0
     0,0,0,0,0,0,0,0,0,-686.271,534.688,0.874016,-0.448819,130.81,0
     0,0,0,0,0,0,0,0,0,-657.895,637.897,0.88189,-0.448819,130.83,0
     0,0,0,0,0,0,0,0,0,-738.471,782.564,0.897638,-0.448819,130.85,0
     0,0,0,0,0,0,0,0,0,-832.258,594.248,0.897638,-0.448819,130.87,0
     0,0,0,0,0,0,0,0,0,-833.125,609.255,0.905512,-0.448819,130.89,0
     0,0,0,0,0,0,0,0,0,-927.601,793.021,0.913386,-0.448819,130.911,0
     0,0,0,0,0,0,0,0,0,-893.695,757.26,0.929134,-0.377953,130.929,0
     0,0,0,0,0,0,0,0,0,-1043.24,652.039,0.937008,-0.314961,130.949,0
     0,0,0,0,0,0,0,0,0,-1096.67,659.587,0.944882,-0.212598,130.97,0
     0,0,0,0,0,0,0,0,0,-1313.11,592.962,0.96063,-0.133858,130.991,0
     0,0,0,0,0,0,0,0,0,-1282.71,586.717,0.984252,-0.0393701,131.01,0
     0,0,0,0,0,0,0,0,0,-997.556,700.943,1,-0,131.03,0
     0,0,0,0,0,0,0,0,0,-1271.29,602.446,1,0.0078125,131.05,0
     0,0,0,0,0,0,0,0,0,-1077.24,626.39,1,0.0078125,131.07,0
     0,0,0,0,0,0,0,0,0,-1136.82,682.617,1,0.0078125,131.09,0
     0,0,0,0,0,0,0,0,0,-1137.07,583.669,1,0.0078125,131.11,0
     0,0,0,0,0,0,0,0,0,-1275.18,623.364,1,0.03125,131.133,0
     0,0,0,0,0,0,0,0,0,-1151.94,601.196,1,0.117188,131.151,0
     0,0,0,0,0,0,0,0,0,-1109.08,355.714,1,0.328125,131.171,0
     0,0,0,0,0,0,0,0,0,-1113.09,234.684,1,0.523438,131.19,0
     0,0,0,0,0,0,0,0,0,-1038.26,166.925,1,0.78125,131.21,0
     0,0,0,0,0,0,0,0,0,-1131.99,0,1,0.9375,131.23,0
     0,0,0,0,0,0,0,0,0,-985.222,-145.263,1,0.984375,131.25,0
     0,0,0,0,0,0,0,0,0,-966.557,-305.143,1,1,131.27,0
     0,0,0,0,0,0,0,0,0,-969.18,-372.405,1,1,131.29,0
     0,0,0,0,0,0,0,0,0,-949.217,-459.569,1,0.929688,131.311,0
     0,0,0,0,0,0,0,0,0,-972.81,-446.847,1,0.835938,131.33,0
     0,0,0,0,0,0,0,0,0,-1005.13,-494.071,1,0.773438,131.349,0
     0,0,0,0,0,0,0,0,0,-881.407,-383.612,1,0.726562,131.37,0
     0,0,0,0,0,0,0,0,0,-976.944,-597.889,1,0.664062,131.39,0
     0,0,0,0,0,0,0,0,0,-1103.39,-468.044,1,0.382812,131.41,0
     0,0,0,0,0,0,0,0,0,-1047.39,-436.167,0.732283,0.117188,131.43,0
     0,0,0,0,0,0,0,0,0,-951.701,-311.842,0.488189,-0,131.45,0
     0,0,0,0,0,0,0,0,0,-949.532,-395.812,0.125984,-0,131.47,0
     0,0,0,0,0,0,0,0,0,-704.771,-335.351,-0.03125,-0,131.49,0
     0,0,0,0,0,0,0,0,0,-463.94,-249.703,-0.03125,-0,131.511,0
     0,0,0,0,0,0,0,0,0,-451.019,-272.109,-0.03125,-0,131.53,0
     0,0,0,0,0,0,0,0,0,-386.429,-277.481,-0.03125,-0,131.55,0
     0,0,0,0,0,0,0,0,0,-358.654,-293.565,-0.03125,-0,131.57,0
     0,0,0,0,0,0,0,0,0,-383.634,-189.557,-0.03125,-0,131.59,0
     0,0,0,0,0,0,0,0,0,-358.944,-171.051,-0.03125,-0,131.61,0
     0,0,0,0,0,0,0,0,0,-365.952,-108.552,-0.03125,-0,131.63,0
     0,0,0,0,0,0,0,0,0,-343.365,-120.412,-0.03125,-0,131.65,0
     0,0,0,0,0,0,0,0,0,-230.846,-97.58,-0.03125,-0,131.671,0
     0,0,0,0,0,0,0,0,0,-248.719,-85.4299,-0.03125,-0,131.69,0
     0,0,0,0,0,0,0,0,0,-199.826,-55.3165,-0.03125,-0,131.71,0
     0,0,0,0,0,0,0,0,0,-181.716,-37.5061,-0.03125,-0,131.73,0
     0,0,0,0,0,0,0,0,0,-161.73,-36.1017,-0.03125,-0,131.749,0
     0,0,0,0,0,0,0,0,0,-160.045,-36.1017,-0.03125,-0,131.77,0
     0,0,0,0,0,0,0,0,0,-82.5225,-36.1017,-0.03125,-0,131.8,0
     0,0,0,0,0,0,0,0,0,-54.6872,11.6107,-0.03125,-0,131.823,0
     0,0,0,0,0,0,0,0,0,-44.1641,36.7727,-0.078125,-0,131.834,0
     0,0,0,0,0,0,0,0,0,-44.1641,36.8055,-0.25,-0,131.85,0
     0,0,0,0,0,0,0,0,0,-17.6177,30.2153,-0.460938,-0,131.87,0
     0,0,0,0,0,0,0,0,0,209.177,25.2643,-0.617188,-0,131.891,0
     0,0,0,0,0,0,0,0,0,367.87,25.2643,-0.6875,-0,131.91,0
     0,0,0,0,0,0,0,0,0,221.016,6.0933,-0.804688,-0,131.93,0
     0,0,0,0,0,0,0,0,0,386.071,-92.6475,-0.914062,-0,131.949,0
     0,0,0,0,0,0,0,0,0,478.538,-43.7076,-0.960938,-0,131.977,0
     0,0,0,0,0,0,0,0,0,523.382,-154.19,-1,-0,131.99,0
     0,0,0,0,0,0,0,0,0,599.502,-182.775,-1,-0,132.018,0
     0,0,0,0,0,0,0,0,0,657.117,-247.856,-1,-0,132.03,0
     0,0,0,0,0,0,0,0,0,603.628,-237.315,-1,-0,132.05,0
     0,0,0,0,0,0,0,0,0,743.439,-297.049,-1,-0,132.07,0
     0,0,0,0,0,0,0,0,0,694.975,-339.992,-1,-0,132.09,0
     0,0,0,0,0,0,0,0,0,748.755,-353.769,-1,-0,132.11,0
     0,0,0,0,0,0,0,0,0,805.38,-415.913,-1,-0,132.138,0
     0,0,0,0,0,0,0,0,0,867.416,-378.91,-1,-0,132.153,0
     0,0,0,0,0,0,0,0,0,870.057,-390.305,-0.59375,-0,132.17,0
     0,0,0,0,0,0,0,0,0,895.095,-332.287,-0.21875,-0,132.189,0
     0,0,0,0,0,0,0,0,0,758.783,-487.08,-0.0078125,-0,132.209,0
     0,0,0,0,0,0,0,0,0,646.517,-686.106,-0.0078125,-0,132.229,0
     0,0,0,0,0,0,0,0,0,647.71,-550.343,-0.0078125,-0,132.249,0
     0,0,0,0,0,0,0,0,0,590.545,-551.526,-0.0078125,-0,132.269,0
     0,0,0,0,0,0,0,0,0,593.014,-599.664,-0.0078125,-0,132.29,0
     0,0,0,0,0,0,0,0,0,561.151,-584.129,-0.0078125,-0,132.31,0
     0,0,0,0,0,0,0,0,0,551.086,-549.858,-0.0078125,-0,132.33,0
     0,0,0,0,0,0,0,0,0,576.918,-571.886,-0.0078125,-0,132.35,0
     0,0,0,0,0,0,0,0,0,498.902,-591.069,-0.0078125,-0,132.37,0
     0,0,0,0,0,0,0,0,0,515.092,-530.349,-0.0078125,-0,132.39,0
     0,0,0,0,0,0,0,0,0,479.731,-482.998,-0.0078125,-0,132.41,0
     0,0,0,0,0,0,0,0,0,489.225,-457.896,-0.0078125,-0,132.429,0
     0,0,0,0,0,0,0,0,0,446.359,-383.333,-0.0078125,-0,132.449,0
     0,0,0,0,0,0,0,0,0,442.86,-434.131,-0.0078125,-0,132.47,0
     0,0,0,0,0,0,0,0,0,433.68,-464.954,-0.0078125,-0,132.49,0
     0,0,0,0,0,0,0,0,0,401.179,-415.671,-0.0078125,-0,132.51,0
     0,0,0,0,0,0,0,0,0,384.564,-449.681,-0.0078125,-0,132.53,0
     0,0,0,0,0,0,0,0,0,361.598,-357.041,-0.0078125,-0,132.55,0
     0,0,0,0,0,0,0,0,0,391.926,-389.924,-0.0078125,-0,132.57,0
     0,0,0,0,0,0,0,0,0,356.684,-341.518,-0.0078125,-0,132.59,0
     0,0,0,0,0,0,0,0,0,348.171,-291.622,-0.0078125,-0,132.61,0
     0,0,0,0,0,0,0,0,0,333.261,-323.682,-0.0078125,-0,132.63,0
     0,0,0,0,0,0,0,0,0,307.191,-285.425,-0.0078125,-0,132.65,0
     0,0,0,0,0,0,0,0,0,276.297,-303.744,-0.0078125,-0,132.67,0
     0,0,0,0,0,0,0,0,0,298.65,-272.009,-0.0078125,-0,132.69,0
     0,0,0,0,0,0,0,0,0,255.967,-250.551,-0.0078125,-0,132.71,0
     0,0,0,0,0,0,0,0,0,237.513,-224.906,-0.0078125,-0,132.73,0
     0,0,0,0,0,0,0,0,0,242.504,-223.147,-0.0078125,-0,132.75,0
     0,0,0,0,0,0,0,0,0,220.541,-204.102,-0.0078125,-0,132.77,0
     0,0,0,0,0,0,0,0,0,187.312,-184.582,-0.0078125,-0,132.79,0
     0,0,0,0,0,0,0,0,0,169.156,-161.092,-0.0078125,-0,132.81,0
     0,0,0,0,0,0,0,0,0,155.887,-169.738,-0.0078125,-0,132.829,0
     0,0,0,0,0,0,0,0,0,138.267,-100.408,-0.0078125,-0,132.85,0
     0,0,0,0,0,0,0,0,0,126.731,-85.1945,-0.0078125,-0,132.87,0
     0,0,0,0,0,0,0,0,0,108.596,-91.6557,-0.0078125,-0,132.89,0
     0,0,0,0,0,0,0,0,0,90.9504,-92.6565,-0.0078125,-0,132.91,0
     0,0,0,0,0,0,0,0,0,80.0163,-89.3923,-0.0078125,-0,132.93,0
     0,0,0,0,0,0,0,0,0,65.3565,-65.6534,-0.0078125,-0,132.95,0
     0,0,0,0,0,0,0,0,0,55.1925,-53.5679,-0.0078125,-0,132.97,0
     0,0,0,0,0,0,0,0,0,44.5728,-41.4765,-0.0078125,-0,132.991,0
     0,0,0,0,0,0,0,0,0,35.8499,-28.8191,-0.0078125,-0,133.01,0
     0,0,0,0,0,0,0,0,0,31.8715,-22.5423,-0.0078125,-0,133.03,0
     0,0,0,0,0,0,0,0,0,31.8715,-22.5423,-0.0078125,-0,133.05,0
     0,0,0,0,0,0,0,0,0,6.23092,-22.5423,-0.0078125,-0,133.07,0
     0,0,0,0,0,0,0,0,0,0,-5.51138,-0.0078125,-0,133.09,0
     0,0,0,0,0,0,0,0,0,-5.2076,0,-0.0078125,-0,133.11,0
     0,0,0,0,0,0,0,0,0,-8.93717,4.77235,-0.0078125,-0,133.13,0
     0,0,0,0,0,0,0,0,0,-15.3448,8.84948,-0.0078125,-0,133.15,0
     0,0,0,0,0,0,0,0,0,-13.1054,12.6488,-0.0078125,-0,133.17,0
     0,0,0,0,0,0,0,0,0,-13.1054,12.6488,-0.0078125,-0,133.19,0
     0,0,0,0,0,0,0,0,0,-13.1054,12.6488,-0.0078125,-0,133.21,0
     0,0,0,0,0,0,0,0,0,-13.1054,12.6488,-0.0078125,-0,133.23,0
     0,0,0,0,0,0,0,0,0,-13.1054,12.6488,-0.0078125,-0,133.25,0
     0,0,0,0,0,0,0,0,0,-13.1054,12.6488,-0.0078125,-0,133.269,0
     0,0,0,0,0,0,0,0,0,-13.1054,12.6488,-0.0078125,-0,133.289,0
     0,0,0,0,0,0,0,0,0,-13.1054,12.6488,0,-0.0314961,133.311,0
     0,0,0,0,0,0,0,0,0,-13.1054,12.6488,0.015748,-0.0708661,133.33,0
     0,0,0,0,0,0,0,0,0,-13.1054,12.6488,0.0393701,-0.133858,133.35,0
     0,0,0,0,0,0,0,0,0,-13.1054,12.6488,0.0944882,-0.173228,133.37,0
     0,0,0,0,0,0,0,0,0,-13.1054,3.91315,0.181102,-0.244094,133.391,0
     0,0,0,0,0,0,0,0,0,-3.63568,50.7757,0.259843,-0.346457,133.411,0
     0,0,0,0,0,0,0,0,0,-98.512,46.1639,0.385827,-0.480315,133.43,0
     0,0,0,0,0,0,0,0,0,-126.228,146.354,0.472441,-0.669291,133.45,0
     0,0,0,0,0,0,0,0,0,-184.817,177.404,0.496063,-0.76378,133.469,0
     0,0,0,0,0,0,0,0,0,-302.618,332,0.527559,-0.787402,133.49,0
     0,0,0,0,0,0,0,0,0,-311.299,430.2,0.574803,-0.787402,133.51,0
     0,0,0,0,0,0,0,0,0,-406.711,510.973,0.637795,-0.787402,133.529,0
     0,0,0,0,0,0,0,0,0,-473.776,466.755,0.724409,-0.787402,133.55,0
     0,0,0,0,0,0,0,0,0,-526.954,578.687,0.80315,-0.787402,133.57,0
     0,0,0,0,0,0,0,0,0,-601.884,539.665,0.834646,-0.795276,133.59,0
     0,0,0,0,0,0,0,0,0,-761.006,871.65,0.84252,-0.795276,133.61,0
     0,0,0,0,0,0,0,0,0,-840.548,705.442,0.850394,-0.661417,133.63,0
     0,0,0,0,0,0,0,0,0,-760.514,739.754,0.850394,-0.480315,133.65,0
     0,0,0,0,0,0,0,0,0,-871.08,815.594,0.850394,-0.322835,133.67,0
     0,0,0,0,0,0,0,0,0,-906.29,832.432,0.874016,-0.141732,133.689,0
     0,0,0,0,0,0,0,0,0,-961.354,724.401,0.913386,-0.023622,133.709,0
     0,0,0,0,0,0,0,0,0,-972.621,738.007,0.968504,0.0078125,133.731,0
     0,0,0,0,0,0,0,0,0,-1081.72,713.216,1,0.0390625,133.751,0
     0,0,0,0,0,0,0,0,0,-1017.66,604.631,1,0.0859375,133.77,0
     0,0,0,0,0,0,0,0,0,-1217.8,492.781,1,0.210938,133.789,0
     0,0,0,0,0,0,0,0,0,-1007.56,309.129,1,0.398438,133.81,0
     0,0,0,0,0,0,0,0,0,-1032.47,149.14,1,0.554688,133.83,0
     0,0,0,0,0,0,0,0,0,-1061.63,21.9792,1,0.765625,133.849,0
     0,0,0,0,0,0,0,0,0,-1156.07,-131.679,1,0.882812,133.869,0
     0,0,0,0,0,0,0,0,0,-1142.14,-241.911,1,0.890625,133.891,0
     0,0,0,0,0,0,0,0,0,-1000,-351.087,1,0.773438,133.91,0
     0,0,0,0,0,0,0,0,0,-1069.06,-341.513,1,0.671875,133.931,0
     0,0,0,0,0,0,0,0,0,-1071.01,-284.852,1,0.640625,133.95,0
     0,0,0,0,0,0,0,0,0,-955.703,-315.931,1,0.640625,133.97,0
     0,0,0,0,0,0,0,0,0,-1009.18,-299.711,1,0.640625,133.99,0
     0,0,0,0,0,0,0,0,0,-1102.84,-257.842,1,0.640625,134.01,0
     0,0,0,0,0,0,0,0,0,-1047.18,-375.481,0.929134,0.640625,134.03,0
     0,0,0,0,0,0,0,0,0,-959.003,-344.851,0.732283,0.632812,134.05,0
     0,0,0,0,0,0,0,0,0,-763.738,-430.515,0.448819,0.632812,134.07,0
     0,0,0,0,0,0,0,0,0,-802.955,-380.677,0.251969,0.59375,134.09,0
     0,0,0,0,0,0,0,0,0,-569.444,-499.975,0.0708661,0.554688,134.109,0
     0,0,0,0,0,0,0,0,0,-529.773,-420.681,0,0.484375,134.129,0
     0,0,0,0,0,0,0,0,0,-401.123,-529.143,-0.0546875,0.445312,134.149,0
     0,0,0,0,0,0,0,0,0,-389.894,-537.403,-0.164062,0.4375,134.17,0
     0,0,0,0,0,0,0,0,0,-183.947,-632.711,-0.4375,0.4375,134.189,0
     0,0,0,0,0,0,0,0,0,-136.29,-631.592,-0.742188,0.4375,134.211,0
     0,0,0,0,0,0,0,0,0,200.598,-587.648,-0.882812,0.4375,134.231,0
     0,0,0,0,0,0,0,0,0,341.087,-613.346,-0.984375,0.4375,134.25,0
     0,0,0,0,0,0,0,0,0,469.528,-539.622,-1,0.4375,134.284,0
     0,0,0,0,0,0,0,0,0,741.29,-540.833,-1,0.4375,134.29,0
     0,0,0,0,0,0,0,0,0,685.495,-581.717,-1,0.4375,134.31,0
     0,0,0,0,0,0,0,0,0,674.627,-675.813,-1,0.4375,134.33,0
     0,0,0,0,0,0,0,0,0,723.51,-630.537,-1,0.4375,134.35,0
     0,0,0,0,0,0,0,0,0,665.27,-693.337,-1,0.4375,134.372,0
     0,0,0,0,0,0,0,0,0,682.804,-640.636,-1,0.4375,134.39,0
     0,0,0,0,0,0,0,0,0,729.927,-538.141,-1,0.4375,134.41,0
     0,0,0,0,0,0,0,0,0,877.848,-669.389,-1,0.4375,134.43,0
     0,0,0,0,0,0,0,0,0,956.617,-729.634,-1,0.4375,134.45,0
     0,0,0,0,0,0,0,0,0,964.32,-758.466,-1,0.4375,134.47,0
     0,0,0,0,0,0,0,0,0,905.715,-768.994,-1,0.4375,134.49,0
     0,0,0,0,0,0,0,0,0,950.254,-880.049,-1,0.4375,134.51,0
     0,0,0,0,0,0,0,0,0,1056.52,-686.955,-1,0.4375,134.53,0
     0,0,0,0,0,0,0,0,0,1026.59,-895.496,-1,0.4375,134.55,0
     0,0,0,0,0,0,0,0,0,1079.8,-719.761,-1,0.4375,134.57,0
     0,0,0,0,0,0,0,0,0,1075.38,-611.583,-1,0.4375,134.59,0
     0,0,0,0,0,0,0,0,0,1142.4,-866.288,-1,0.4375,134.611,0
     0,0,0,0,0,0,0,0,0,971.157,-824.402,-1,0.539062,134.653,0
     0,0,0,0,0,0,0,0,0,1010.1,-943.886,-1,0.539062,134.656,0
     0,0,0,0,0,0,0,0,0,1037.51,-826.105,-1,0.59375,134.672,0
     0,0,0,0,0,0,0,0,0,1155.67,-751.965,-0.898438,0.726562,134.689,0
     0,0,0,0,0,0,0,0,0,1141.29,-843.846,-0.84375,0.804688,134.709,0
     0,0,0,0,0,0,0,0,0,1045.42,-888.494,-0.765625,0.953125,134.729,0
     0,0,0,0,0,0,0,0,0,1035.63,-1298.2,-0.734375,0.984375,134.749,0
     0,0,0,0,0,0,0,0,0,1197.53,-1189.13,-0.679688,0.984375,134.771,0
     0,0,0,0,0,0,0,0,0,1088.97,-1383.7,-0.632812,0.984375,134.789,0
     0,0,0,0,0,0,0,0,0,1167.34,-955.292,-0.59375,0.992188,134.811,0
     0,0,0,0,0,0,0,0,0,1183.71,-1197.75,-0.554688,0.992188,134.832,0
     0,0,0,0,0,0,0,0,0,1008.32,-1025.96,-0.53125,0.992188,134.866,0
     0,0,0,0,0,0,0,0,0,930.882,-1175.02,-0.53125,0.992188,134.87,0
     0,0,0,0,0,0,0,0,0,948.272,-1330.14,-0.53125,0.992188,134.89,0
     0,0,0,0,0,0,0,0,0,1016,-1053.85,-0.53125,0.992188,134.909,0
     0,0,0,0,0,0,0,0,0,1020.36,-1219.07,-0.53125,0.992188,134.929,0
     0,0,0,0,0,0,0,0,0,996.214,-1283.2,-0.53125,0.992188,134.95,0
     0,0,0,0,0,0,0,0,0,955.11,-1360.64,-0.53125,0.992188,134.97,0
     0,0,0,0,0,0,0,0,0,1011.74,-1172.47,-0.53125,0.992188,134.99,0
     0,0,0,0,0,0,0,0,0,1115.76,-1328.73,-0.53125,0.992188,135.01,0
     0,0,0,0,0,0,0,0,0,1010.66,-1306.68,-0.53125,0.992188,135.03,0
     0,0,0,0,0,0,0,0,0,1186.66,-1260.4,-0.53125,0.992188,135.051,0
     0,0,0,0,0,0,0,0,0,901.144,-1230.09,-0.53125,0.992188,135.07,0
     0,0,0,0,0,0,0,0,0,1092.6,-1300.56,-0.53125,0.992188,135.09,0
     0,0,0,0,0,0,0,0,0,1098.48,-1133.85,-0.53125,0.992188,135.11,0
     0,0,0,0,0,0,0,0,0,996.81,-1307.02,-0.53125,0.992188,135.13,0
     0,0,0,0,0,0,0,0,0,1029.87,-1070.84,-0.515625,0.992188,135.15,0
     0,0,0,0,0,0,0,0,0,955.703,-1386.19,-0.5,0.992188,135.17,0
     0,0,0,0,0,0,0,0,0,1115.45,-1293.74,-0.5,0.992188,135.19,0
     0,0,0,0,0,0,0,0,0,973.852,-1228.2,-0.5,0.992188,135.211,0
     0,0,0,0,0,0,0,0,0,988.973,-1226.84,-0.5,0.992188,135.23,0
     0,0,0,0,0,0,0,0,0,962.047,-1464.77,-0.5,0.992188,135.25,0
     0,0,0,0,0,0,0,0,0,1014.4,-1334.94,-0.5,0.992188,135.269,0
     0,0,0,0,0,0,0,0,0,1050.48,-1312.94,-0.5,0.992188,135.29,0
     0,0,0,0,0,0,0,0,0,1068.49,-1157.54,-0.5,0.992188,135.311,0
     0,0,0,0,0,0,0,0,0,989.315,-1489.65,-0.5,0.992188,135.329,0
     0,0,0,0,0,0,0,0,0,1040.64,-998.801,-0.5,0.992188,135.35,0
     0,0,0,0,0,0,0,0,0,967.399,-1363.33,-0.5,0.992188,135.37,0
     0,0,0,0,0,0,0,0,0,1059.1,-1411.13,-0.5,0.992188,135.39,0
     0,0,0,0,0,0,0,0,0,1088.32,-1218.4,-0.5,0.992188,135.41,0
     0,0,0,0,0,0,0,0,0,1078.75,-1288.58,-0.5,0.992188,135.43,0
     0,0,0,0,0,0,0,0,0,1104.79,-1410.04,-0.5,0.992188,135.45,0
     0,0,0,0,0,0,0,0,0,1111.91,-1323.98,-0.5,0.992188,135.472,0
     0,0,0,0,0,0,0,0,0,992.704,-1202.07,-0.5,0.992188,135.49,0
     0,0,0,0,0,0,0,0,0,966.044,-1141.36,-0.5,0.992188,135.51,0
     0,0,0,0,0,0,0,0,0,1043.95,-1253.13,-0.5,0.992188,135.53,0
     0,0,0,0,0,0,0,0,0,944.822,-1162.59,-0.5,0.992188,135.551,0
     0,0,0,0,0,0,0,0,0,1109.69,-1382.46,-0.5,0.992188,135.569,0
     0,0,0,0,0,0,0,0,0,983.333,-1338.78,-0.5,0.914062,135.589,0
     0,0,0,0,0,0,0,0,0,966.978,-1281.56,-0.5,0.875,135.611,0
     0,0,0,0,0,0,0,0,0,1037.99,-1126.32,-0.5,0.8125,135.631,0
     0,0,0,0,0,0,0,0,0,1049.48,-1348.25,-0.5,0.78125,135.651,0
     0,0,0,0,0,0,0,0,0,1015.9,-1143.38,-0.5,0.78125,135.671,0
     0,0,0,0,0,0,0,0,0,1043.19,-1351.9,-0.5,0.78125,135.69,0
     0,0,0,0,0,0,0,0,0,1178.2,-874.202,-0.5,0.78125,135.71,0
     0,0,0,0,0,0,0,0,0,1074.86,-1071.98,-0.5,0.78125,135.73,0
     0,0,0,0,0,0,0,0,0,1031.89,-1306.59,-0.5,0.78125,135.75,0
     0,0,0,0,0,0,0,0,0,1082.49,-919.963,-0.5,0.78125,135.77,0
     0,0,0,0,0,0,0,0,0,910.747,-1287.66,-0.5,0.78125,135.791,0
     0,0,0,0,0,0,0,0,0,1045.1,-1221.37,-0.5,0.78125,135.81,0
     0,0,0,0,0,0,0,0,0,986.582,-1116.45,-0.5,0.78125,135.83,0
     0,0,0,0,0,0,0,0,0,936.9,-1206.2,-0.5,0.78125,135.85,0
     0,0,0,0,0,0,0,0,0,966.09,-1100.23,-0.5,0.78125,135.87,0
     0,0,0,0,0,0,0,0,0,1073.65,-1123.15,-0.5,0.773438,135.89,0
     0,0,0,0,0,0,0,0,0,985.804,-1048.05,-0.5,0.773438,135.91,0
     0,0,0,0,0,0,0,0,0,1006.04,-1190.26,-0.5,0.757812,135.93,0
     0,0,0,0,0,0,0,0,0,952.381,-1213.96,-0.5,0.742188,135.95,0
     0,0,0,0,0,0,0,0,0,1112.97,-1249.38,-0.5,0.726562,135.97,0
     0,0,0,0,0,0,0,0,0,891.385,-1183.57,-0.5,0.71875,135.99,0
     0,0,0,0,0,0,0,0,0,1105.09,-1193.39,-0.5,0.71875,136.01,0
     0,0,0,0,0,0,0,0,0,906.166,-1056.02,-0.5,0.71875,136.03,0
     0,0,0,0,0,0,0,0,0,906.29,-1050.14,-0.5,0.71875,136.05,0
     0,0,0,0,0,0,0,0,0,905.059,-1105.77,-0.5,0.71875,136.07,0
     0,0,0,0,0,0,0,0,0,921.192,-1210.87,-0.5,0.71875,136.09,0
     0,0,0,0,0,0,0,0,0,974.516,-1133.27,-0.5,0.71875,136.109,0
     0,0,0,0,0,0,0,0,0,963.206,-967.867,-0.5,0.710938,136.13,0
     0,0,0,0,0,0,0,0,0,1069.58,-1104.48,-0.5,0.703125,136.15,0
     0,0,0,0,0,0,0,0,0,1033,-757.834,-0.5,0.6875,136.17,0
     0,0,0,0,0,0,0,0,0,1093.25,-1148.11,-0.5,0.679688,136.189,0
     0,0,0,0,0,0,0,0,0,879.082,-1061.29,-0.5,0.648438,136.21,0
     0,0,0,0,0,0,0,0,0,843.775,-946.566,-0.570312,0.632812,136.229,0
     0,0,0,0,0,0,0,0,0,979.048,-1087.43,-0.585938,0.601562,136.25,0
     0,0,0,0,0,0,0,0,0,967.118,-1057.87,-0.601562,0.59375,136.27,0
     0,0,0,0,0,0,0,0,0,951.203,-919.456,-0.601562,0.59375,136.29,0
     0,0,0,0,0,0,0,0,0,1029.6,-969.18,-0.609375,0.585938,136.31,0
     0,0,0,0,0,0,0,0,0,1105.28,-841.149,-0.617188,0.585938,136.33,0
     0,0,0,0,0,0,0,0,0,896.097,-911.162,-0.625,0.578125,136.351,0
     0,0,0,0,0,0,0,0,0,1005.68,-898.473,-0.632812,0.570312,136.37,0
     0,0,0,0,0,0,0,0,0,1026.75,-1074.4,-0.640625,0.546875,136.389,0
     0,0,0,0,0,0,0,0,0,946.701,-961.955,-0.65625,0.515625,136.411,0
     0,0,0,0,0,0,0,0,0,1124.04,-640.615,-0.671875,0.484375,136.431,0
     0,0,0,0,0,0,0,0,0,1052.91,-1226.09,-0.710938,0.460938,136.45,0
     0,0,0,0,0,0,0,0,0,1061.4,-978.474,-0.75,0.453125,136.47,0
     0,0,0,0,0,0,0,0,0,957.763,-852.988,-0.765625,0.429688,136.49,0
     0,0,0,0,0,0,0,0,0,1058.99,-805.542,-0.773438,0.421875,136.51,0
     0,0,0,0,0,0,0,0,0,1100.96,-891.226,-0.773438,0.414062,136.531,0
     0,0,0,0,0,0,0,0,0,971.392,-951.022,-0.773438,0.414062,136.55,0
     0,0,0,0,0,0,0,0,0,940.69,-1062.08,-0.773438,0.414062,136.57,0
     0,0,0,0,0,0,0,0,0,961.492,-955.795,-0.773438,0.414062,136.59,0
     0,0,0,0,0,0,0,0,0,1070.26,-934.492,-0.773438,0.414062,136.61,0
     0,0,0,0,0,0,0,0,0,1012.4,-905.879,-0.773438,0.414062,136.63,0
     0,0,0,0,0,0,0,0,0,1036.22,-973.757,-0.78125,0.40625,136.65,0
     0,0,0,0,0,0,0,0,0,961.538,-878.812,-0.78125,0.398438,136.67,0
     0,0,0,0,0,0,0,0,0,1022.49,-800.096,-0.78125,0.390625,136.69,0
     0,0,0,0,0,0,0,0,0,1006.85,-673.582,-0.78125,0.382812,136.71,0
     0,0,0,0,0,0,0,0,0,1010.25,-1054.41,-0.78125,0.382812,136.73,0
     0,0,0,0,0,0,0,0,0,1015.18,-779.454,-0.78125,0.382812,136.75,0
     0,0,0,0,0,0,0,0,0,1066.55,-952.381,-0.78125,0.382812,136.77,0
     0,0,0,0,0,0,0,0,0,978.139,-907.977,-0.789062,0.382812,136.79,0
     0,0,0,0,0,0,0,0,0,1054.19,-883.704,-0.789062,0.375,136.81,0
     0,0,0,0,0,0,0,0,0,1113.52,-644.704,-0.789062,0.328125,136.829,0
     0,0,0,0,0,0,0,0,0,1018.17,-809.749,-0.796875,0.296875,136.85,0
     0,0,0,0,0,0,0,0,0,974.279,-836.4,-0.8125,0.234375,136.87,0
     0,0,0,0,0,0,0,0,0,1001.75,-885.073,-0.835938,0.179688,136.89,0
     0,0,0,0,0,0,0,0,0,883.9,-845.594,-0.875,0.132812,136.91,0
     0,0,0,0,0,0,0,0,0,1030.82,-634.84,-0.898438,0.0859375,136.93,0
     0,0,0,0,0,0,0,0,0,963.298,-572.279,-0.929688,0.0546875,136.95,0
     0,0,0,0,0,0,0,0,0,1048.6,-608.125,-0.945312,0.046875,136.97,0
     0,0,0,0,0,0,0,0,0,1076.54,-521.404,-0.960938,0.0234375,136.99,0
     0,0,0,0,0,0,0,0,0,1037.88,-715.922,-0.984375,0.015625,137.009,0
     0,0,0,0,0,0,0,0,0,1085.6,-611.602,-0.992188,0.0078125,137.03,0
     0,0,0,0,0,0,0,0,0,1012.09,-541.506,-1,0.0078125,137.05,0
     0,0,0,0,0,0,0,0,0,1181.68,-826.515,-1,0.0078125,137.07,0
     0,0,0,0,0,0,0,0,0,1107.85,-793.934,-1,0.0078125,137.09,0
     0,0,0,0,0,0,0,0,0,1075.27,-753.949,-1,0.0078125,137.11,0
     0,0,0,0,0,0,0,0,0,1094.45,-830.289,-1,0.0078125,137.13,0
     0,0,0,0,0,0,0,0,0,1185.11,-780.671,-1,0.0078125,137.149,0
     0,0,0,0,0,0,0,0,0,1097.21,-804.959,-1,0.0078125,137.17,0
     0,0,0,0,0,0,0,0,0,1064.4,-857.854,-1,0.0078125,137.189,0
     0,0,0,0,0,0,0,0,0,1049.7,-819.672,-1,0.0078125,137.21,0
     0,0,0,0,0,0,0,0,0,1103.02,-910.415,-1,0.0078125,137.23,0
     0,0,0,0,0,0,0,0,0,1040.47,-893.575,-1,0.0078125,137.25,0
     0,0,0,0,0,0,0,0,0,1201.71,-798.339,-1,0.0078125,137.27,0
     0,0,0,0,0,0,0,0,0,1202.79,-880.941,-1,0.0078125,137.29,0
     0,0,0,0,0,0,0,0,0,1217.06,-1053.46,-1,0.0078125,137.311,0
     0,0,0,0,0,0,0,0,0,1221.97,-996.066,-1,0.0078125,137.329,0
     0,0,0,0,0,0,0,0,0,1159.62,-693.505,-1,0.0078125,137.349,0
     0,0,0,0,0,0,0,0,0,1168.16,-1143.05,-1,0.0078125,137.369,0
     0,0,0,0,0,0,0,0,0,1285.1,-1138.95,-1,0.0078125,137.403,0
     0,0,0,0,0,0,0,0,0,1171.03,-1111.23,-1,0.0078125,137.412,0
     0,0,0,0,0,0,0,0,0,1192.68,-1103.02,-1,0.0078125,137.43,0
     0,0,0,0,0,0,0,0,0,1088.32,-962.603,-1,0.0078125,137.45,0
     0,0,0,0,0,0,0,0,0,1307.02,-1018.28,-1,0.0078125,137.47,0
     0,0,0,0,0,0,0,0,0,1197.96,-1072.79,-1,0.0078125,137.49,0
     0,0,0,0,0,0,0,0,0,1262.95,-1129.05,-1,0.0078125,137.51,0
     0,0,0,0,0,0,0,0,0,1248.28,-1177.09,-1,0.0078125,137.531,0
     0,0,0,0,0,0,0,0,0,1268.96,-1044.39,-1,0.0078125,137.55,0
     0,0,0,0,0,0,0,0,0,1154.8,-1171.51,-1,0.0078125,137.573,0
     0,0,0,0,0,0,0,0,0,1200.84,-763.913,-1,0.0078125,137.591,0
     0,0,0,0,0,0,0,0,0,1303.78,-950.525,-1,0.0078125,137.611,0
     0,0,0,0,0,0,0,0,0,1279.75,-1129.37,-1,0.0078125,137.629,0
     0,0,0,0,0,0,0,0,0,1354,-1256.91,-1,0.0078125,137.65,0
     0,0,0,0,0,0,0,0,0,1170.69,-1216.77,-1,-0.173228,137.669,0
     0,0,0,0,0,0,0,0,0,1305.14,-996.165,-1,-0.401575,137.691,0
     0,0,0,0,0,0,0,0,0,1248.36,-394.353,-1,-0.76378,137.71,0
     0,0,0,0,0,0,0,0,0,1099.26,-139.241,-1,-0.76378,137.73,0
     0,0,0,0,0,0,0,0,0,1151.15,280.222,-1,-0.976378,137.75,0
     0,0,0,0,0,0,0,0,0,1284.36,483.629,-1,-1,137.77,0
     0,0,0,0,0,0,0,0,0,1063.43,688.942,-1,-1,137.79,0
     0,0,0,0,0,0,0,0,0,1268.87,730.14,-1,-1,137.809,0
     0,0,0,0,0,0,0,0,0,1165.7,762.486,-1,-1,137.829,0
     0,0,0,0,0,0,0,0,0,1077.76,823.418,-1,-1,137.85,0
     0,0,0,0,0,0,0,0,0,1088.79,787.433,-1,-1,137.87,0
     0,0,0,0,0,0,0,0,0,1102.41,768.226,-1,-1,137.89,0
     0,0,0,0,0,0,0,0,0,965.577,739.563,-1,-1,137.91,0
     0,0,0,0,0,0,0,0,0,1081.08,602.337,-1,-1,137.93,0
     0,0,0,0,0,0,0,0,0,1074.06,788.457,-1,-1,137.95,0
     0,0,0,0,0,0,0,0,0,856.201,1011.12,-1,-1,137.99,0
     0,0,0,0,0,0,0,0,0,972.715,773.096,-1,-1,138.023,0
     0,0,0,0,0,0,0,0,0,994.382,1066.15,-1,-1,138.03,0
     0,0,0,0,0,0,0,0,0,869.187,897.626,-1,-1,138.05,0
     0,0,0,0,0,0,0,0,0,894.134,907.647,-1,-1,138.085,0
     0,0,0,0,0,0,0,0,0,1050.2,848.176,-1,-1,138.09,0
     0,0,0,0,0,0,0,0,0,1058.82,1162.79,-1,-1,138.11,0
     0,0,0,0,0,0,0,0,0,998.801,1104.06,-1,-1,138.13,0
     0,0,0,0,0,0,0,0,0,984.785,1139.21,-1,-1,138.15,0
     0,0,0,0,0,0,0,0,0,936.724,1023.96,-1,-1,138.17,0
     0,0,0,0,0,0,0,0,0,945.582,896.057,-1,-1,138.19,0
     0,0,0,0,0,0,0,0,0,1036.22,733.568,-1,-1,138.216,0
     0,0,0,0,0,0,0,0,0,952.835,946.97,-1,-1,138.233,0
     0,0,0,0,0,0,0,0,0,964.599,844.488,-1,-0.866142,138.25,0
     0,0,0,0,0,0,0,0,0,956.892,891.782,-1,-0.629921,138.27,0
     0,0,0,0,0,0,0,0,0,950.164,1117.13,-1,-0.251969,138.29,0
     0,0,0,0,0,0,0,0,0,1091.23,678.288,-1,-0.00787402,138.311,0
     0,0,0,0,0,0,0,0,0,1071.75,383.642,-1,0.0078125,138.331,0
     0,0,0,0,0,0,0,0,0,1033.43,264.54,-1,0.0078125,138.349,0
     0,0,0,0,0,0,0,0,0,1188.57,86.5883,-1,0.0546875,138.371,0
     0,0,0,0,0,0,0,0,0,1002.31,-41.6397,-1,0.125,138.391,0
     0,0,0,0,0,0,0,0,0,1075.5,-164.212,-1,0.234375,138.409,0
     0,0,0,0,0,0,0,0,0,1095.29,-269.92,-1,0.28125,138.43,0
     0,0,0,0,0,0,0,0,0,994.431,-458.474,-1,0.3125,138.449,0
     0,0,0,0,0,0,0,0,0,995.074,-408.313,-1,0.398438,138.47,0
     0,0,0,0,0,0,0,0,0,1129.75,-569.703,-1,0.546875,138.49,0
     0,0,0,0,0,0,0,0,0,1055.58,-612.482,-1,0.789062,138.518,0
     0,0,0,0,0,0,0,0,0,897.626,-492.951,-1,0.921875,138.53,0
     0,0,0,0,0,0,0,0,0,1055.8,-977.852,-1,1,138.55,0
     0,0,0,0,0,0,0,0,0,1056.97,-722.517,-1,1,138.571,0
     0,0,0,0,0,0,0,0,0,1091.05,-811.129,-1,1,138.59,0
     0,0,0,0,0,0,0,0,0,1118.13,-962.696,-1,1,138.61,0
     0,0,0,0,0,0,0,0,0,1137.01,-1067.63,-1,1,138.63,0
     0,0,0,0,0,0,0,0,0,1270.24,-1195.53,-1,1,138.65,0
     0,0,0,0,0,0,0,0,0,1166.59,-970.497,-1,1,138.67,0
     0,0,0,0,0,0,0,0,0,1065.98,-1366.87,-1,1,138.69,0
     0,0,0,0,0,0,0,0,0,1183.22,-1011.58,-1,1,138.71,0
     0,0,0,0,0,0,0,0,0,1320.92,-1158.88,-1,1,138.729,0
     0,0,0,0,0,0,0,0,0,1287.5,-1470.59,-1,1,138.749,0
     0,0,0,0,0,0,0,0,0,1397.72,-1293.83,-1,1,138.771,0
     0,0,0,0,0,0,0,0,0,1382.07,-1333.78,-1,1,138.789,0
     0,0,0,0,0,0,0,0,0,1352.36,-1153.74,-1,0.742188,138.81,0
     0,0,0,0,0,0,0,0,0,1370.33,-1181.33,-1,0.492188,138.829,0
     0,0,0,0,0,0,0,0,0,1497.79,-1332.27,-1,0.15625,138.85,0
     0,0,0,0,0,0,0,0,0,1312.68,-908.719,-1,0.0234375,138.875,0
     0,0,0,0,0,0,0,0,0,1276,-918.569,-1,0.0078125,138.91,0
     0,0,0,0,0,0,0,0,0,1560.67,-696.937,-1,0.0078125,138.913,0
     0,0,0,0,0,0,0,0,0,1280,-1121.83,-1,0.0078125,138.937,0
     0,0,0,0,0,0,0,0,0,1338.33,-1176.06,-1,-0.0708661,138.95,0
     0,0,0,0,0,0,0,0,0,1484.34,-1000.95,-1,-0.275591,138.97,0
     0,0,0,0,0,0,0,0,0,1217.8,-442.312,-1,-0.543307,138.991,0
     0,0,0,0,0,0,0,0,0,1352.36,-122.299,-1,-0.669291,139.009,0
     0,0,0,0,0,0,0,0,0,1320.39,57.1584,-1,-0.740157,139.029,0
     0,0,0,0,0,0,0,0,0,1114.64,254.764,-1,-0.740157,139.05,0
     0,0,0,0,0,0,0,0,0,1217.29,454.452,-1,-0.480315,139.07,0
     0,0,0,0,0,0,0,0,0,1326.88,490.569,-1,-0.204724,139.09,0
     0,0,0,0,0,0,0,0,0,1123.15,330.688,-1,-0.0551181,139.11,0
     0,0,0,0,0,0,0,0,0,1125.05,82.4056,-1,0.0078125,139.131,0
     0,0,0,0,0,0,0,0,0,1285.68,19.6159,-1,0.0078125,139.15,0
