accel_x,accel_y,accel_z,gyro_x,gyro_y,gyro_z,x,y,z,left_encoder_rate,right_encoder_rate,left_input,right_input,fpga time,navx time
0.000183105,0.0259399,0.953003,0.15213,0.15213,-0,1.40918,-0.190964,0,0,0,-0.0078125,0.0078125,225.869,345800
-0.0010376,0.0236206,0.952515,-0,-0,-0,1.40918,-0.190964,0,0,0,-0.0078125,0.0078125,225.888,345815
-0.00390625,0.0244141,0.951294,0.15213,0.30426,0.15213,1.40918,-0.190964,0,0,0,-0.0078125,0.0078125,225.908,345845
0.000915527,0.0247803,0.953552,0.15213,0.30426,-0,1.40918,-0.190964,0,0,0,-0.0078125,0.0078125,225.928,345860
-0.00396729,0.0217285,0.950195,0.15213,0.15213,0.15213,1.40918,-0.190964,0,0,0,-0.0078125,0.0078125,225.948,345875
-0.000427246,0.0246582,0.950073,0.15213,0.30426,-0.30426,1.40918,-0.190964,0,0,0,-0.0078125,0.0078125,225.968,345904
-0.000610352,0.0197144,0.953003,0.30426,0.45639,0.15213,1.40918,-0.190964,0,0,0,-0.0078125,0.0078125,225.989,345920
-0.00134277,0.0219727,0.954895,0.15213,0.30426,-0,1.40918,-0.190964,0,0,0,-0.0078125,0.0078125,226.008,345934
-0.00115967,0.0203247,0.947937,0.15213,0.15213,0.15213,1.40918,-0.190964,0,0,0,-0.0078125,0.0078125,226.029,345964
-0.000549316,0.0272217,0.950684,0.15213,0.30426,0.15213,1.40918,-0.190964,0,0,0,-0.0078125,0.0078125,226.048,345980
-0.000671387,0.022583,0.952576,0.15213,-0,-0,1.40918,-0.190964,0,0,0,-0.0078125,0.0078125,226.068,345994
-0.00231934,0.0245972,0.949951,0.45639,-0,-0,1.40918,-0.190964,0,0,0,-0.0078125,0.0078125,226.088,346024
-0.0012207,0.0219727,0.957031,0.30426,0.45639,-0.30426,1.40918,-0.190964,0,0,0,-0.0078125,0.0078125,226.108,346040
-0.00134277,0.0231934,0.950684,-0,0.15213,-0.15213,1.40918,-0.190964,0,0,0,-0.0078125,0.0078125,226.128,346054
-0.00170898,0.022583,0.945374,0.15213,0.45639,-0,1.40918,-0.190964,0,0,0,-0.0078125,0.0078125,226.148,346084
0.0020752,0.024353,0.951538,0.45639,0.30426,0.45639,1.40918,-0.190964,0,0,0,-0.0078125,0.0078125,226.168,346100
-6.10352e-05,0.0217896,0.953308,0.15213,0.15213,-0,1.40918,-0.190964,0,0,0,-0.0078125,0.0078125,226.188,346114
-0.00396729,0.0236816,0.95343,-0,0.15213,-0.15213,1.40918,-0.190964,0,0,0,-0.0078125,0.0078125,226.208,346144
-0.000610352,0.0205688,0.951477,-0,-0,0.15213,1.40918,-0.190964,0,0,0,-0.0078125,0.0078125,226.228,346160
0.00140381,0.0221558,0.952881,0.15213,0.608521,-0,1.40918,-0.190964,0,0,0,-0.0078125,0.0078125,226.248,346174
-0.00189209,0.0211792,0.951355,0.608521,0.15213,-0,1.40918,-0.190964,0,0,0,-0.0078125,0.0078125,226.268,346204
0.00164795,0.022583,0.950378,0.30426,0.45639,-0,1.40918,-0.190964,0,0,0,-0.0078125,0.0078125,226.288,346220
0.00177002,0.0236816,0.952576,0.30426,0.45639,-0.15213,1.40918,-0.190964,0,0,0,-0.0078125,0.0078125,226.308,346234
-0.00213623,0.0249634,0.946289,0.30426,-0,-0.30426,1.40918,-0.190964,0,0,0,-0.0078125,0.0078125,226.328,346264
0.000915527,0.0217285,0.951477,0.30426,0.45639,-0,1.40918,-0.190964,0,0,0,-0.0078125,0.0078125,226.348,346280
-0.00372314,0.0248413,0.951904,0.15213,0.45639,0.15213,1.40918,-0.190964,0,0,0,-0.0078125,0.0078125,226.368,346294
-0.00140381,0.0249023,0.953857,0.30426,0.30426,-0,1.40918,-0.190964,0,0,0,-0.0078125,0.0078125,226.388,346324
-0.000183105,0.0239258,0.957947,0.15213,0.15213,-0.15213,1.40918,-0.190964,0,0,0,-0.0078125,0.0078125,226.408,346340
0.00366211,0.0255127,0.949829,-0.15213,-0,0.30426,1.40918,-0.190964,0,0,0,-0.0078125,0.0078125,226.429,346355
0.000854492,0.0200806,0.941895,0.30426,0.45639,-0.15213,1.40918,-0.190964,0,0,0,-0.0078125,0.0078125,226.448,346384
-0.00219727,0.0254517,0.955811,0.15213,0.15213,-0.15213,1.40918,-0.190964,0,0,0,-0.0078125,0.0078125,226.469,346400
-0.00183105,0.0193481,0.953369,0.15213,0.45639,0.15213,1.40918,-0.190964,0,0,0,-0.0078125,0.0078125,226.488,346414
-0.00231934,0.0223999,0.952393,-0,-0,0.15213,1.40918,-0.190964,0,0,0,-0.0078125,0.0078125,226.508,346444
-0.00170898,0.0230713,0.957092,0.45639,0.30426,-0.30426,1.40918,-0.190964,0,0,0,-0.0078125,0.0078125,226.528,346460
0.000488281,0.0240479,0.949341,0.15213,0.15213,0.15213,1.40918,-0.190964,0,0,0,-0.0078125,0.0078125,226.548,346474
0.000671387,0.0228271,0.948914,0.15213,0.30426,0.15213,1.40918,-0.190964,0,0,0,-0.0078125,0.0078125,226.568,346504
-0.0020752,0.0230103,0.948242,0.15213,0.15213,-0,1.40918,-0.190964,0,0,0,-0.0078125,0.0078125,226.588,346520
-0.000305176,0.0205688,0.95282,-0,-0.15213,0.30426,1.40918,-0.190964,0,0,0,-0.0078125,0.0078125,226.609,346534
-0.00305176,0.0240479,0.948242,0.15213,0.608521,0.45639,1.40918,-0.190964,0,0,0,-0.0078125,0.0078125,226.628,346564
-0.00115967,0.0221558,0.955322,-0,-0,0.15213,1.40918,-0.190964,0,0,0,-0.0078125,0.0078125,226.648,346579
-0.00201416,0.0233765,0.947021,-0,-0,0.15213,1.40918,-0.190964,0,0,0,-0.0078125,0.0078125,226.668,346594
-0.00469971,0.0238647,0.950806,-0,-0,0.15213,1.40918,-0.190964,0,0,0,-0.0078125,0.0078125,226.688,346624
0.000488281,0.0220337,0.949646,-0.15213,-0,-0,1.40918,-0.190964,0,0,0,-0.0078125,0.0078125,226.708,346639
-0.000610352,0.0209351,0.954651,0.30426,0.30426,0.15213,1.40918,-0.190964,0,0,0,-0.0078125,0.0078125,226.728,346654
0.00152588,0.0258179,0.945862,0.15213,-0,-0.15213,1.40918,-0.190964,0,0,0,-0.0078125,0.0078125,226.749,346684
-0.00384521,0.0235596,0.951599,0.15213,0.608521,-0.15213,1.40918,-0.190964,0,0,0,-0.0078125,0.0078125,226.768,346699
0.00250244,0.0217285,0.945923,0.15213,0.15213,0.15213,1.40918,-0.190964,0,0,0,-0.0078125,0.0078125,226.789,346714
-0.000610352,0.0259399,0.944702,0.15213,0.30426,-0.15213,1.40918,-0.190964,0,0,0,-0.0078125,0.0078125,226.808,346744
-0.00146484,0.0250854,0.9505,0.15213,0.30426,-0.15213,1.40918,-0.190964,0,0,0,-0.0078125,0.0078125,226.828,346759
-0.000915527,0.0219116,0.95105,0.30426,0.15213,-0.15213,1.40918,-0.190964,0,0,0,-0.0078125,0.0078125,226.848,346774
-0.00469971,0.0209961,0.94751,0.15213,0.608521,0.30426,1.40918,-0.190964,0,0,0,-0.0078125,0.0078125,226.868,346804
-0.00189209,0.0213013,0.950928,0.15213,0.30426,0.15213,1.40918,-0.190964,0,0,0,-0.0078125,0.0078125,226.888,346819
0.000183105,0.0256348,0.958557,-0,-0,-0.15213,1.40918,-0.190964,0,0,0,-0.0078125,0.0078125,226.908,346834
-0.000610352,0.0239868,0.947937,-0,-0,-0,1.40918,-0.190964,0,0,0,-0.0078125,0.0078125,226.928,346864
-0.00115967,0.0223389,0.953247,0.15213,0.15213,0.15213,1.40918,-0.190964,0,0,0,-0.0078125,0.0078125,226.948,346879
0.000610352,0.0223999,0.958801,0.15213,0.30426,-0,1.40918,-0.190964,0,0,0,-0.0078125,0.0078125,226.968,346894
-0.000732422,0.0236206,0.957275,0.15213,0.15213,-0.15213,1.40918,-0.190964,0,0,0,-0.0078125,0.0078125,226.988,346924
-0.00238037,0.0253906,0.95343,-0.15213,-0.15213,0.30426,1.40918,-0.190964,0,0,0,-0.0078125,0.0078125,227.01,346939
-0.00292969,0.0210571,0.953308,-0,0.30426,-0,1.40918,-0.190964,0,0,0,-0.0078125,0.0078125,227.028,346954
0.00164795,0.0245361,0.943604,0.45639,0.30426,0.15213,1.40918,-0.190964,0,0,0,-0.0078125,0.15625,227.048,346984
-0.00109863,0.0284424,0.951172,0.15213,0.30426,0.15213,1.40918,-0.190964,0,0,0,-0.0078125,0.234375,227.068,346999
0.0216064,-0.00244141,0.946838,0.30426,0.30426,0.15213,1.40919,-0.190964,0,0,-1.19209,-0.0078125,0.265625,227.088,347014
0.0209961,-0.208374,0.928711,1.21704,0.15213,-6.08521,1.40945,-0.191483,0,0,-63.3738,-0.0078125,0.3125,227.108,347044
-0.0609741,-0.118347,0.921936,-0.45639,-0.15213,-5.02029,1.40964,-0.192123,0,50.3122,-79.3619,-0.0078125,0.328125,227.129,347059
0.0593262,-0.0689087,1.01648,-1.06491,0.15213,-1.36917,1.40984,-0.192917,0,36.0523,-101.438,-0.0078125,0.351562,227.148,347074
0.0178833,-0.123779,0.963501,3.19473,0.608521,-7.60651,1.41045,-0.194748,0,86.0733,-144.479,-0.0078125,0.359375,227.168,347104
-0.0237427,-0.0860596,0.90564,-0.912781,-1.36917,-8.51929,1.4108,-0.195892,0,102.147,-134.137,-0.0078125,0.398438,227.188,347119
0.0151978,-0.104858,0.972839,-0.760651,-0.912781,-6.99799,1.41153,-0.198593,0,125.235,-172.289,-0.0078125,0.5,227.209,347149
0.0463257,-0.139221,0.919983,1.21704,1.36917,-8.51929,1.41197,-0.200211,0,144.016,-202.906,-0.0078125,0.5625,227.229,347164
0.110168,-0.168335,0.9552,0.15213,1.06491,-11.1055,1.41255,-0.202011,0,171.293,-253.322,-0.0078125,0.640625,227.249,347179
0.140991,-0.214417,0.956787,0.608521,1.5213,-16.1258,1.41336,-0.204056,0,211.358,-337.821,-0.0078125,0.664062,227.269,347194
0.133911,-0.223633,1.03442,0.30426,1.82556,-26.4706,1.4156,-0.208832,0,201.802,-388.546,-0.0078125,0.671875,227.288,347224
-0.0322876,-0.16333,0.693359,2.73834,0.15213,-30.426,1.41693,-0.211578,0,255.908,-434.047,-0.0078125,0.695312,227.308,347239
0.03302,-0.21106,1.06335,1.06491,-0.608521,-33.7729,1.4183,-0.214584,0,279.99,-447.708,-0.0078125,0.734375,227.328,347254
-0.0319824,-0.132874,0.853027,2.43408,0.608521,-35.9027,1.42142,-0.221161,0,327.498,-565.323,-0.0078125,0.757812,227.348,347284
0.0653687,-0.190491,1.06598,-1.5213,-4.86816,-39.8581,1.42307,-0.224731,0,321.662,-526.15,-0.0078125,0.789062,227.368,347299
-0.000244141,-0.201233,0.930725,3.49899,2.58621,-43.5092,1.4248,-0.228546,0,367.816,-479.122,-0.0078125,0.796875,227.388,347314
0.150879,-0.202881,0.860291,-2.28195,5.62881,-46.7039,1.42863,-0.236877,0,344.056,-647.48,-0.0078125,0.796875,227.408,347344
0.119141,-0.179321,1.06036,-3.19473,-0,-50.3551,1.43086,-0.241348,0,415.861,-677.461,-0.0078125,0.796875,227.433,347359
0.19165,-0.211304,0.848022,0.608521,5.02029,-53.7019,1.43333,-0.246017,0,397.007,-651.572,-0.0078125,0.796875,227.448,347374
0.0778809,-0.0995483,0.860168,1.82556,-5.62881,-55.3754,1.43877,-0.255615,0,453.289,-745.935,-0.0078125,0.796875,227.468,347404
0.0927124,-0.133057,0.717651,3.49899,-0.760651,-55.5275,1.44167,-0.260544,0,451.447,-543.759,0.125984,0.796875,227.488,347419
-0.0505371,-0.143066,1.1665,-3.0426,1.06491,-56.7445,1.44461,-0.265625,0,344.068,-838.997,0.188976,0.796875,227.508,347434
0.184814,-0.0302734,1.07281,-13.0832,-7.45438,-61.7648,1.45064,-0.276062,0,274.593,-753.807,0.267717,0.796875,227.528,347464
0.0701294,0.0032959,1.20062,6.08521,6.38947,-69.3713,1.45384,-0.281235,0,173.115,-963.159,0.275591,0.796875,227.549,347479
0.221924,-0.0899658,0.403198,1.06491,14.6045,-82.3024,1.46077,-0.291138,0,68.0874,-910.084,0.275591,0.796875,227.569,347509
0.187256,0.157776,1.70477,-13.0832,-22.9716,-89.9089,1.46457,-0.295868,0,47.2306,-915.039,0.283465,0.796875,227.588,347524
0.402832,0.0356445,0.293396,25.4057,24.1887,-97.059,1.46869,-0.300339,0,47.2306,-895.175,0.299213,0.796875,227.609,347539
0.241028,0.152222,1.33215,-19.4727,-14.6045,-104.97,1.47313,-0.30455,0,47.2306,-891.742,0.354331,0.796875,227.628,347554
0.203064,0.0147705,1.03796,-1.5213,-7.15012,-113.489,1.48251,-0.31221,0,7.38016,-852.224,0.385827,0.796875,227.649,347584
0.253601,0.143921,0.93042,1.06491,4.5639,-118.966,1.4875,-0.315735,0,7.38016,-857.339,0.425197,0.796875,227.669,347599
0.176453,0.0870972,1.08777,-7.15012,6.08521,-122.008,1.49265,-0.319,0,-4.53284,-1001.55,0.448819,0.796875,227.688,347614
0.118103,0.124084,0.937439,-0.760651,-4.71603,-126.116,1.50339,-0.324875,0,-13.6988,-883.9,0.472441,0.796875,227.709,347644
0.106262,0.113464,1.28235,6.69373,10.9534,-123.53,1.50882,-0.327499,0,-87.2566,-833.854,0.496063,0.796875,227.728,347659
0.0901489,0.0614014,1.04138,-12.4747,-21.6025,-131.745,1.52031,-0.332092,0,-112.846,-869.187,0.511811,0.796875,227.749,347688
0.23822,0.171204,1.36127,3.0426,1.67343,-134.787,1.52623,-0.334061,0,-142.333,-814.166,0.519685,0.796875,227.768,347703
0.242493,0.167358,1.16962,-2.28195,-11.8661,-139.655,1.53227,-0.335693,0,-112.797,-827.369,0.519685,0.796875,227.788,347719
0.185059,0.180786,0.769104,6.99799,4.71603,-143.915,1.53839,-0.33699,0,-142.095,-876.463,0.519685,0.796875,227.808,347733
0.1604,0.134094,0.857788,7.91077,6.23734,-151.674,1.55093,-0.338638,0,-161.266,-873.782,0.519685,0.796875,227.828,347763
0.187378,0.179932,1.33038,-9.12781,-3.0426,-155.325,1.55727,-0.33902,0,-167.112,-675.836,0.519685,0.796875,227.849,347779
0.154602,0.131836,0.772095,11.2576,4.5639,-157.455,1.56364,-0.339142,0,-206.188,-759.071,0.519685,0.796875,227.868,347793
0.0906982,0.154968,0.958069,8.36716,-0.760651,-160.802,1.57626,-0.338821,0,-206.701,-857.302,0.519685,0.796875,227.889,347823
0.0621338,0.171021,1.04919,-0.15213,-13.2353,-162.019,1.58244,-0.338364,0,-193.177,-750.441,0.519685,0.796875,227.908,347839
0.13855,0.229492,1.0976,2.28195,2.28195,-162.019,1.58853,-0.337631,0,-190.94,-697.739,0.519685,0.796875,227.928,347853
0.178406,0.208496,0.825195,-5.78094,-2.73834,-167.8,1.60052,-0.335358,0,-219.068,-728.173,0.519685,0.796875,227.948,347883
0.0914917,0.154419,1.21637,2.73834,-4.10751,-172.059,1.60646,-0.333832,0,-222.38,-720.305,0.519685,0.796875,227.968,347899
0.219971,0.169495,0.97052,2.73834,7.15012,-174.95,1.61234,-0.332031,0,-213.652,-849.582,0.519685,0.804688,227.988,347913
0.112427,0.136963,1.11224,-0.30426,-3.19473,-177.232,1.62407,-0.327667,0,-213.963,-918.147,0.519685,0.804688,228.008,347943
0.167908,0.0969238,0.674927,1.21704,14.3002,-181.948,1.62988,-0.32518,0,-224.439,-747.021,0.519685,0.804688,228.028,347959
0.17041,0.0554199,0.775269,8.97568,9.12781,-188.337,1.64148,-0.319595,0,-222.385,-708.015,0.519685,0.804688,228.048,347988
0.0910645,0.197449,0.954285,5.02029,-3.49899,-190.923,1.64722,-0.316513,0,-240.709,-805.088,0.519685,0.804688,228.068,348003
0.263123,0.0684814,0.69165,1.97769,5.78094,-193.51,1.65295,-0.313171,0,-233.04,-673.174,0.519685,0.804688,228.089,348019
0.0292358,0.151306,1.24493,3.65112,7.45438,-196.096,1.65865,-0.309647,0,-292.278,-783.024,0.519685,0.804688,228.108,348033
0.105103,0.141296,1.00574,3.49899,6.38947,-200.355,1.66978,-0.302155,0,-255.483,-885.936,0.456693,0.804688,228.128,348063
0.1073,0.187805,1.17474,2.12982,-1.97769,-203.094,1.67519,-0.298141,0,-233.609,-996.463,0.401575,0.804688,228.148,348079
0.150391,0.0969238,0.945618,2.28195,-0.608521,-205.984,1.68047,-0.293945,0,-206.186,-772.947,0.338583,0.8125,228.168,348093
0.202881,0.00177002,0.997437,1.06491,4.25964,-206.745,1.69083,-0.28508,0,-178.755,-759.734,0.204724,0.8125,228.188,348123
0.124756,0.0628662,0.829224,7.45438,10.8012,-207.201,1.69603,-0.280426,0,-103.053,-830.254,0.0866142,0.8125,228.208,348139
0.128357,0.128906,1.10889,-2.58621,2.12982,-207.049,1.70117,-0.275635,0,-74.0053,-701.705,0.015748,0.8125,228.228,348153
0.182434,0.0441284,1.02972,3.95538,-1.5213,-200.964,1.71147,-0.265671,0,32.9025,-785.855,0,0.828125,228.249,348183
0.0117188,0.0218506,0.613037,-0,6.99799,-197.921,1.71663,-0.260559,0,136.479,-741.29,0,0.867188,228.269,348199
-0.019043,-0.0922852,0.838013,8.82355,4.5639,-188.641,1.72691,-0.25058,0,124.546,-934.187,0,0.890625,228.294,348228
-0.0262451,-0.012207,0.973022,1.97769,-2.12982,-187.272,1.73207,-0.245804,0,162.11,-876.847,0.0787402,0.90625,228.309,348243
0.098999,-0.0601196,0.763062,-1.97769,3.19473,-188.185,1.73723,-0.241058,0,163.597,-821.558,0.110236,0.90625,228.329,348259
0.00177002,0.00378418,1.23346,-0,-0.760651,-186.055,1.74765,-0.231827,0,92.8307,-936.461,0.110236,0.90625,228.36,348288
0.0568848,0.00115967,0.779663,3.95538,3.19473,-186.968,1.75279,-0.22731,0,85.3064,-997.357,0.125984,0.914062,228.368,348303
0.161011,0.0883179,1.10748,-5.47668,-0.760651,-190.619,1.75787,-0.222717,0,74.4832,-1010.71,0.133858,0.914062,228.389,348319
0.0115967,0.0645142,0.697083,-1.67343,-0.45639,-188.946,1.76759,-0.21344,0,66.4324,-597.372,0.133858,0.914062,228.409,348348
-0.0201416,0.0425415,0.722168,2.89047,16.2779,-188.033,1.77228,-0.208862,0,49.3906,-1082.25,0.133858,0.914062,228.428,348363
0.0829468,0.0582275,1.26831,-4.41177,5.78094,-184.534,1.77682,-0.2043,0,29.1826,-1046.68,0.133858,0.914062,228.449,348378
-0.0664673,0.181702,0.813049,2.89047,-0.15213,-181.187,1.78117,-0.199783,0,22.7219,-913.117,0.133858,0.914062,228.469,348393
0.218567,0.0847778,1.10315,1.97769,4.25964,-179.666,1.78949,-0.190811,0,18.2698,-1071.64,0.133858,0.914062,228.49,348423
0.0385742,0.102112,0.828674,3.95538,1.82556,-178.905,1.79346,-0.186172,0,18.2698,-1107.79,0.133858,0.914062,228.509,348438
0.081604,0.09021,0.899536,7.75864,-0.45639,-179.666,1.79729,-0.181488,0,12.0536,-1034.98,0.141732,0.914062,228.528,348453
0.0482178,0.0499268,0.924683,6.84586,-0,-183.469,1.80476,-0.171982,0,12.0536,-954.244,0.181102,0.914062,228.548,348483
0.0715332,0.103027,0.85144,8.21503,1.5213,-184.077,1.80833,-0.167206,0,12.0536,-1069.8,0.228346,0.914062,228.568,348498
0.135925,0.133728,1.09747,-2.28195,-7.75864,-184.99,1.81172,-0.162338,0,12.0536,-1023.86,0.251969,0.914062,228.588,348513
0.0636597,0.0460815,0.994019,5.17242,-1.21704,-184.534,1.81799,-0.152328,0,12.0536,-1156.94,0.275591,0.914062,228.608,348543
0.216187,0.0691528,0.738831,1.67343,-3.34686,-186.055,1.82094,-0.147171,0,12.0536,-1058.43,0.283465,0.914062,228.628,348558
-0.00744629,0.187683,1.0459,0.30426,9.43207,-187.12,1.8237,-0.141937,0,12.0536,-1003.46,0.291339,0.914062,228.648,348573
-0.0151367,0.208801,0.953125,8.82355,-8.21503,-184.534,1.82857,-0.131302,0,2.44638,-1072.1,0.291339,0.914062,228.668,348603
0.247742,0.0581055,0.910645,-2.58621,-1.36917,-183.469,1.83067,-0.125885,0,2.44638,-1095.53,0.291339,0.914062,228.688,348618
0.130615,0.064209,0.861206,5.62881,9.73633,-185.447,1.83266,-0.120285,0,2.44638,-1146.79,0.291339,0.914062,228.708,348633
0.198303,0.19043,0.649963,18.712,9.73633,-185.903,1.836,-0.109009,0,2.44638,-805.445,0.299213,0.914062,228.729,348663
0.307922,0.00549316,0.976929,-5.02029,-8.51929,-187.729,1.83734,-0.103088,0,2.44638,-939.496,0.299213,0.914062,228.748,348678
0.0809326,0.0770874,0.905212,8.36716,6.5416,-188.641,1.83856,-0.0970001,0,2.44638,-1093.91,0.299213,0.914062,228.768,348693
0.207092,0.314514,0.809814,0.30426,7.91077,-190.011,1.84024,-0.0847626,0,2.44638,-1100.41,0.299213,0.914062,228.788,348723
0.130554,0.0482788,0.998352,-1.06491,12.3225,-188.793,1.84059,-0.078537,0,2.44638,-956.16,0.299213,0.914062,228.809,348738
0.110474,0.130981,1.04633,0.45639,1.67343,-188.641,1.84077,-0.0722656,0,2.44638,-1104.85,0.299213,0.914062,228.828,348753
0.0675049,0.127441,1.03448,14.9088,-3.80325,-185.142,1.84045,-0.0599823,0,2.44638,-1034.5,0.299213,0.914062,228.848,348783
0.0488892,0.146057,0.524414,7.91077,4.86816,-186.055,1.83998,-0.0539551,0,0,-962.927,0.299213,0.914062,228.868,348798
0.193604,0.165466,1.05597,-5.62881,0.760651,-187.729,1.83925,-0.0478973,0,0,-903.424,0.299213,0.914062,228.888,348813
0.120544,0.0278931,0.817566,6.84586,-1.82556,-190.315,1.83713,-0.0357513,0,0,-1165.23,0.299213,0.914062,228.908,348843
0.23175,0.088623,0.834351,1.82556,7.30225,-193.51,1.83583,-0.0295563,0,0,-1175.85,0.299213,0.914062,228.928,348858
0.22644,0.104309,0.591736,8.36716,8.0629,-197.465,1.83246,-0.0169067,0,0,-1040.1,0.204724,0.914062,228.958,348888
0.159668,0.112976,1.07892,-6.08521,0.15213,-200.508,1.83041,-0.010437,0,0,-1078.52,0.133858,0.914062,228.969,348903
0.117493,0.0942993,0.887451,11.2576,-1.21704,-202.485,1.82817,-0.00395203,0,0,-936.724,0.0787402,0.914062,228.988,348918
0.214478,0.183472,0.934998,-0.45639,-2.89047,-203.55,1.82567,0.00253296,0,67.648,-1084.19,0.0314961,0.914062,229.008,348933
-0.0109253,0.163269,1.00958,-5.62881,1.97769,-204.463,1.81989,0.0154114,0,96.6445,-1030.13,0.00787402,0.914062,229.028,348963
0.0905151,-0.0728149,0.85675,11.8661,11.1055,-202.029,1.81685,0.021698,0,162.213,-848.5,-0.0078125,0.929688,229.048,348978
0.0557251,-0.00817871,1.2995,-1.36917,-3.49899,-197.769,1.81046,0.0342865,0,255.229,-1004.62,-0.0078125,0.953125,229.068,349008
0.107422,-0.0107422,0.719543,4.71603,10.6491,-191.532,1.80716,0.0405579,0,309.258,-919.963,-0.0078125,0.984375,229.088,349023
0.138977,-0.154114,0.940857,-5.02029,8.67142,-186.207,1.80389,0.0469513,0,300.08,-1017.35,-0.0078125,1,229.108,349038
0.0361938,-0.0933228,1.34772,7.30225,-7.75864,-185.294,1.80072,0.0534058,0,359.583,-1048.71,-0.0078125,1,229.128,349053
0.106995,-0.0373535,0.881958,-2.89047,5.93307,-184.077,1.79451,0.0662994,0,348.876,-704.449,-0.0078125,1,229.157,349083
-0.224121,-0.00939941,0.83374,-0.30426,-3.65112,-181.796,1.7915,0.0726166,0,415.593,-1089.74,-0.0078125,1,229.168,349098
0.146118,-0.127747,0.800049,11.2576,5.62881,-178.297,1.78862,0.0788727,0,446.688,-1111.85,-0.0078125,1,229.189,349113
-0.0748291,-0.0762939,0.746826,3.95538,-3.0426,-167.8,1.78299,0.0911255,0,439.107,-1263.18,-0.0078125,1,229.208,349143
-0.171936,0.0975952,0.559509,-4.86816,7.30225,-163.692,1.78033,0.0969543,0,520.115,-1084.01,-0.0078125,1,229.229,349158
0.0385742,0.0880737,0.485168,15.6694,5.02029,-154.564,1.7753,0.107986,0,522.234,-1284.85,-0.0078125,1,229.249,349188
0.104553,-0.0114136,0.732422,-11.714,8.82355,-153.195,1.77269,0.113403,0,573.839,-1069.52,-0.0078125,0.9375,229.268,349203
-0.0513916,-0.0817261,1.50507,-7.15012,-4.41177,-146.653,1.77011,0.118774,0,600.655,-1118.01,-0.0078125,0.921875,229.289,349218
0.171509,-0.0783691,0.594543,14.6045,13.5396,-140.568,1.76756,0.124176,0,524.563,-1246.03,-0.0078125,0.914062,229.309,349233
-0.0852661,0.0730591,1.13855,1.5213,7.15012,-136.309,1.76271,0.134796,0,672.88,-922.339,-0.0078125,0.914062,229.328,349263
-0.0482788,0.0179443,0.845398,-0.45639,-3.19473,-130.376,1.76039,0.139801,0,742.115,-1026.96,-0.015625,0.914062,229.348,349278
-0.00115967,-0.0996094,0.951721,-1.82556,-1.5213,-126.572,1.75813,0.144745,0,623.169,-1272.91,-0.03125,0.914062,229.369,349293
-0.216614,-0.0153809,0.9422,-1.67343,-5.02029,-120.183,1.75403,0.154312,0,589.067,-921.701,-0.0703125,0.914062,229.388,349323
0.0563965,-0.0640869,1.11578,-5.02029,6.23734,-114.858,1.7522,0.158875,0,579.811,-1270.16,-0.109375,0.914062,229.409,349338
-0.193298,0.062439,0.808716,1.82556,-1.5213,-108.469,1.75044,0.1633,0,600.06,-1149.76,-0.132812,0.914062,229.429,349353
0.0310669,0.121948,1.00037,-12.1704,2.73834,-118.357,1.74651,0.171768,0,524.109,-1105.64,-0.15625,0.914062,229.448,349383
0.0874634,0.0938721,1.12018,3.65112,11.714,-118.053,1.74428,0.175797,0,425.26,-1318.83,-0.195312,0.914062,229.468,349398
0.0452881,0.15564,1.53973,-10.9534,-18.2556,-119.422,1.73976,0.183411,0,491.256,-1048.99,-0.226562,0.914062,229.488,349428
0.109375,0.000244141,0.579163,19.1684,11.8661,-120.031,1.73737,0.187012,0,593.683,-1199.62,-0.242188,0.914062,229.508,349442
0.0595703,0.0547485,0.780762,-15.6694,-6.69373,-120.335,1.73486,0.190567,0,517.826,-1238.62,-0.25,0.914062,229.528,349458
-0.0196533,0.157227,0.398254,9.88846,2.43408,-115.163,1.72987,0.197433,0,548.787,-1087.73,-0.25,0.914062,229.549,349487
-0.0869751,0.144714,0.965698,-18.4077,7.15012,-112.272,1.72737,0.200531,0,533.803,-975.895,-0.171875,0.90625,229.568,349502
-0.117554,0.266846,1.14081,-1.06491,-0.45639,-105.426,1.72488,0.203232,0,519.413,-1162.99,-0.09375,0.898438,229.588,349518
0.22113,-0.0759277,0.699707,8.21503,4.41177,-99.6452,1.72227,0.205795,0,544.959,-759.388,-0.046875,0.898438,229.608,349532
0.198669,0.123108,0.967529,1.67343,14.9088,-101.623,1.71663,0.210754,0,529.199,-910.954,-0.015625,0.898438,229.628,349562
-0.010376,0.0249634,0.651123,-8.51929,-4.41177,-99.7974,1.71358,0.213089,0,603.847,-1105.34,-0.0078125,0.898438,229.648,349578
0.0245972,0.15387,1.12689,4.41177,-0.30426,-95.842,1.7075,0.217255,0,697.083,-1194.17,-0.0078125,0.898438,229.668,349607
-0.050415,-0.0111084,0.602661,0.608521,-11.2576,-92.4951,1.70444,0.219086,0,732.064,-1105.58,-0.0078125,0.890625,229.689,349622
-0.0358276,0.00396729,1.21808,-11.1055,0.45639,-88.2355,1.70146,0.22084,0,729.235,-1298.87,-0.0078125,0.859375,229.708,349638
-0.0994263,0.0802612,1.67938,-4.86816,-3.95538,-81.3896,1.69565,0.224304,0,771.397,-1120.95,-0.0078125,0.78125,229.728,349667
0.0977173,-0.0744019,0.321106,20.2333,2.89047,-79.5641,1.69278,0.225937,0,888.77,-1205.76,-0.0078125,0.671875,229.748,349682
-0.144226,0.076355,1.25183,-21.9067,3.80325,-74.3916,1.68997,0.227509,0,743.992,-1069.58,-0.0078125,0.601562,229.768,349698
-0.0717773,-0.020752,1.16083,-0.15213,8.67142,-67.3936,1.68732,0.228912,0,899.321,-910.457,-0.0078125,0.507812,229.788,349712
-0.209167,0.09021,0.705872,-0,-3.95538,-53.0934,1.68216,0.231262,0,913.034,-988.289,-0.0078125,0.421875,229.808,349742
-0.294922,0.155273,0.725037,-10.497,-2.12982,-47.4646,1.67992,0.23201,0,854.482,-941.575,-0.0078125,0.351562,229.828,349758
-0.303833,0.136963,1.02765,-4.25964,-5.78094,-26.927,1.67618,0.232605,0,770.951,-656.103,-0.0078125,0.320312,229.85,349787
-0.200623,0.345032,1.37915,6.08521,11.4098,-17.7992,1.67467,0.232269,0,833.715,-1001.55,-0.0078125,0.289062,229.869,349802
-0.310669,0.0838623,0.737122,-2.58621,-15.3651,-9.88846,1.6734,0.231506,0,745.24,-734.889,-0.0078125,0.28125,229.888,349818
0.0142822,0.167603,0.766907,-3.65112,6.08521,-1.5213,1.67227,0.230499,0,906.536,-825.73,-0.0078125,0.28125,229.908,349832
-0.0360107,0.291138,1.64978,-10.0406,-9.88846,11.5619,1.67007,0.22699,0,828.02,-827.438,-0.0078125,0.28125,229.928,349862
0.00012207,0.225037,0.768738,13.6917,0.30426,8.97568,1.6689,0.224594,0,750.385,-704.498,-0.0078125,0.28125,229.948,349878
-0.125549,0.234985,0.758545,-16.7343,12.3225,6.84586,1.66769,0.221863,0,688.61,-683.247,-0.109375,0.28125,229.969,349892
-0.0181885,0.173584,0.627014,12.7789,4.41177,2.43408,1.66492,0.215668,0,602.5,-634.679,-0.171875,0.28125,229.988,349922
0.121887,0.315369,1.69379,-25.4057,-2.28195,2.58621,1.66327,0.212173,0,515.65,-649.161,-0.210938,0.28125,230.008,349938
0.194397,0.275208,0.80188,-12.1704,-4.41177,-8.21503,1.65932,0.204437,0,559.707,-673.627,-0.210938,0.28125,230.029,349967
-0.088562,0.328796,1.18799,11.2576,-0,-11.714,1.65703,0.200119,0,525.017,-624.395,-0.25,0.28125,230.048,349982
-0.207703,0.158203,0.685364,7.15012,-7.15012,-5.17242,1.65482,0.195404,0,528.765,-581.497,-0.296875,0.28125,230.068,349998
0.0866699,0.234741,1.29205,0.760651,-4.41177,0.30426,1.65051,0.185364,0,513.597,-543.774,-0.34375,0.28125,230.089,350027
-0.0352783,0.0489502,0.691833,9.12781,-3.49899,-0.608521,1.64821,0.180099,0,458.937,-457.477,-0.375,0.28125,230.108,350042
0.0585938,0.053772,1.41406,-10.6491,3.80325,-0.45639,1.6459,0.174774,0,447.738,-579.509,-0.40625,0.273438,230.128,350058
-0.0456543,0.156311,0.960754,-1.67343,0.608521,-2.43408,1.64116,0.16394,0,502.26,-477.316,-0.429688,0.273438,230.149,350087
-0.109375,0.0455322,0.822937,0.15213,1.97769,-0.45639,1.63885,0.15831,0,550.767,-496.019,-0.4375,0.273438,230.167,350102
-0.0317993,-0.00769043,1.11346,0.15213,-1.5213,3.19473,1.63664,0.152634,0,554.862,-422.119,-0.445312,0.273438,230.188,350117
-0.031311,-0.0669556,0.818115,-0.45639,-1.67343,3.95538,1.63451,0.147034,0,496.401,-485.307,-0.445312,0.273438,230.208,350132
-0.0314941,-0.0371094,0.974304,-3.49899,0.912781,0.608521,1.6304,0.135956,0,555.803,-537.288,-0.445312,0.265625,230.228,350162
-0.017395,-0.0280762,1.00873,1.97769,4.10751,1.67343,1.62843,0.130493,0,526.468,-486.476,-0.382812,0.265625,230.248,350177
0.036499,-0.000488281,0.861755,-0.912781,-4.10751,1.36917,1.62646,0.125076,0,548.607,-363.98,-0.382812,0.265625,230.268,350192
0.00714111,0.0394897,0.861694,3.0426,-0,-0.15213,1.62253,0.114273,0,523.163,-488.067,-0.382812,0.265625,230.288,350222
0.015564,0.0283203,0.887085,-0,-3.0426,0.30426,1.62253,0.108841,0,499.264,-581.091,-0.382812,0.265625,230.308,350237
0.0774536,0.108459,0.805603,-0.30426,1.5213,3.0426,1.6226,0.0977936,0,447.417,-524.879,-0.382812,0.265625,230.329,350267
-0.0110474,0.0430908,1.00854,-0.760651,1.21704,1.67343,1.62257,0.0921631,0,540.073,-537.23,-0.382812,0.265625,230.349,350282
-0.0167847,0.0263062,1.047,0.30426,1.67343,1.36917,1.62257,0.0865173,0,502.159,-519.346,-0.382812,0.265625,230.368,350297
-0.00537109,0.0365601,0.895081,-0.608521,-1.82556,3.34686,1.62257,0.0808258,0,513.031,-440.937,-0.375,0.265625,230.388,350312
-0.0401611,-0.000488281,0.854126,-0.608521,5.93307,1.67343,1.6226,0.069458,0,463.113,-525.514,-0.375,0.265625,230.408,350342
0.0131836,0.0653076,1.03729,-4.10751,-3.49899,0.608521,1.62265,0.063736,0,498.728,-482.265,-0.367188,0.265625,230.429,350357
-0.00811768,0.124084,0.768433,-0,-2.89047,1.97769,1.62271,0.0522156,0,519.265,-512.794,-0.359375,0.265625,230.448,350387
0.0287476,-0.00506592,1.01227,-2.58621,-4.10751,2.43408,1.62271,0.0463715,0,450.177,-534.559,-0.328125,0.265625,230.468,350402
-0.0639038,0.0088501,0.900024,2.73834,5.02029,1.82556,1.62274,0.0405426,0,491.123,-500.877,-0.28125,0.242188,230.488,350417
-0.0115356,0.017395,0.763489,4.41177,1.21704,1.36917,1.62286,0.0286255,0,478.515,-500.663,-0.203125,0.210938,230.508,350447
0.013855,0.106079,1.06201,-6.38947,-4.5639,0.15213,1.62291,0.022583,0,444.375,-463.929,-0.140625,0.140625,230.528,350462
-0.0297852,0.0842896,0.912292,3.80325,3.80325,0.608521,1.62294,0.0164337,0,420.168,-410.315,-0.046875,0.09375,230.548,350477
0.0280762,0.182251,0.899109,3.95538,2.58621,2.89047,1.62289,0.00369263,0,458.222,-390.511,-0.0078125,0.0390625,230.568,350507
0.0239258,0.197571,1.02228,-2.28195,-3.65112,2.28195,1.62273,-0.00296021,0,337.627,-367.444,-0.0078125,0.0078125,230.588,350522
0.0195312,0.275818,1.01337,4.71603,-1.21704,1.97769,1.62244,-0.00987244,0,326.429,-354.145,-0.0078125,0.0078125,230.608,350537
-0.101135,0.0751953,0.985535,3.34686,4.41177,-0.760651,1.6216,-0.0245514,0,329.001,-436.862,-0.0078125,0.0078125,230.629,350567
-0.0131836,0.154907,0.80426,-2.12982,2.43408,-0.15213,1.62122,-0.032135,0,366.227,-305.53,-0.0078125,0.0078125,230.648,350582
0.0126343,0.101624,0.96698,-1.97769,2.58621,1.36917,1.6208,-0.0398407,0,322.108,-298.601,-0.0078125,0.0078125,230.668,350597
0.0202026,0.0966797,0.988403,-0.608521,0.760651,0.760651,1.61993,-0.0552826,0,285.519,-285.026,-0.0078125,0.0078125,230.688,350627
-0.0117798,0.0733643,0.895142,3.34686,1.21704,0.30426,1.61948,-0.0630646,0,271.713,-299.819,-0.0078125,0.0078125,230.708,350642
0.00634766,0.0532227,1.0097,-3.34686,1.97769,0.760651,1.61948,-0.0708923,0,258.308,-258.304,-0.0078125,0.0078125,230.729,350657
0.0184326,0.11084,0.902588,-0,-0.760651,1.06491,1.61948,-0.0867462,0,257,-243.891,-0.0078125,0.0078125,230.749,350687
-0.0521851,0.153931,0.965027,-3.95538,-0.15213,0.912781,1.61945,-0.0948486,0,233.762,-245.375,-0.0078125,0.0078125,230.768,350702
-0.0012207,0.158508,0.958313,1.21704,-2.58621,2.12982,1.61938,-0.103119,0,245.444,-219.952,-0.0078125,0.0078125,230.788,350717
0.012085,0.125366,0.923279,-0.608521,-0,1.97769,1.61928,-0.111511,0,232.726,-223.524,-0.0078125,0.0078125,230.808,350732
-0.0415039,0.107056,1.02838,-2.58621,-0,-0.760651,1.6189,-0.128616,0,202.753,-183.756,-0.0078125,0.0078125,230.828,350762
-0.0726929,0.135132,0.909973,3.34686,2.28195,0.30426,1.61873,-0.137344,0,172.421,-170.062,-0.0078125,0.0078125,230.848,350777
-0.0346069,0.100891,0.971497,2.12982,2.12982,0.912781,1.61827,-0.155075,0,153.854,-168.183,-0.0078125,0.0078125,230.868,350807
-0.0126343,0.0991211,0.9552,-2.28195,-0.608521,0.760651,1.61827,-0.164047,0,160.394,-138.975,-0.0078125,0.0078125,230.888,350822
-0.050293,0.13031,0.887207,1.67343,2.58621,0.912781,1.61827,-0.173126,0,151.898,-151.411,-0.0078125,0.0078125,230.908,350837
0.0314331,0.145203,0.929443,0.608521,1.82556,0.45639,1.61819,-0.191605,0,114.323,-124.518,-0.0078125,0.0078125,230.928,350867
-0.0115356,0.13916,0.983337,0.30426,-0,-0.45639,1.61806,-0.200989,0,120.546,-105.364,-0.0078125,0.0078125,230.948,350882
-0.0411377,0.106812,0.982239,0.30426,1.97769,0.45639,1.61794,-0.210495,0,99.2709,-90.0483,-0.0078125,0.0078125,230.968,350897
0.0227661,0.118469,0.904114,0.760651,0.912781,1.21704,1.61778,-0.220078,0,90.2796,-74.7541,-0.0078125,0.0078125,230.988,350912
-0.00866699,0.103638,0.92218,2.43408,2.43408,0.760651,1.61737,-0.239502,0,71.7198,-62.7685,-0.0078125,0.0078125,231.008,350942
-0.00543213,0.125671,0.934814,-0.30426,-0,0.15213,1.61713,-0.249344,0,56.4011,-50.2976,-0.0078125,0.0078125,231.029,350957
-0.00982666,0.108093,0.944763,0.608521,0.912781,-0,1.61658,-0.269241,0,40.2443,-38.1718,-0.0078125,0.0078125,231.048,350987
-0.0166016,0.108154,0.926331,0.15213,0.15213,0.608521,1.61658,-0.279297,0,35.9949,-33.6072,-0.0078125,0.0078125,231.068,351002
-0.0159912,0.132324,0.957886,0.15213,0.608521,0.608521,1.61658,-0.289444,0,35.9949,-33.6072,-0.0078125,0.0078125,231.088,351017
0.0111694,0.0679321,0.937805,0.760651,0.608521,-0.45639,1.6165,-0.309967,0,35.9949,-33.6072,-0.0078125,0.0078125,231.108,351047
-0.0478516,0.0610352,0.949829,0.15213,-0,-0.760651,1.61647,-0.320282,0,35.9949,-33.6072,-0.0078125,0.0078125,231.127,351062
0.00219727,0.0299072,0.942993,0.15213,0.608521,-0.30426,1.61644,-0.340866,0,0,-33.6072,-0.0078125,0.0078125,231.156,351092
0.00219727,0.0299072,0.942993,0.15213,0.608521,-0.30426,1.61644,-0.340866,0,-4.47385,-33.6072,-0.0078125,0.0078125,231.168,351092
-0.00311279,0.00732422,0.94696,0.608521,0.45639,-0.15213,1.6165,-0.361298,0,-19.8864,-3.48958,-0.0078125,0.0078125,231.188,351122
-0.0146484,0.00646973,0.947571,-0,-0,-0.45639,1.61659,-0.371429,0,-18.7914,0,-0.0078125,0.0078125,231.208,351137
     0,0.00183105,0.959351,0.15213,0.15213,0.15213,1.61687,-0.391525,0,-17.1985,2.9398,-0.0078125,0.0078125,231.228,351167
-0.0128784,-0.000793457,0.950012,0.30426,-0,0.30426,1.61703,-0.401489,0,-17.1985,2.9398,-0.0078125,0.0078125,231.248,351181
-0.0186157,-0.00384521,0.945557,0.15213,0.30426,0.15213,1.61726,-0.411377,0,-17.1985,2.9398,-0.0078125,0.0078125,231.268,351197
-0.0140381,0.0133667,0.952942,0.15213,0.30426,-0.15213,1.61781,-0.430969,0,-17.1985,2.9398,-0.0078125,0.0078125,231.288,351226
-0.00836182,0.0176392,0.948181,-0,-0,-0,1.61813,-0.440689,0,-17.1985,2.9398,-0.0078125,0.0078125,231.308,351241
-0.010437,0.0229492,0.954407,-0,-0.15213,-0,1.61847,-0.450378,0,-17.1985,2.9398,-0.0078125,0.0078125,231.328,351257
-0.00793457,0.0322266,0.956116,-0.15213,-0,-0,1.61847,-0.460037,0,-17.1985,2.9398,-0.0078125,0.0078125,231.349,351286
-0.00860596,0.0345459,0.947144,0.15213,0.30426,-0.15213,1.61847,-0.460037,0,-17.1985,2.9398,-0.0078125,0.0078125,231.367,351301
-0.00604248,0.0271606,0.951416,-0,-0,0.15213,1.61847,-0.460022,0,-17.1985,2.9398,-0.0078125,0.0078125,231.388,351317
-0.0136108,0.0194092,0.958374,0.30426,0.30426,-0,1.61847,-0.459869,0,-17.1985,2.9398,-0.0078125,0.0078125,231.408,351346
-0.00463867,0.0169067,0.950867,0.30426,0.608521,-0.15213,1.61847,-0.459747,0,-17.1985,2.9398,-0.0078125,0.0078125,231.429,351361
-0.00964355,0.0250244,0.9505,-0,-0.30426,0.15213,1.61847,-0.459595,0,-17.1985,2.9398,-0.0078125,0.0078125,231.448,351377
-0.00494385,0.022644,0.956116,0.15213,0.15213,-0,1.61847,-0.459198,0,-17.1985,2.9398,-0.0078125,0.0078125,231.469,351406
-0.0152588,0.0258179,0.951477,0.15213,0.45639,-0.15213,1.61847,-0.458939,0,-17.1985,2.9398,0.015748,0.0078125,231.488,351421
-0.00805664,0.0236816,0.956543,-0,-0,-0,1.61847,-0.458038,0,-17.1985,2.9398,0.0393701,0.0078125,231.529,351466
-0.00805664,0.0236816,0.956543,-0,-0,-0,1.61847,-0.458038,0,-17.1985,2.9398,0.0393701,0.0078125,231.53,351466
-0.00854492,0.0209351,0.950439,0.15213,0.30426,-0,1.61847,-0.457687,0,-17.1985,2.9398,0.133858,0.0078125,231.548,351481
-0.0111694,0.0249023,0.951965,0.30426,0.30426,0.15213,1.61847,-0.457306,0,-17.1985,2.9398,0.204724,0.0078125,231.568,351497
-0.00317383,0.0495605,0.958496,0.15213,0.608521,-0.15213,1.61847,-0.455978,0,-104.085,2.9398,0.259843,0.0078125,231.608,351541
-0.0776367,0.194336,0.850342,-1.06491,-5.78094,-7.15012,1.61847,-0.455643,0,-53.9928,34.8445,0.291339,-0.00787402,231.628,351557
-0.0198975,0.134338,1.02515,2.89047,2.12982,-6.23734,1.61847,-0.455475,0,-48.0364,36.1163,0.362205,-0.0787402,231.648,351571
0.0367432,0.0852661,1.09052,-2.73834,0.30426,1.21704,1.61835,-0.455536,0,-105.298,34.0883,0.393701,-0.11811,231.669,351601
0.0593872,0.112244,0.924072,-1.82556,-1.21704,-3.0426,1.61816,-0.455658,0,-112.259,55.1136,0.409449,-0.149606,231.688,351617
-0.0655518,0.151306,0.969727,-0.15213,-0.45639,-6.99799,1.6176,-0.456223,0,-147.659,100.583,0.409449,-0.165354,231.708,351646
-0.020752,0.179932,0.972778,0.45639,-0.608521,-3.19473,1.61731,-0.456726,0,-172.671,149.006,0.417323,-0.165354,231.729,351661
-0.0254517,0.15863,0.873169,0.760651,-1.21704,-2.43408,1.61699,-0.457397,0,-180.148,169.714,0.417323,-0.165354,231.748,351677
-0.0238037,0.15802,0.889526,2.12982,-0.760651,-2.89047,1.61623,-0.459213,0,-194.932,175.519,0.417323,-0.165354,231.768,351706
0.0122681,0.100769,1.0528,-0.608521,-0.912781,-1.82556,1.6158,-0.460281,0,-220.259,189.113,0.417323,-0.165354,231.788,351721
-0.00567627,0.133423,0.903259,0.30426,-0.608521,-2.73834,1.61533,-0.461426,0,-248.231,255.925,0.417323,-0.165354,231.809,351737
-0.0167236,0.136536,0.891235,-0,-0.30426,-4.10751,1.61427,-0.463959,0,-263.175,229.819,0.417323,-0.165354,231.828,351766
0.0012207,0.123169,0.963257,0.15213,0.912781,-2.73834,1.61371,-0.465363,0,-270.27,247.335,0.417323,-0.165354,231.848,351781
-0.0533447,0.0672607,0.968506,0.30426,0.45639,-2.58621,1.61314,-0.466812,0,-302.902,230.798,0.417323,-0.165354,231.87,351797
-0.0133057,0.0915527,0.945862,0.15213,-0.45639,-3.80325,1.61217,-0.469879,0,-330.721,308.285,0.417323,-0.165354,231.888,351826
0.0189209,0.115906,0.933105,0.912781,1.97769,-6.23734,1.61166,-0.471481,0,-319.035,295.103,0.417323,-0.165354,231.908,351841
0.0283203,0.112244,0.874512,0.912781,-0.912781,-5.32455,1.6111,-0.47316,0,-290.162,291.354,0.417323,-0.165354,231.929,351856
0.0469971,0.0383301,0.879272,1.82556,-0.912781,-3.65112,1.60985,-0.476471,0,-353.126,332.425,0.417323,-0.165354,231.948,351886
-0.00219727,0.127502,1.11029,-2.73834,-1.82556,-5.32455,1.60916,-0.478134,0,-343.053,310.227,0.417323,-0.165354,231.968,351901
0.0065918,0.0866699,0.792297,2.58621,-0.15213,-6.08521,1.60844,-0.479828,0,-309.325,274.469,0.417323,-0.165354,231.989,351916
-0.02948,0.0742188,0.909485,-0.15213,-3.65112,-3.0426,1.60701,-0.483185,0,-357.168,331.268,0.417323,-0.165354,232.008,351946
-0.0315552,0.0921021,0.927612,-0.608521,-1.06491,-5.62881,1.60701,-0.484879,0,-343.083,331.691,0.417323,-0.165354,232.028,351961
-0.0455933,0.0055542,0.928894,0.30426,0.30426,-5.62881,1.60706,-0.486588,0,-396.165,382.973,0.322835,-0.165354,232.049,351976
-0.067688,0.0177612,0.700562,-0,1.5213,-4.71603,1.60747,-0.489883,0,-319,306.269,0.251969,-0.165354,232.087,352021
-0.138367,0.0452881,0.990662,-1.21704,1.21704,-2.12982,1.6078,-0.489883,0,-334.052,286.303,0.212598,-0.165354,232.102,352036
-0.138367,0.0452881,0.990662,-1.21704,1.21704,-2.12982,1.6078,-0.489883,0,-357.91,411.743,0.188976,-0.165354,232.108,352036
-0.0249023,-0.0565796,1.02509,0.15213,2.89047,0.45639,1.6087,-0.489594,0,-316.696,340.229,0.188976,-0.165354,232.128,352066
-0.0129395,-0.0449219,0.862732,0.15213,0.45639,-0.760651,1.60924,-0.489227,0,-283.483,285.98,0.188976,-0.165354,232.148,352081
-0.0403442,-0.00640869,0.907593,-0.15213,-0.608521,-0.912781,1.60983,-0.48877,0,-297.628,336.853,0.188976,-0.165354,232.168,352096
-0.052063,-0.0583496,0.782654,1.67343,0.30426,0.15213,1.61128,-0.487579,0,-293.746,293.105,0.283465,-0.165354,232.188,352126
0.00115967,-0.0393677,0.984924,-2.89047,-1.5213,0.45639,1.61211,-0.486816,0,-295.225,272.313,0.322835,-0.165354,232.209,352141
0.0252686,-0.064209,0.931519,0.45639,-1.5213,-0,1.61298,-0.485901,0,-341.279,307.239,0.338583,-0.165354,232.228,352156
-0.0137939,0.0405884,1.013,1.36917,1.97769,-3.0426,1.61462,-0.483749,0,-337.399,299.509,0.346457,-0.165354,232.248,352186
0.0248413,0.100098,0.863586,-0.912781,-0.608521,-3.80325,1.61542,-0.482666,0,-316.877,256.377,0.354331,-0.173228,232.268,352201
0.0282593,-0.0238647,1.0047,2.89047,2.73834,-5.47668,1.61618,-0.481537,0,-346.063,288.355,0.354331,-0.204724,232.288,352216
-0.022644,0.12384,0.946228,-1.36917,-0,-3.49899,1.61693,-0.479279,0,-299.343,295.46,0.354331,-0.228346,232.308,352246
-0.0340576,0.0952759,0.975464,-0.45639,4.5639,-0.15213,1.61693,-0.478271,0,-323.567,410.821,0.354331,-0.259843,232.328,352261
0.0485229,0.0930786,0.995422,-0.45639,-0.15213,-0.15213,1.6169,-0.47731,0,-301.382,338.484,0.220472,-0.275591,232.348,352276
0.0297852,0.0594482,1.03247,0.912781,-1.36917,-3.34686,1.61676,-0.476349,0,-296.296,314.041,0.125984,-0.299213,232.368,352306
-0.115295,0.0194702,0.967468,0.30426,-0.15213,-1.21704,1.61674,-0.476349,0,-322.149,345.811,0.0708661,-0.314961,232.388,352321
-0.029541,-0.026001,0.818542,1.67343,-1.67343,1.67343,1.61684,-0.476318,0,-314.549,357.398,0.015748,-0.330709,232.408,352336
-0.0413208,0.0408936,0.886902,0.608521,0.30426,1.36917,1.61708,-0.475998,0,-269.585,360.64,0,-0.354331,232.439,352366
-0.0147095,-0.0693359,1.01105,4.41177,1.21704,5.47668,1.61743,-0.475693,0,-292.517,318.862,-0.0078125,-0.377953,232.462,352396
-0.0147095,-0.0693359,1.01105,4.41177,1.21704,5.47668,1.61743,-0.475693,0,-267.852,377.273,-0.0078125,-0.425197,232.468,352396
0.0526123,0.0198975,1.05499,-5.02029,-0.15213,7.91077,1.61803,-0.474899,0,-293.979,380.815,-0.0078125,-0.480315,232.488,352426
0.0111084,0.187012,1.08398,-1.67343,2.58621,3.95538,1.61826,-0.474472,0,-350.951,328.391,-0.0078125,-0.503937,232.508,352441
0.0101929,0.145935,0.90332,2.73834,3.19473,4.71603,1.61842,-0.474197,0,-332.696,332.607,-0.0078125,-0.511811,232.528,352456
-0.00872803,0.0712891,0.971436,1.36917,5.78094,6.23734,1.6185,-0.473862,0,-358.989,412.788,-0.0078125,-0.511811,232.548,352486
-0.10437,0.0284424,0.802734,7.45438,-6.08521,5.93307,1.61858,-0.47374,0,-356.614,326.121,-0.0078125,-0.511811,232.568,352501
0.00421143,0.121277,1.14764,-9.73633,1.06491,6.99799,1.6187,-0.473663,0,-361.324,417.659,-0.0078125,-0.519685,232.588,352516
0.0667725,-0.024292,0.978333,6.38947,2.73834,4.41177,1.61876,-0.473557,0,-413.65,392.003,-0.0078125,-0.519685,232.608,352531
-0.0604858,0.0755615,0.894653,1.06491,-3.34686,6.69373,1.61888,-0.473572,0,-395.288,514.589,-0.0078125,-0.519685,232.627,352561
-0.00537109,0.0545044,1.19659,-2.73834,-0.912781,5.02029,1.61899,-0.473663,0,-452.161,343.731,-0.015625,-0.519685,232.648,352576
0.0128174,0.10144,0.98468,-0.15213,-1.21704,6.08521,1.6192,-0.474014,0,-407.573,419.287,-0.015625,-0.519685,232.668,352606
0.0466919,0.0830078,0.958191,1.21704,3.65112,4.41177,1.61922,-0.474258,0,-416.406,475.839,-0.0625,-0.527559,232.697,352621
0.0391846,0.0284424,0.922363,1.21704,-1.06491,5.32455,1.61923,-0.474808,0,-418.296,423.872,-0.117188,-0.527559,232.717,352651
-0.103821,-0.0620728,0.988159,-1.82556,-0.912781,1.82556,1.61929,-0.474991,0,-346.488,506.445,-0.195312,-0.527559,232.728,352666
-0.176636,-0.152588,0.865356,3.34686,-0.912781,10.9534,1.6196,-0.475037,0,-276.709,439.454,-0.226562,-0.535433,232.749,352681
-0.141724,-0.09729,0.940063,-2.58621,1.67343,20.994,1.62018,-0.47493,0,-247.314,490.088,-0.234375,-0.535433,232.768,352696
-0.22052,-0.0856934,0.838989,1.06491,2.58621,28.7526,1.62195,-0.474152,0,-206.081,463.661,-0.234375,-0.535433,232.788,352726
-0.110779,-0.131836,0.868958,-3.80325,0.608521,36.0548,1.6232,-0.473572,0,-170.165,471.076,-0.265625,-0.535433,232.809,352741
-0.133118,-0.205627,1.13171,0.15213,3.34686,39.8581,1.62469,-0.472763,0,-130.843,375.657,-0.296875,-0.535433,232.828,352756
-0.214417,-0.109497,1.04034,-2.58621,-3.0426,49.7466,1.62852,-0.470795,0,-98.2256,428.89,-0.320312,-0.543307,232.849,352786
-0.0482788,-0.130066,0.887573,2.12982,6.84586,54.4626,1.6308,-0.469635,0,-55.6299,371.644,-0.34375,-0.543307,232.868,352801
-0.133179,-0.12793,0.998352,-5.93307,1.21704,60.2435,1.63324,-0.468292,0,-37.1004,378.501,-0.359375,-0.543307,232.889,352816
-0.0969849,-0.0991821,0.946838,2.73834,-1.82556,66.7851,1.63866,-0.465057,0,-37.1004,371.865,-0.390625,-0.543307,232.909,352846
-0.148987,0.0267334,0.955566,-3.34686,-1.36917,72.7182,1.64159,-0.463318,0,-37.1004,397.939,-0.453125,-0.543307,232.928,352861
-0.083252,-0.0238037,0.936218,-2.28195,-2.89047,78.0428,1.64465,-0.461578,0,-5.56292,316.721,-0.507812,-0.551181,232.948,352876
-0.217407,0.0263062,0.944275,-1.82556,-1.67343,84.7365,1.6512,-0.458099,0,48.2995,474.203,-0.570312,-0.551181,232.969,352906
-0.160767,-0.0547485,0.877625,0.608521,2.28195,89.7568,1.6548,-0.456421,0,114.167,341.111,-0.59375,-0.551181,232.988,352921
-0.13031,-0.0310059,1.06458,-1.67343,0.30426,95.2335,1.65857,-0.454712,0,157.266,306.429,-0.609375,-0.551181,233.008,352936
-0.203796,-0.0112305,0.90741,-3.0426,-0.760651,106.035,1.66647,-0.451218,0,184.71,360.347,-0.664062,-0.559055,233.028,352965
-0.0728149,-0.0308838,0.929321,3.65112,2.58621,111.664,1.67064,-0.449478,0,234.417,301.418,-0.742188,-0.574803,233.049,352980
-0.0579224,0.0078125,0.938416,-4.10751,3.65112,116.684,1.67488,-0.447708,0,280.867,337.929,-0.789062,-0.590551,233.068,352996
-0.0513916,-0.0267334,0.779785,2.12982,0.912781,123.378,1.68349,-0.444153,0,355.84,349.369,-0.828125,-0.598425,233.088,353025
-0.124756,0.0299072,0.779114,-1.06491,-0.608521,127.789,1.6879,-0.442383,0,417.999,316.311,-0.828125,-0.606299,233.108,353040
-0.189148,0.0459595,0.994324,-0.912781,0.15213,135.244,1.69243,-0.440704,0,433.463,364.917,-0.828125,-0.606299,233.129,353056
-0.076416,0.0306396,1.23407,-1.21704,1.06491,149.696,1.70187,-0.437576,0,455.094,299.401,-0.828125,-0.606299,233.148,353085
-0.170837,0.0369873,0.777039,5.02029,-4.5639,153.804,1.70671,-0.436111,0,499.239,302.952,-0.828125,-0.606299,233.168,353100
-0.164124,0.00823975,0.975098,-2.43408,-7.30225,159.432,1.71167,-0.434738,0,513.452,326.627,-0.828125,-0.606299,233.188,353116
-0.209045,0.0998535,0.904907,-3.19473,-1.21704,171.451,1.72202,-0.432144,0,546.15,410.425,-0.828125,-0.606299,233.208,353145
-0.145325,0.0669556,0.796082,-2.12982,5.78094,177.992,1.72734,-0.431091,0,660.655,305.806,-0.828125,-0.606299,233.23,353160
-0.090271,0.1698,1.25354,-7.30225,6.08521,181.643,1.73264,-0.430191,0,635.364,419.71,-0.828125,-0.606299,233.248,353176
-0.0614014,0.0361328,0.611816,15.5173,-7.75864,186.055,1.73787,-0.429382,0,601.468,412.916,-0.828125,-0.606299,233.268,353190
-0.0864258,0.0866699,1.1369,-9.73633,-2.43408,197.769,1.7485,-0.428268,0,587.924,379.355,-0.828125,-0.606299,233.288,353220
-0.038269,0.012085,1.03345,1.21704,0.760651,200.964,1.7538,-0.427826,0,656.577,303.817,-0.828125,-0.606299,233.308,353236
-0.144714,0.124268,0.848877,-3.95538,-2.58621,207.049,1.7538,-0.427338,0,577.901,424.683,-0.828125,-0.606299,233.328,353265
-0.212646,0.164246,0.838867,3.34686,2.12982,213.286,1.7538,-0.427444,0,652.891,382.944,-0.828125,-0.606299,233.348,353280
-0.0710449,0.00274658,0.854858,-14.1481,0.30426,219.98,1.7538,-0.427704,0,662.888,347.066,-0.828125,-0.606299,233.368,353296
-0.0878906,0.0703125,0.394043,-3.49899,-14.6045,225.305,1.75348,-0.428726,0,661.638,358.519,-0.828125,-0.606299,233.388,353325
-0.00152588,0.193298,1.36377,-17.495,5.32455,228.956,1.75311,-0.429428,0,727.484,408.522,-0.828125,-0.606299,233.408,353340
-0.118469,0.0369263,0.69165,14.4524,-13.0832,232.455,1.75262,-0.430191,0,576.203,390.801,-0.828125,-0.606299,233.428,353356
-0.108459,0.109924,0.956177,13.996,-7.75864,238.388,1.7514,-0.432068,0,730.861,455.768,-0.828125,-0.606299,233.448,353385
-0.107849,0.0635376,0.779785,-13.5396,0.45639,239.909,1.75067,-0.433182,0,709.522,408.247,-0.828125,-0.606299,233.468,353400
-0.0592041,0.161133,1.11932,6.99799,-2.28195,241.887,1.74983,-0.434372,0,686.436,382.409,-0.828125,-0.606299,233.488,353416
-0.0731812,0.137939,1.68689,-14.1481,-1.97769,244.473,1.74788,-0.436951,0,708.215,432.629,-0.828125,-0.606299,233.508,353445
0.0770874,0.0257568,0.405273,24.6451,-1.97769,242.952,1.74672,-0.438187,0,696.427,513.637,-0.828125,-0.606299,233.53,353460
-0.104309,0.115906,0.938232,-27.2313,10.0406,242.648,1.74547,-0.439438,0,635.263,486.169,-0.828125,-0.606299,233.548,353476
0.0840454,0.245422,1.29492,0.608521,6.38947,242.191,1.74396,-0.440659,0,677.599,619.042,-0.828125,-0.606299,233.568,353490
-0.0540161,0.114441,0.806885,-3.95538,0.45639,243.712,1.74036,-0.44313,0,787.526,444.405,-0.828125,-0.606299,233.588,353520
0.10791,0.0158081,0.899109,-13.3875,-16.2779,243.408,1.73839,-0.44429,0,824.64,511.548,-0.828125,-0.606299,233.608,353536
-0.139954,0.100891,0.453369,4.10751,-3.19473,236.258,1.73381,-0.446518,0,834.168,563.539,-0.828125,-0.606299,233.628,353565
0.143799,0.18866,1.10669,-27.3834,13.5396,236.867,1.73123,-0.447647,0,817.461,471.109,-0.828125,-0.606299,233.648,353580
-0.0496826,0.157593,0.812622,9.73633,5.32455,235.041,1.72838,-0.448685,0,881.756,474.046,-0.828125,-0.606299,233.669,353596
-0.0119629,0.226868,1.24738,-7.91077,0.760651,236.714,1.72214,-0.45076,0,803.148,442.175,-0.828125,-0.606299,233.688,353625
0.0321655,0.127869,0.970337,-0,3.19473,234.585,1.71867,-0.451721,0,792.016,426.776,-0.828125,-0.606299,233.708,353640
-0.188904,0.230957,0.758423,2.73834,4.41177,233.52,1.71497,-0.452713,0,761.876,376.286,-0.828125,-0.606299,233.728,353655
-0.00598145,0.139771,1.08661,17.3428,13.0832,229.412,1.70694,-0.454315,0,794.628,386.989,-0.828125,-0.606299,233.748,353685
-0.13916,0.152283,0.628601,-4.71603,-10.6491,228.347,1.70264,-0.455017,0,702.667,373.406,-0.828125,-0.543307,233.768,353700
-0.0388184,0.13855,1.04401,-10.9534,-10.0406,229.716,1.69817,-0.455765,0,780.579,319.76,-0.828125,-0.503937,233.788,353715
-0.0126953,0.143677,0.847961,7.45438,3.0426,224.696,1.68871,-0.456879,0,796.94,136.83,-0.828125,-0.503937,233.808,353745
-0.0560913,0.18689,0.829773,-5.02029,3.19473,225.761,1.68369,-0.457321,0,780.732,213.224,-0.828125,-0.480315,233.828,353760
0.024231,0.125977,0.942871,-3.19473,-0.30426,225.305,1.67847,-0.457687,0,782.014,209.815,-0.828125,-0.464567,233.848,353775
-0.0579834,0.116516,1.15918,3.49899,10.1927,222.719,1.66754,-0.458115,0,818.699,220.897,-0.828125,-0.448819,233.869,353805
-0.0702515,0.172546,0.795166,-2.28195,0.760651,221.045,1.6618,-0.458252,0,815.029,210.15,-0.828125,-0.448819,233.888,353820
-0.0209961,0.15448,0.841919,-1.82556,1.5213,221.654,1.65587,-0.458359,0,831.359,173.294,-0.828125,-0.440945,233.908,353835
-0.0388184,0.160217,1.00488,-0.45639,0.30426,221.501,1.64357,-0.458282,0,774.234,155.698,-0.828125,-0.409449,233.928,353865
-0.0620117,0.162231,0.901672,-0.15213,-1.5213,219.676,1.63715,-0.45813,0,906.536,129.82,-0.828125,-0.377953,233.949,353880
-0.0717163,0.188721,1.09088,-1.82556,-0.15213,219.98,1.63051,-0.457916,0,856.274,125.593,-0.828125,-0.244094,233.968,353895
-0.0259399,0.128601,0.940369,-1.97769,2.73834,217.242,1.61679,-0.457352,0,842.708,93.9532,-0.828125,-0.15748,233.989,353925
0.0641479,0.118774,1.14319,-3.80325,-0.912781,214.351,1.60976,-0.456879,0,792.77,66.5987,-0.828125,-0.0551181,234.008,353940
0.101807,-0.069519,1.03906,1.06491,1.21704,210.396,1.60278,-0.456192,0,764.146,66.5987,-0.828125,-0.00787402,234.028,353955
0.085022,0.0175171,1.01697,-7.15012,3.34686,196.248,1.58923,-0.45433,0,803.859,8.3467,-0.828125,0.0078125,234.048,353985
0.130005,0.0128174,0.858826,8.97568,-0.760651,192.597,1.58258,-0.453094,0,889.719,-60.3867,-0.828125,0.0078125,234.068,354000
-0.0474854,-0.0437012,0.65686,1.36917,-9.88846,195.335,1.576,-0.451767,0,829.772,-69.6059,-0.828125,0.0078125,234.088,354015
0.081604,0.0045166,0.670898,13.8438,2.58621,192.749,1.56303,-0.448517,0,982.753,-98.8474,-0.828125,0.0078125,234.108,354045
0.0754395,0.0410156,1.02069,-7.30225,6.23734,187.272,1.55664,-0.446609,0,918.569,-130.222,-0.828125,0.0078125,234.128,354060
0.0683594,0.0327148,0.984253,0.760651,-4.71603,182.708,1.55028,-0.444504,0,798.754,-145.42,-0.828125,0.0078125,234.148,354075
0.0324097,0.0217285,0.727661,-8.67142,-5.47668,173.428,1.53767,-0.439987,0,896.459,-213.322,-0.828125,0.0078125,234.168,354105
0.0485229,-0.0186768,0.975647,-6.69373,-7.15012,170.69,1.53145,-0.437592,0,900.941,-191.349,-0.828125,0.0078125,234.189,354120
-0.106873,0.0853271,1.1026,6.84586,1.5213,167.647,1.52521,-0.435135,0,892.22,-210.664,-0.828125,0.0078125,234.208,354135
0.0830688,0.0471802,0.9245,-7.75864,-0.608521,164.605,1.51295,-0.429703,0,934.667,-235.599,-0.828125,0.0078125,234.228,354165
0.0357056,0.0252075,0.946228,-8.36716,-2.28195,158.52,1.50694,-0.426712,0,895.295,-286.086,-0.828125,0.0078125,234.249,354180
0.0392456,-0.00177002,0.997925,2.28195,-7.60651,151.826,1.50098,-0.423615,0,906.824,-178.785,-0.828125,0.0078125,234.268,354195
0.093811,-0.0322266,0.989319,-5.32455,4.5639,148.479,1.48949,-0.417206,0,899.928,-279.556,-0.828125,0.0078125,234.288,354225
0.0532227,0.0411987,1.03308,-2.58621,-2.89047,143.763,1.48393,-0.413818,0,906.906,-330.055,-0.828125,0.0078125,234.308,354240
0.0020752,-0.0470581,0.651917,-0.30426,-11.8661,139.047,1.47842,-0.410355,0,920.006,-410.99,-0.828125,0.0078125,234.329,354255
0.159119,-0.0947266,1.24762,-3.34686,0.15213,129.919,1.46785,-0.403198,0,882.262,-353.964,-0.828125,0.0078125,234.348,354285
0.123718,-0.057312,0.927307,2.58621,-3.95538,124.442,1.46292,-0.399445,0,879.43,-443.213,-0.828125,0.0078125,234.368,354300
-0.0615234,0.0717773,0.659851,2.73834,-6.99799,120.639,1.45802,-0.395599,0,1080.03,-387.499,-0.828125,0.0078125,234.388,354315
0.101318,-0.111084,1.21301,-9.27994,5.47668,114.402,1.44839,-0.387695,0,979.384,-479.317,-0.828125,0.0078125,234.408,354345
0.102356,-0.0122681,1.05988,4.25964,0.15213,105.883,1.44386,-0.383621,0,1013.48,-448.964,-0.828125,0.0078125,234.428,354360
0.0401001,-0.0307007,0.846008,6.08521,-4.5639,102.079,1.43944,-0.379456,0,931.055,-461.723,-0.828125,0.0078125,234.448,354375
0.0908813,-0.0699463,0.9823,-9.88846,3.95538,98.2761,1.43114,-0.371033,0,918.4,-495.135,-0.828125,0.0078125,234.468,354405
0.139526,-0.1651,0.963684,2.43408,-3.34686,92.6472,1.42734,-0.366776,0,1008.06,-421.292,-0.828125,0.0078125,234.488,354420
0.0186157,0.0419922,0.970581,-1.82556,1.36917,86.562,1.42369,-0.362473,0,950.209,-651.381,-0.828125,0.0078125,234.508,354435
0.125977,-0.11438,0.782166,-12.3225,-14.3002,76.5215,1.41685,-0.353653,0,885.269,-545.569,-0.828125,0.0078125,234.528,354465
0.172546,-0.0177002,1.19012,-0.760651,6.5416,70.5884,1.41379,-0.349121,0,994.481,-494.169,-0.828125,0.0078125,234.548,354480
0.10437,-0.0668335,0.852356,3.34686,-9.43207,64.8074,1.41092,-0.344467,0,946.656,-671.276,-0.828125,0.0078125,234.568,354495
0.0857544,-0.00848389,1.05853,5.02029,-2.12982,57.8094,1.40559,-0.334991,0,939.364,-655.673,-0.828125,-0.0787402,234.588,354525
-0.0224609,-0.0394287,0.685486,4.25964,1.82556,52.4849,1.40306,-0.33017,0,940.424,-509.736,-0.828125,-0.15748,234.608,354540
0.0348511,0.078064,1.20911,-18.2556,22.3631,51.5721,1.40306,-0.325287,0,901.469,-372.024,-0.828125,-0.212598,234.627,354555
-0.21814,0.2005,1.013,6.5416,-0.760651,63.134,1.40231,-0.31485,0,958.911,-247.706,-0.828125,-0.212598,234.647,354585
-0.299316,0.168457,0.520691,2.28195,-5.02029,70.7405,1.40132,-0.309509,0,928.333,-193.909,-0.828125,-0.220472,234.675,354600
-0.119019,0.334473,1.48285,-4.41177,0.45639,86.8663,1.39783,-0.298492,0,1029.18,-152.909,-0.828125,-0.220472,234.701,354630
-0.16156,0.227661,1.03235,9.43207,3.65112,91.4302,1.39549,-0.292633,0,988.924,-136.918,-0.828125,-0.220472,234.708,354645
-0.265625,0.249817,0.690857,0.608521,2.58621,95.3856,1.39276,-0.286636,0,888.81,-113.31,-0.828125,-0.220472,234.732,354660
-0.305725,0.261353,0.761597,-2.12982,1.36917,101.927,1.38956,-0.280563,0,869.112,-87.2186,-0.835938,-0.220472,234.748,354675
-0.339478,0.205566,1.52356,-1.97769,-11.4098,111.816,1.38199,-0.268158,0,795.83,-81.6633,-0.84375,-0.220472,234.768,354704
-0.110779,0.222656,0.766418,13.8438,2.73834,114.25,1.37767,-0.261826,0,855.798,-51.5964,-0.851562,-0.220472,234.789,354719
-0.179016,0.211304,0.677612,-7.45438,-2.58621,119.574,1.37308,-0.255341,0,924.3,-39.0354,-0.851562,-0.220472,234.808,354735
-0.277954,0.198975,0.929321,5.62881,-4.41177,129.919,1.36288,-0.242035,0,862.999,-39.0354,-0.867188,-0.220472,234.829,354764
-0.182739,0.0654297,0.851379,-10.3448,-5.32455,136.917,1.3573,-0.235336,0,882.379,-39.0354,-0.875,-0.220472,234.851,354779
-0.122803,0.101562,0.670166,5.02029,-2.12982,141.177,1.34537,-0.221817,0,887.075,-39.0354,-0.875,-0.220472,234.873,354809
-0.190063,0.164917,0.976562,-11.1055,0.45639,144.371,1.33907,-0.214951,0,847.889,-39.0354,-0.875,-0.220472,234.888,354824
-0.142578,0.18988,1.00623,2.43408,-9.43207,147.566,1.33253,-0.207962,0,819.773,-39.0354,-0.875,-0.220472,234.908,354839
-0.136536,0.122986,0.951782,-7.60651,-2.43408,150,1.32582,-0.200851,0,743.882,-39.0354,-0.875,-0.220472,234.928,354855
-0.180481,0.102783,0.700806,-0.760651,-7.15012,155.933,1.3119,-0.186432,0,818.197,-39.0354,-0.875,-0.220472,234.948,354884
-0.0606079,0.268066,1.42908,-19.3205,6.69373,158.215,1.30472,-0.179016,0,800.929,-39.0354,-0.875,-0.220472,234.968,354899
-0.15741,0.0407715,0.898743,14.4524,-3.65112,160.193,1.29741,-0.171463,0,833.681,-39.0354,-0.875,-0.220472,234.988,354915
-0.0715942,0.153503,0.953979,-0.15213,-11.2576,164.909,1.28232,-0.156311,0,867.265,-39.0354,-0.882812,-0.220472,235.008,354944
-0.0700073,0.0643311,0.863647,-0.30426,-2.89047,166.43,1.27466,-0.148575,0,856.421,-39.0354,-0.882812,-0.220472,235.029,354959
-0.0792847,0.157654,1.03809,0.30426,4.10751,169.017,1.26695,-0.140732,0,835.073,-39.0354,-0.882812,-0.220472,235.048,354975
-0.16687,0.145508,0.941284,-2.89047,-4.41177,172.059,1.25142,-0.124695,0,870.436,-39.0354,-0.882812,-0.220472,235.069,355004
-0.114258,0.122925,1.17664,-8.0629,-4.5639,174.493,1.24352,-0.116501,0,907.318,-39.0354,-0.882812,-0.15748,235.088,355019
-0.0450439,0.0769653,0.85022,0.30426,-0.45639,177.536,1.23557,-0.1082,0,864.865,-39.0354,-0.882812,-0.125984,235.108,355035
-0.164734,0.167236,0.876648,0.760651,6.08521,179.209,1.23549,-0.0911407,0,843.028,-2.85851,-0.882812,-0.0787402,235.128,355064
-0.111145,0.0698853,0.853027,-11.4098,3.0426,180.731,1.23529,-0.0824127,0,773.335,-2.87406,-0.882812,-0.0551181,235.148,355079
-0.117126,0.231995,1.09491,-3.65112,-8.67142,182.252,1.23502,-0.0735016,0,794.976,-95.984,-0.882812,-0.0314961,235.168,355095
-0.123169,0.0809937,1.37164,-5.62881,-2.43408,176.319,1.23441,-0.0553436,0,876.079,-184.323,-0.882812,-0.00787402,235.188,355124
-0.0961914,-0.0182495,0.793518,6.84586,-0.760651,169.777,1.23409,-0.0462189,0,918.653,-191.944,-0.882812,0.0078125,235.208,355139
-0.0154419,-0.0357666,0.930725,-12.1704,-4.41177,165.061,1.23347,-0.0284424,0,876.885,-209.415,-0.882812,0.0078125,235.234,355169
-0.0808105,-0.0145264,1.11932,-3.95538,-6.84586,162.323,1.23325,-0.0196838,0,933.707,-246.266,-0.882812,0.0078125,235.25,355184
-0.134033,-0.0395508,1.09521,-4.10751,3.65112,159.889,1.233,-0.0109711,0,1028.65,-277.104,-0.882812,0.0078125,235.268,355199
0.0916138,0.0150146,0.776489,-3.0426,4.5639,157.303,1.23282,-0.00230408,0,1051.19,-284.172,-0.882812,0.0078125,235.288,355215
0.0342407,-0.0505371,0.937561,-1.67343,3.19473,151.522,1.23334,0.0148621,0,982.946,-302.151,-0.890625,0.0078125,235.308,355244
0.0471191,-0.0679321,1.18311,-0.45639,3.95538,147.262,1.2339,0.0233002,0,990.099,-361.827,-0.890625,0.0078125,235.331,355259
-0.10321,-0.0355225,0.871277,10.6491,4.5639,142.698,1.23451,0.0316772,0,969.274,-349.797,-0.890625,0.0078125,235.349,355275
0.0115356,-0.0462646,1.27008,-5.17242,-10.3448,134.939,1.23601,0.0483093,0,1019.68,-426.221,-0.890625,0.0234375,235.368,355304
0.0682373,-0.0685425,0.861755,4.5639,0.15213,132.049,1.23698,0.0565186,0,997.656,-372.752,-0.890625,0.09375,235.39,355319
0.125671,-0.0117188,1.13397,-9.73633,3.65112,128.854,1.23819,0.0646362,0,956.206,-407.922,-0.890625,0.140625,235.41,355335
0.0966797,-0.0128784,0.665039,-3.19473,1.97769,120.183,1.24139,0.08078,0,1006.8,-471.921,-0.890625,0.21875,235.429,355364
0.181091,0.124634,1.50684,-16.5822,9.12781,120.183,1.24341,0.0888672,0,992.999,-445.712,-0.890625,0.273438,235.448,355379
0.0324097,0.0543213,1.12909,17.1907,15.213,116.988,1.24571,0.0970459,0,1065.19,-508.208,-0.890625,0.296875,235.469,355394
-0.0419922,0.0679932,0.836121,-3.49899,-6.69373,108.773,1.24808,0.113327,0,1015.8,-549.722,-0.890625,0.3125,235.492,355424
0.0950317,-0.0870361,0.966064,-3.49899,10.3448,103.144,1.24818,0.121445,0,1116.32,-511.548,-0.890625,0.320312,235.509,355439
0.0653076,-0.0750732,1.05725,-7.75864,3.0426,97.3633,1.24844,0.12941,0,1158.88,-568.15,-0.890625,0.320312,235.529,355454
-0.00311279,0.0783691,0.836792,8.21503,-0.45639,94.0164,1.24922,0.145248,0,975.8,-534.874,-0.890625,0.328125,235.549,355484
-0.0562134,-0.03125,0.558716,-6.38947,5.47668,91.5823,1.24966,0.153214,0,1011.12,-585.377,-0.890625,0.328125,235.568,355499
0.171143,0.0128784,1.20093,-13.3875,-0.45639,86.8663,1.25024,0.161148,0,1093.91,-655.802,-0.890625,0.328125,235.589,355514
0.0872803,0.0523071,0.881531,-4.5639,8.67142,78.8034,1.25223,0.17688,0,1022.49,-672.02,-0.890625,0.328125,235.608,355544
0.114075,-0.115112,0.853088,-0,-3.19473,78.4991,1.25352,0.184662,0,1050.25,-603.701,-0.890625,0.328125,235.63,355559
-0.0701904,0.0755615,0.97876,-6.23734,-5.78094,75.3044,1.2549,0.192413,0,1058.54,-581.446,-0.890625,0.328125,235.648,355574
-0.212585,0.0639648,1.03656,-2.89047,-1.21704,73.4789,1.25751,0.208054,0,1192.32,-627.235,-0.828125,0.328125,235.668,355604
-0.192017,-0.0582886,0.978882,6.08521,-2.89047,70.5884,1.25856,0.215973,0,942.596,-645.911,-0.828125,0.328125,235.688,355619
-0.0247803,0.00390625,0.82019,-9.12781,1.82556,68.9149,1.25952,0.223923,0,1055.97,-595.398,-0.820312,0.335938,235.708,355634
-0.00177002,-0.00402832,0.961243,14.6045,-7.45438,63.7425,1.26164,0.239761,0,971.487,-728.438,-0.8125,0.351562,235.728,355664
0.0321045,-0.0838623,0.819336,-1.82556,-2.58621,62.3734,1.2628,0.247604,0,967.961,-581.48,-0.804688,0.375,235.748,355679
0.00354004,0.0801392,1.20953,-0.608521,2.43408,59.0265,1.26405,0.255447,0,929.8,-748.811,-0.804688,0.375,235.77,355694
0.0250854,-0.0703125,0.671204,7.45438,5.17242,48.9859,1.26842,0.278671,0,978.186,-748.027,-0.765625,0.414062,235.805,355739
0.0250854,-0.0703125,0.671204,7.45438,5.17242,48.9859,1.26842,0.278671,0,1026.06,-694.444,-0.765625,0.414062,235.809,355739
0.0197754,0.0955811,1.39166,-8.51929,-2.73834,46.5518,1.27011,0.286316,0,925.626,-582.937,-0.765625,0.414062,235.828,355754
0.086792,-0.11261,0.704773,-0.30426,3.80325,41.9879,1.27364,0.301453,0,958.543,-924.428,-0.726562,0.4375,235.849,355784
0.0822144,-0.0124512,1.05121,-10.8012,22.6674,40.1624,1.27554,0.308823,0,1091.46,-788.706,-0.710938,0.445312,235.868,355799
0.003479,0.00640869,1.27478,5.78094,-0.912781,36.9676,1.27759,0.316177,0,879.353,-867.453,-0.6875,0.46875,235.888,355814
0.0404053,-0.0335693,0.883545,-10.6491,5.47668,25.4057,1.28203,0.330612,0,904.282,-904.404,-0.664062,0.539062,235.908,355844
0.268982,0.0146484,1.02344,0.15213,7.75864,20.0812,1.28455,0.337677,0,872.486,-889.719,-0.625,0.601562,235.928,355859
0.13501,-0.125244,0.955444,0.608521,-0.30426,15.6694,1.28735,0.344589,0,891.902,-957.625,-0.609375,0.695312,235.948,355874
0.0662231,-0.0199585,0.715759,-1.82556,5.47668,2.89047,1.29327,0.358215,0,836.75,-828.123,-0.59375,0.75,235.968,355904
-0.00201416,0.0637207,0.952698,-15.0609,18.2556,0.30426,1.29637,0.365036,0,824.063,-1013.17,-0.570312,0.804688,235.988,355919
0.0908203,0.0181885,1.06085,5.78094,9.12781,-1.5213,1.29958,0.371887,0,864.379,-958.865,-0.539062,0.828125,236.008,355934
0.125061,-0.264038,0.961121,0.15213,6.08521,-12.0183,1.3065,0.384918,0,877.193,-1047.5,-0.515625,0.84375,236.028,355964
-0.0324707,-0.0334473,1.06531,-9.73633,2.73834,-16.8864,1.31004,0.391052,0,810.898,-1125.11,-0.476562,0.859375,236.048,355979
0.0753784,0.00842285,0.684631,-4.86816,12.9311,-14.7566,1.31364,0.397171,0,934.842,-1037.61,-0.429688,0.867188,236.068,355994
-0.0921021,-0.0891724,0.358521,28.9047,25.5579,-11.8661,1.32135,0.397141,0,880.708,-1099.75,-0.390625,0.875,236.088,356024
0.269775,-0.142151,0.761414,-11.2576,-4.41177,-13.5396,1.32533,0.396912,0,759.244,-857.376,-0.335938,0.875,236.108,356039
0.14447,0.0239258,0.547729,-2.73834,9.27994,-22.9716,1.33391,0.396271,0,804.926,-991.179,-0.3125,0.882812,236.129,356069
-0.112244,0.332825,1.16107,-16.8864,-14.3002,-26.927,1.33844,0.396179,0,817.795,-916.758,-0.289062,0.890625,236.147,356084
0.00408936,-0.119507,0.695435,6.08521,-9.27994,-29.0569,1.34761,0.396179,0,800.641,-1216.84,-0.28125,0.90625,236.185,356114
-0.145386,0.085083,1.02283,-2.58621,-3.34686,-31.9473,1.35214,0.396133,0,639.713,-1119.57,-0.273438,0.921875,236.202,356129
0.124023,0.00140381,0.790527,1.67343,-5.32455,-35.2942,1.35669,0.396149,0,737.844,-921.022,-0.273438,0.921875,236.209,356144
0.0466919,0.176758,1.35199,-10.9534,-5.02029,-39.4017,1.3614,0.396255,0,665.978,-1088.97,-0.265625,0.921875,236.228,356159
0.165588,-0.0055542,0.976013,7.15012,6.38947,-41.3794,1.36633,0.396423,0,821.423,-1098.9,-0.265625,0.921875,236.249,356174
0.153442,0.0358276,0.932983,-1.5213,-5.02029,-49.138,1.37685,0.396545,0,725.716,-1120.57,-0.265625,0.921875,236.268,356204
0.292786,0.0211182,1.16144,0.608521,5.93307,-55.3754,1.38252,0.39653,0,656.879,-1165.37,-0.265625,0.921875,236.288,356219
-0.0690918,0.172607,0.981262,-8.0629,-8.51929,-55.8318,1.3884,0.396591,0,647.061,-1256.83,-0.265625,0.921875,236.308,356234
0.31073,-0.108215,1.1535,-4.5639,-4.5639,-54.0062,1.40031,0.396698,0,628.18,-1062.42,-0.265625,0.929688,236.328,356264
0.133667,0.0762939,1.19354,12.4747,-6.5416,-55.5275,1.40666,0.396561,0,647.962,-936.68,-0.265625,0.929688,236.348,356279
0.052002,0.0487061,0.791809,5.93307,8.21503,-55.0711,1.41316,0.396484,0,749.176,-1102.17,-0.265625,0.929688,236.368,356294
0.0178223,-0.0759277,0.977112,7.30225,4.41177,-58.8744,1.42635,0.396378,0,593.243,-1193.1,-0.265625,0.929688,236.388,356324
0.159485,0.0200195,1.00244,0.15213,-11.1055,-62.6776,1.43306,0.39624,0,676.476,-981.691,-0.25,0.929688,236.408,356339
-0.0490723,0.00604248,0.606812,1.97769,0.15213,-62.9819,1.43985,0.396118,0,712.987,-1078.87,-0.242188,0.929688,236.428,356354
-0.0947876,0.0695801,1.12439,-1.21704,-13.0832,-63.8947,1.45351,0.395874,0,626.233,-1166.11,-0.234375,0.929688,236.449,356384
0.0202637,0.188538,0.712646,11.4098,12.6268,-62.0691,1.46034,0.39595,0,562.461,-1020.98,-0.234375,0.929688,236.468,356399
0.0134888,0.177795,1.56696,-10.1927,-15.0609,-60.6999,1.4742,0.396484,0,629.862,-1123.41,-0.234375,0.929688,236.491,356429
0.00494385,-0.0703735,0.732605,26.7749,15.0609,-58.7222,1.48119,0.396881,0,664.673,-1194.96,-0.234375,0.929688,236.509,356444
0.0299683,0.0986328,0.79895,-12.6268,-11.2576,-61.0042,1.48819,0.397308,0,692.018,-1187.51,-0.234375,0.929688,236.528,356458
0.235168,-0.155334,0.554382,12.7789,10.497,-61.917,1.50233,0.398483,0,656.426,-1149.69,-0.234375,0.929688,236.549,356488
-0.131714,0.152649,1.21484,-7.60651,-13.996,-64.9596,1.50954,0.399048,0,673.423,-1272.43,-0.234375,0.929688,236.568,356503
0.124573,0.00177002,1.23517,18.2556,1.5213,-63.2861,1.51674,0.399719,0,654.172,-1210.36,-0.234375,0.929688,236.588,356518
0.236572,-0.0770874,0.335999,5.17242,8.21503,-65.416,1.52417,0.400299,0,648.698,-1118.19,-0.234375,0.929688,236.608,356534
0.00201416,-0.0311279,1.20007,6.99799,-0.30426,-72.7182,1.547,0.402588,0,696.403,-1074.29,-0.234375,0.867188,236.642,356578
0.00201416,-0.0311279,1.20007,6.99799,-0.30426,-72.7182,1.547,0.402588,0,587.061,-1146.72,-0.234375,0.828125,236.648,356578
0.0856323,-0.00769043,0.963867,-3.49899,5.02029,-70.132,1.56224,0.404449,0,623.597,-1080.73,-0.234375,0.742188,236.673,356608
0.142517,-0.036499,1.08826,0.608521,-12.7789,-66.7851,1.56999,0.405365,0,619.233,-1031.99,-0.320312,0.65625,236.688,356623
0.0910034,0.0586548,0.846252,12.9311,6.99799,-65.416,1.5779,0.406265,0,570.255,-1007.96,-0.367188,0.484375,236.709,356638
-0.0263062,0.274475,0.970703,-1.21704,-1.5213,-62.3734,1.58586,0.407379,0,699.227,-1055.8,-0.429688,0.304688,236.728,356654
-0.234924,0.222473,0.925354,-1.06491,-0.30426,-42.2922,1.60149,0.410263,0,782.136,-921.829,-0.453125,0.210938,236.749,356683
-0.322266,0.284912,1.16779,1.36917,-3.0426,-28.7526,1.60887,0.412201,0,867.039,-923.318,-0.46875,0.140625,236.768,356698
-0.353027,0.174683,0.874451,8.51929,3.95538,-12.1704,1.61581,0.414474,0,917.431,-658.133,-0.476562,0.078125,236.788,356714
-0.236816,0.373596,0.998047,-3.19473,-6.5416,5.47668,1.62875,0.42009,0,777.484,-622.161,-0.476562,0.0546875,236.809,356743
-0.251526,0.369812,1.03876,-9.88846,-7.15012,18.712,1.63484,0.423615,0,751.23,-506.547,-0.484375,0.046875,236.828,356758
-0.010437,0.276489,0.803772,3.65112,0.912781,22.5153,1.64714,0.432053,0,712.708,-447.037,-0.484375,0.046875,236.848,356788
-0.210083,0.249329,1.33264,-2.12982,-10.6491,24.6451,1.65326,0.436798,0,701.853,-351.828,-0.492188,0.0390625,236.868,356803
-0.118286,0.221375,0.936462,4.25964,6.38947,28.2962,1.65923,0.441849,0,715.359,-408.247,-0.5,0.0234375,236.888,356818
-0.131653,0.112122,0.696472,1.06491,1.36917,31.9473,1.66507,0.447113,0,620.559,-493.012,-0.507812,0.0078125,236.908,356834
0.0598145,0.153503,1.26758,-3.65112,2.12982,35.2942,1.67633,0.458084,0,630.239,-515.371,-0.515625,0.0078125,236.932,356863
0.304932,0.0214844,0.844543,0.15213,6.84586,28.1441,1.68224,0.463669,0,587.596,-548.968,-0.53125,0.0078125,236.949,356878
-0.034668,0.0753174,1.03705,-0.912781,1.5213,19.3205,1.68832,0.469254,0,593.613,-548.832,-0.5625,0.0078125,236.968,356894
0.0792236,0.0244751,0.922607,4.5639,-0.912781,13.2353,1.70085,0.480301,0,516.676,-499.251,-0.578125,0.0078125,236.991,356923
0.0999146,0.0379639,1.04535,-5.93307,-1.67343,12.6268,1.70732,0.485764,0,626.253,-555.478,-0.59375,0.0078125,237.008,356938
0.0999146,0.0379639,1.04535,-5.93307,-1.67343,12.6268,1.70732,0.485764,0,581.649,-532.269,-0.59375,0.0078125,237.028,356938
0.0999146,0.0379639,1.04535,-5.93307,-1.67343,12.6268,1.70732,0.485764,0,544.07,-518.256,-0.59375,0.0078125,237.048,356938
0.0999146,0.0379639,1.04535,-5.93307,-1.67343,12.6268,1.70732,0.485764,0,601.431,-604.906,-0.59375,0.0078125,237.068,356938
0.0204468,0.0223389,1.06409,-2.12982,-0.45639,11.4098,1.7403,0.485352,0,584.556,-525.928,-0.59375,0.0078125,237.089,357026
-0.045166,0.0117798,0.878113,-1.82556,-0.45639,10.0406,1.7538,0.484726,0,617.113,-531.745,-0.59375,0.0078125,237.108,357043
0.0134277,-0.0376587,0.965576,6.5416,7.30225,9.43207,1.76051,0.484329,0,613.742,-652.763,-0.59375,0.0078125,237.128,357058
0.0414429,0.0238647,0.927551,-10.3448,-7.75864,8.67142,1.76727,0.483887,0,687.592,-569.557,-0.59375,0.0078125,237.149,357074
0.0700684,-0.05896,0.76239,0.760651,1.97769,10.3448,1.78082,0.482651,0,653.232,-672.518,-0.59375,0.0078125,237.168,357103
-0.0429688,0.00646973,1.33221,-6.84586,-8.36716,8.82355,1.78761,0.481888,0,662.054,-581.987,-0.601562,0.0078125,237.188,357118
0.0111084,0.0618286,0.813171,7.15012,6.69373,7.30225,1.7944,0.481125,0,676.27,-559.879,-0.601562,0.0078125,237.208,357133
0.0535278,-0.0220947,1.15973,1.36917,-3.65112,7.60651,1.80809,0.479446,0,704.771,-641.807,-0.601562,0.0078125,237.228,357163
-0.0699463,0.00714111,0.761902,-1.21704,-7.45438,8.67142,1.81494,0.478516,0,572.05,-602.446,-0.609375,0.0078125,237.248,357178
-0.0856934,-0.0471802,0.781189,0.30426,-4.41177,8.97568,1.82863,0.478485,0,645.953,-594.106,-0.625,0.0078125,237.268,357208
-0.0465088,0.0251465,1.12463,1.82556,2.73834,10.0406,1.83539,0.478424,0,674.127,-603.737,-0.632812,0.0078125,237.289,357223
-0.0529785,-0.0137329,0.883667,4.71603,1.5213,10.8012,1.84209,0.478363,0,737.382,-657.851,-0.640625,0.0078125,237.309,357238
-0.0292969,-0.0603638,0.933838,-1.5213,0.608521,10.497,1.85541,0.478088,0,780.793,-658.371,-0.640625,0.0078125,237.328,357268
-0.0864868,-0.0472412,0.871155,-2.89047,-5.62881,10.9534,1.86197,0.477844,0,744.38,-582.649,-0.648438,0.0078125,237.348,357283
-0.0175171,-0.0875244,1.07642,5.47668,3.80325,11.4098,1.86847,0.477478,0,731.368,-664.916,-0.65625,0.0078125,237.369,357298
-0.0360107,0.0213623,0.960266,-9.43207,-4.10751,10.0406,1.87494,0.477066,0,717.927,-629.148,-0.664062,0.0078125,237.388,357313
0.0119019,-0.0734253,0.7453,9.73633,-6.23734,9.88846,1.88805,0.475983,0,738.334,-725.874,-0.671875,0.0078125,237.408,357343
0.11969,0.0739746,1.25916,-12.3225,-7.15012,11.5619,1.89473,0.475342,0,706.015,-695.846,-0.671875,0.0078125,237.428,357358
-0.00604248,-0.0582886,0.698181,6.69373,-0.30426,11.2576,1.90152,0.47467,0,776.126,-711.238,-0.6875,0.0078125,237.448,357373
-0.0585938,-0.112122,0.906067,0.45639,-7.15012,8.97568,1.91521,0.473206,0,755.944,-728.2,-0.695312,0.0078125,237.468,357403
0.0392456,-0.0169067,1.22015,-5.62881,5.93307,10.497,1.92204,0.472321,0,852.297,-671.614,-0.703125,0.0078125,237.489,357418
0.0991821,-0.113708,1.15466,-6.23734,-5.93307,12.6268,1.93581,0.470306,0,856.164,-742.639,-0.703125,0.0078125,237.508,357448
-0.0259399,-0.0360718,0.774902,8.97568,4.25964,12.4747,1.94275,0.469086,0,841.963,-784.344,-0.703125,0.0078125,237.53,357463
-0.104065,-0.0283203,1.05774,-12.6268,-2.58621,12.3225,1.94962,0.467834,0,852.152,-707.664,-0.710938,0.0078125,237.548,357478
0.00476074,-0.0625,0.986267,5.47668,0.912781,13.0832,1.95644,0.466492,0,759.1,-711.693,-0.710938,0.0078125,237.569,357493
-0.198242,0.0411987,0.884399,-11.2576,-10.1927,13.6917,1.97003,0.463654,0,733.111,-698.788,-0.71875,0.0078125,237.588,357523
0.0203857,0.0371704,1.15814,-4.71603,6.69373,14.1481,1.9767,0.46228,0,817.361,-783.177,-0.742188,0.0078125,237.608,357538
-0.101685,0.0739746,0.708313,7.91077,2.58621,13.6917,1.98334,0.460983,0,840.725,-710.858,-0.757812,0.0078125,237.628,357553
-0.0444336,0.0287476,1.06226,4.5639,13.5396,16.5822,1.99657,0.458527,0,881.135,-764.731,-0.796875,0.0078125,237.648,357583
-0.013916,-0.00714111,0.740784,3.34686,0.15213,15.8215,2.00316,0.458527,0,877.539,-800.961,-0.796875,0.0078125,237.668,357598
-0.129395,-0.0439453,0.909058,0.912781,4.25964,17.3428,2.01668,0.458359,0,867.453,-671.908,-0.804688,0.0078125,237.688,357628
-0.161377,0.102905,1.19012,-9.12781,-10.0406,17.3428,2.0233,0.458298,0,851.644,-795.608,-0.8125,0.0078125,237.709,357643
-0.0521851,-0.0662842,0.711365,9.12781,11.1055,19.1684,2.0298,0.458267,0,956.297,-839.56,-0.820312,0.0078125,237.729,357658
-0.0940552,-0.0857544,1.00134,0.760651,-3.80325,17.6471,2.04257,0.457962,0,873.401,-860.289,-0.820312,0.0078125,237.749,357688
-0.050293,-0.0800171,0.741516,-0.912781,-3.49899,17.1907,2.04881,0.457657,0,937.383,-826.583,-0.820312,0.0078125,237.768,357703
-0.0875244,0.0224609,1.06744,-8.82355,-7.30225,17.0386,2.05496,0.457306,0,1057.47,-796.844,-0.828125,0.0078125,237.788,357718
0.055542,-0.144409,0.717834,0.15213,4.71603,20.6897,2.06705,0.45639,0,994.827,-866.551,-0.828125,0.0078125,237.808,357748
-0.0519409,0.020874,1.20294,-5.47668,-5.93307,19.3205,2.07306,0.455765,0,1048.66,-964.925,-0.828125,0.0078125,237.828,357763
0.0137939,-0.108521,0.841858,-5.02029,-9.27994,17.9514,2.07907,0.455048,0,1012.04,-872.791,-0.828125,0.0078125,237.848,357778
-0.0248413,-0.0758057,0.868347,5.17242,2.28195,15.9737,2.08505,0.454208,0,948.587,-844.309,-0.828125,0.0078125,237.867,357793
-0.16394,0.0662842,0.893555,-0.45639,5.47668,17.3428,2.09708,0.452286,0,985.659,-841.928,-0.828125,0.0078125,237.888,357823
-0.101807,0.101318,1.14789,-12.0183,-5.78094,17.1907,2.10294,0.451462,0,967.165,-1037.29,-0.828125,0.0078125,237.908,357838
-0.0202026,-0.0422974,0.924927,2.89047,-7.15012,15.6694,2.11484,0.449738,0,1114.02,-913.826,-0.757812,0.0078125,237.93,357868
-0.108582,-0.0818481,0.993164,3.34686,1.67343,14.7566,2.12076,0.448746,0,1121.2,-918.569,-0.703125,0.0078125,237.948,357883
-0.0248413,-0.00360107,1.05908,1.5213,-2.43408,14.7566,2.12659,0.447708,0,990.442,-891.703,-0.585938,-0,237.968,357898
0.00518799,0.0767822,0.660217,-0.608521,6.99799,14.4524,2.13243,0.446716,0,892.777,-894.534,-0.375,-0,237.988,357913
-0.0158691,-0.000244141,1.24994,0.912781,-0.760651,9.73633,2.14444,0.444763,0,910.622,-613.008,-0.226562,-0.00787402,238.008,357943
-0.0801392,0.148682,0.903503,6.99799,9.73633,8.82355,2.15048,0.443863,0,807.265,-1204.67,-0.046875,-0.0314961,238.028,357958
-0.00750732,0.131348,0.726257,6.84586,0.30426,6.69373,2.15651,0.443161,0,654.75,-898.513,-0.0078125,-0.0551181,238.048,357973
0.151062,0.357361,1.17548,-0.45639,0.15213,0.760651,2.16873,0.442352,0,796.242,-697.18,-0.0078125,-0.11811,238.068,358003
-0.122803,0.525513,0.686096,3.34686,13.2353,-5.17242,2.17509,0.442657,0,807.983,-491.944,-0.0078125,-0.173228,238.088,358018
-0.220642,0.49353,0.834717,9.12781,8.82355,20.8418,2.18741,0.445007,0,708.968,-220.08,-0.0078125,-0.212598,238.108,358048
-0.0596924,0.394592,0.75885,3.49899,-0.608521,27.3834,2.19345,0.447067,0,714.133,-150.642,-0.0078125,-0.220472,238.128,358063
-0.0960693,0.36676,1.04614,-6.99799,-2.28195,33.1644,2.19955,0.449631,0,662.274,-94.1411,-0.0078125,-0.23622,238.148,358078
-0.00476074,0.35022,0.729309,2.73834,-1.06491,45.0305,2.2117,0.456314,0,595.132,-53.6966,-0.0078125,-0.244094,238.168,358108
-0.175537,0.512024,1.21234,0.608521,8.67142,48.8338,2.21783,0.460449,0,521.336,-53.6966,-0.0078125,-0.251969,238.189,358123
-0.135498,0.443604,0.952026,3.95538,-1.06491,51.2679,2.21783,0.465195,0,547.27,-53.6966,-0.0078125,-0.259843,238.208,358138
-0.0700684,0.419922,0.818848,5.02029,3.19473,53.8541,2.21788,0.470474,0,430.71,-53.6966,-0.0078125,-0.267717,238.228,358153
-0.0578613,0.395203,1.06995,-3.65112,-1.21704,56.5924,2.21809,0.482559,0,402.034,-53.6966,-0.0078125,-0.283465,238.248,358183
-0.0464478,0.438782,0.930237,1.06491,1.97769,55.0711,2.21834,0.489304,0,267.77,-53.6966,-0.0078125,-0.299213,238.268,358198
-0.0130005,0.383118,0.999329,-0,-0.608521,52.4849,2.21922,0.504166,0,218.873,-53.6966,-0.0078125,-0.314961,238.288,358227
0.00921631,0.362122,0.939575,-1.36917,-2.43408,51.5721,2.21988,0.512177,0,168.125,-53.6966,-0.0078125,-0.330709,238.308,358242
0.0552979,0.29364,1.01263,-1.36917,-0.15213,48.5295,2.22075,0.520493,0,113.87,-53.6966,-0.0078125,-0.338583,238.328,358257
0.151611,0.166077,0.946045,-1.06491,-0.912781,37.424,2.22313,0.537506,0,73.5154,5.35106,-0.0078125,-0.346457,238.348,358287
0.164368,0.300232,1.08124,-3.34686,0.760651,34.2293,2.22476,0.546158,0,37.8581,73.2912,-0.0078125,-0.346457,238.368,358302
0.134583,0.132751,0.835388,-0.30426,-1.5213,32.5558,2.22667,0.554886,0,37.8581,99.1808,-0.0078125,-0.346457,238.388,358317
0.0895386,0.0930786,0.91156,4.41177,0.760651,19.0163,2.23126,0.572235,0,0,106.339,-0.0078125,-0.354331,238.408,358347
0.0305786,0.103333,0.928772,0.912781,-2.73834,14.6045,2.2338,0.580872,0,-50.0584,142.48,-0.0078125,-0.362205,238.428,358362
0.00195312,0.0955811,0.997925,-0,-0,12.1704,2.23637,0.580872,0,-93.3062,121.23,-0.0078125,-0.370079,238.449,358377
0.06427,0.15802,0.869507,1.82556,1.21704,5.47668,2.24184,0.580795,0,-107.421,154.542,-0.0078125,-0.370079,238.469,358407
0.0626831,0.103577,1.02679,-2.43408,1.5213,5.32455,2.24477,0.580765,0,-117.134,137.486,-0.0078125,-0.377953,238.49,358422
0.0619507,0.0534058,0.992615,2.12982,1.36917,3.34686,2.2478,0.580704,0,-142.871,146.428,-0.0078125,-0.377953,238.508,358437
0.00921631,0.105591,0.800171,3.80325,-0.912781,1.97769,2.25089,0.580612,0,-146.538,159.78,-0.0078125,-0.377953,238.529,358453
-0.0601807,0.145752,1.01239,0.912781,1.5213,1.36917,2.25713,0.58046,0,-160.015,204.363,-0.0078125,-0.377953,238.549,358482
-0.0185547,0.0966187,0.83606,3.19473,1.82556,3.95538,2.26021,0.58046,0,-208.119,212.19,-0.0078125,-0.377953,238.569,358497
0.0310669,0.0906372,0.973999,3.80325,1.36917,4.86816,2.26654,0.580566,0,-181.14,210.128,-0.0078125,-0.377953,238.589,358527
-0.00811768,0.110352,0.875427,1.06491,0.45639,3.95538,2.26978,0.580643,0,-219,204.947,-0.0078125,-0.401575,238.608,358542
-0.0466309,0.170105,0.988647,-3.0426,-1.5213,4.5639,2.28297,0.581039,0,-240.185,248.654,-0.0078125,-0.440945,238.667,358602
-0.0466309,0.170105,0.988647,-3.0426,-1.5213,4.5639,2.28297,0.581039,0,-241.316,253.418,-0.0078125,-0.440945,238.67,358602
-0.0115356,0.133545,0.93396,-0,-2.89047,5.32455,2.28629,0.581314,0,-246.051,360.672,-0.0078125,-0.511811,238.688,358617
-0.00323486,0.0834351,0.943237,-0,-1.82556,5.32455,2.28629,0.581619,0,-303.799,353.457,-0.0078125,-0.551181,238.708,358633
0.00134277,0.169495,1.02087,-0.45639,-1.82556,6.69373,2.28639,0.58223,0,-276.56,364.1,-0.0078125,-0.566929,238.728,358662
-0.0908203,0.175232,0.837402,-3.34686,-2.73834,7.91077,2.28647,0.582687,0,-281.785,295.146,-0.0078125,-0.590551,238.748,358677
-0.0427856,0.078186,0.858826,2.28195,-1.06491,12.6268,2.28647,0.583862,0,-357.219,332.071,-0.0078125,-0.598425,238.768,358707
-0.110229,0.199768,0.884216,-5.17242,1.97769,14.3002,2.28639,0.584579,0,-320.677,470.699,-0.0078125,-0.606299,238.788,358722
0.0043335,0.206909,1.10754,-4.41177,-1.5213,13.5396,2.28632,0.585464,0,-397.148,484.543,-0.0078125,-0.606299,238.809,358737
-0.0908813,0.179626,0.802795,-0.608521,1.06491,15.0609,2.28632,0.587418,0,-374.434,563.301,-0.0078125,-0.606299,238.829,358767
0.0233765,0.214111,1.12622,-2.28195,-0.45639,17.9514,2.28636,0.588562,0,-402.309,470.887,-0.117188,-0.606299,238.848,358782
0.0159912,0.199402,0.858887,3.80325,-0.15213,16.2779,2.2865,0.589844,0,-334.068,562.303,-0.164062,-0.606299,238.868,358797
-0.140747,0.0561523,0.747742,-1.21704,-3.95538,17.3428,2.28659,0.591202,0,-299.083,671.547,-0.171875,-0.606299,238.888,358813
-0.258728,-0.0859985,1.03711,2.89047,5.32455,39.8581,2.28583,0.593857,0,-280.202,569.411,-0.203125,-0.606299,238.908,358842
-0.269775,-0.113831,0.932434,-8.0629,-3.34686,47.1603,2.28487,0.595016,0,-263.272,577.601,-0.226562,-0.606299,238.928,358857
-0.21936,-0.0687256,0.85553,1.82556,-8.36716,55.5275,2.28203,0.596863,0,-194,589.24,-0.289062,-0.606299,238.949,358887
-0.146729,0,1.02478,-9.27994,0.45639,64.5032,2.28024,0.597626,0,-160.123,484.355,-0.320312,-0.606299,238.968,358902
-0.1828,-0.126282,0.961365,9.27994,5.32455,73.0225,2.2782,0.598282,0,-96.1936,630.318,-0.351562,-0.606299,238.988,358917
-0.110962,-0.123596,0.926147,0.608521,-1.21704,90.061,2.27336,0.59906,0,-62.9915,533.333,-0.359375,-0.606299,239.009,358947
-0.263428,-0.0205078,0.904114,2.58621,4.10751,99.4931,2.27055,0.599258,0,-62.9915,516.342,-0.367188,-0.606299,239.031,358962
-0.229004,-0.110962,0.894226,-6.84586,0.912781,109.382,2.26743,0.599411,0,-62.9915,702.321,-0.40625,-0.606299,239.049,358977
-0.088623,-0.0690308,1.03998,0.760651,-0,114.706,2.26056,0.599182,0,-62.9915,479.053,-0.445312,-0.496063,239.071,359007
-0.197205,-0.0263672,1.0329,-8.21503,1.36917,119.422,2.25299,0.598434,0,41.8645,547.36,-0.484375,-0.448819,239.104,359037
-0.197205,-0.0263672,1.0329,-8.21503,1.36917,119.422,2.25299,0.598434,0,51.4657,505.715,-0.484375,-0.448819,239.108,359037
-0.163208,-0.0374756,0.86615,-2.43408,1.82556,129.615,2.24457,0.597488,0,93.6242,406.149,-0.523438,-0.377953,239.128,359067
-0.0770874,-0.0214233,1.02173,-0,-0.45639,135.092,2.24011,0.596939,0,140.537,354.547,-0.539062,-0.307087,239.149,359082
-0.0252686,-0.135803,1.06061,0.912781,-2.89047,138.438,2.23558,0.596191,0,191.248,298.69,-0.546875,-0.259843,239.168,359097
-0.0413208,-0.142456,0.84082,4.41177,3.65112,139.655,2.23094,0.5952,0,230.792,248.617,-0.546875,-0.220472,239.188,359112
-0.022583,-0.107422,0.881653,2.58621,3.80325,139.047,2.22144,0.592468,0,280.525,249.629,-0.546875,-0.181102,239.209,359142
0.113708,-0.206848,0.921021,-2.58621,6.38947,137.83,2.2166,0.590668,0,270.427,193.631,-0.546875,-0.15748,239.228,359157
0.0701294,-0.153015,0.826477,0.15213,0.608521,132.505,2.2166,0.585922,0,367.891,147.805,-0.546875,-0.15748,239.248,359187
0.071228,-0.171143,1.00446,-3.49899,3.65112,130.984,2.21658,0.583054,0,355.809,101.224,-0.546875,-0.102362,239.269,359202
0.148193,-0.144714,0.916931,2.12982,1.5213,127.485,2.21657,0.579834,0,394.54,73.359,-0.546875,-0.0629921,239.289,359217
0.127319,-0.13623,1.05951,-1.5213,1.36917,116.38,2.21674,0.572342,0,364.272,44.983,-0.546875,-0.00787402,239.308,359247
0.0649414,-0.161316,0.920898,0.15213,1.06491,110.903,2.21684,0.568115,0,451.416,44.983,-0.546875,-0,239.328,359262
0.154785,-0.0999146,0.933167,-1.97769,-0.608521,107.86,2.217,0.563583,0,466.952,8.15266,-0.546875,0.0078125,239.349,359277
0.0949707,-0.0536499,1.01343,-1.06491,0.30426,104.97,2.21722,0.558777,0,497.475,-57.389,-0.546875,0.0078125,239.368,359292
0.116577,-0.0712891,0.869995,0.30426,0.608521,98.5803,2.21783,0.548599,0,498.033,-84.6966,-0.546875,0.0078125,239.389,359322
0.0302124,-0.0380249,0.98407,-1.5213,-0.760651,95.2335,2.21822,0.543228,0,488.818,-109.515,-0.546875,0.0078125,239.408,359337
-0.0065918,-0.0305786,0.940735,-3.19473,-3.65112,93.4079,2.21907,0.532104,0,548.381,-128.583,-0.546875,0.0078125,239.428,359367
-0.0248413,0.0105591,1.00818,-3.19473,-0.608521,91.2781,2.21951,0.526428,0,479.076,-138.701,-0.554688,0.0078125,239.448,359382
0.0129395,-0.0143433,0.980347,1.06491,-1.97769,89.3004,2.21951,0.520706,0,515.557,-167.668,-0.5625,0.0078125,239.469,359397
0.127991,-0.0922852,1.02881,-1.5213,1.5213,84.4322,2.21951,0.508835,0,520.129,-168.233,-0.570312,0.0078125,239.489,359427
0.0828247,-0.0259399,0.997009,2.73834,0.912781,79.5641,2.2196,0.502579,0,536.15,-203.93,-0.570312,0.0078125,239.508,359442
0.0466919,-0.0773926,0.884277,0.912781,3.0426,75.6087,2.21971,0.496155,0,534.402,-249.75,-0.578125,0.0078125,239.528,359457
0.0145264,-0.0264282,0.99707,0.608521,-1.36917,71.9576,2.21982,0.482864,0,515.278,-239.607,-0.585938,0.0078125,239.551,359487
0.0663452,-0.0958862,0.982178,-0,-6.69373,69.5235,2.21982,0.476013,0,535.017,-255.209,-0.601562,-0.0551181,239.568,359502
0.0727539,0.0264893,0.842834,-0,-4.41177,62.5255,2.21996,0.461761,0,573.411,-217.271,-0.609375,-0.0866142,239.597,359532
-0.0198364,0.0958252,0.946045,-4.86816,-2.28195,65.7202,2.22018,0.454544,0,527.218,-211.633,-0.609375,-0.110236,239.608,359547
-0.0253296,0.059021,1.15381,1.97769,3.0426,68.6107,2.2205,0.447357,0,546.852,-185.832,-0.609375,-0.125984,239.628,359562
-0.0605469,0.101257,0.943848,-2.73834,-1.82556,70.7405,2.22089,0.440247,0,610.65,-133.291,-0.609375,-0.125984,239.648,359577
-0.0836792,0.0662231,0.88092,-6.84586,-3.80325,80.1726,2.22194,0.426346,0,534.817,-103.683,-0.609375,-0.133858,239.67,359607
-0.0927734,0.192749,1.11908,-2.43408,1.82556,84.8886,2.2226,0.419586,0,623.325,-109.276,-0.609375,-0.15748,239.688,359622
-0.10437,0.0401001,0.727661,2.43408,-8.97568,86.2578,2.22331,0.412994,0,576.087,-91.6078,-0.609375,-0.188976,239.709,359637
-0.0706787,0.0996094,1.08691,1.5213,-5.02029,90.3653,2.22475,0.400116,0,640.164,-78.6791,-0.609375,-0.212598,239.728,359667
-0.0316772,0.120605,0.88562,1.36917,-1.36917,93.56,2.22557,0.393814,0,557.647,-73.6046,-0.609375,-0.23622,239.748,359682
-0.0736694,0.138062,0.955139,-3.95538,-1.5213,96.1462,2.22652,0.387604,0,555.448,-38.1516,-0.609375,-0.23622,239.768,359697
-0.0554199,0.121338,0.839478,4.41177,-2.89047,101.775,2.22878,0.375534,0,581.311,-24.0255,-0.609375,-0.23622,239.788,359727
-0.105347,0.121826,0.907654,-0.45639,-3.80325,105.426,2.23004,0.369675,0,603.519,-24.0255,-0.609375,-0.23622,239.808,359742
-0.0715942,0.117798,1.10175,-1.67343,-0.15213,109.534,2.2314,0.363922,0,586.803,-24.0255,-0.609375,-0.23622,239.828,359757
-0.0112915,0.0650024,0.864807,-1.21704,-0.45639,111.055,2.23445,0.352646,0,523.423,-24.0255,-0.609375,-0.23622,239.848,359787
-0.0647583,0.131409,1.09045,-2.12982,1.06491,112.424,2.23613,0.347076,0,543.478,-24.0255,-0.609375,-0.23622,239.868,359802
-0.11261,0.140869,1.00604,1.67343,-0,114.098,2.23792,0.341614,0,618.487,-24.0255,-0.609375,-0.23622,239.888,359817
-0.0635376,0.110901,0.870056,-3.0426,-1.82556,116.075,2.24182,0.330948,0,547.69,-24.0255,-0.609375,-0.23622,239.92,359847
-0.100403,0.113403,1.03778,-4.5639,-1.67343,118.205,2.24393,0.325745,0,568.909,-24.0255,-0.609375,-0.244094,239.93,359862
-0.0651855,0.081543,0.987427,-0.45639,-2.28195,119.422,2.24609,0.320618,0,569.168,-24.0255,-0.609375,-0.244094,239.95,359877
-0.0386353,0.0926514,1.0163,-4.10751,-0.608521,120.791,2.25061,0.310562,0,473.059,-24.0255,-0.609375,-0.244094,239.969,359907
-0.0917358,0.0997314,0.90802,2.58621,0.608521,121.856,2.25299,0.305618,0,516.022,-24.0255,-0.609375,-0.244094,239.989,359922
-0.036499,0.0878906,0.915894,-3.19473,-1.67343,123.834,2.25545,0.30072,0,504.872,-24.0255,-0.609375,-0.244094,240.008,359937
-0.0178223,0.0735474,1.0271,-3.34686,1.36917,124.747,2.258,0.295822,0,444.109,-24.0255,-0.515625,-0.11811,240.028,359952
-0.0996094,0.0443115,0.721375,-1.36917,-2.89047,127.333,2.26334,0.286087,0,508.712,-24.0255,-0.4375,-0.0629921,240.048,359981
-0.060791,0.09198,1.16974,-8.0629,1.06491,127.637,2.26608,0.281311,0,436.834,-3.38474,-0.398438,-0,240.068,359996
0.104797,0.0257568,1.03009,-6.69373,-0.30426,118.966,2.2717,0.2715,0,442.253,-53.2464,-0.390625,0.0078125,240.088,360026
0.247314,-0.0235596,0.967102,-1.21704,-4.71603,109.99,2.2746,0.266205,0,391.642,-72.0674,-0.382812,0.0078125,240.108,360041
0.189697,-0.00537109,0.946167,2.73834,3.0426,102.536,2.27759,0.260544,0,433.172,-85.201,-0.242188,0.0078125,240.128,360056
0.175354,0.0286255,1.08301,-1.82556,2.58621,90.9738,2.28381,0.248428,0,401.881,-91.3096,-0.140625,0.0078125,240.148,360086
0.172119,0.0805054,0.90625,0.912781,0.912781,82.4545,2.28711,0.241959,0,348.45,-107.035,-0.0078125,0.0078125,240.168,360101
0.317688,0.0615234,0.92627,2.12982,1.21704,59.7871,2.2943,0.227997,0,275.315,-137.266,-0.0078125,0.0078125,240.195,360132
0.302368,0.0786133,0.979858,-1.82556,-1.67343,49.7466,2.29817,0.220367,0,256.875,-144.89,-0.0078125,0.0078125,240.209,360146
0.288452,0.0863647,0.971191,0.30426,-2.28195,41.2273,2.30226,0.212341,0,253.078,-137.825,-0.0078125,0.0078125,240.23,360161
0.301636,0.072998,0.987732,-1.06491,-1.06491,32.4037,2.30655,0.203903,0,210.899,-141.926,-0.0078125,0.0078125,240.25,360176
0.234985,0.0650024,0.972168,0.760651,-0.30426,12.0183,2.3157,0.185959,0,168.791,-157.161,-0.0078125,0.0078125,240.268,360206
0.198792,0.0846558,0.9646,0.760651,-0.15213,1.67343,2.32053,0.176529,0,143.634,-145.865,-0.0078125,0.0078125,240.288,360221
0.0460815,0.0872192,0.969116,0.30426,-0.608521,-3.95538,2.32547,0.166931,0,119.022,-153.866,-0.0078125,0.0078125,240.309,360236
-0.0474243,0.0864868,0.983459,-2.12982,-1.06491,0.760651,2.33565,0.147873,0,111.075,-136.444,-0.0078125,0.0078125,240.33,360266
-0.00305176,0.0658569,0.958679,-0,-0.608521,-0.30426,2.34084,0.138412,0,113.148,-118.696,-0.0078125,0.0078125,240.347,360281
0.00701904,0.0775757,0.911377,1.36917,0.760651,-0.30426,2.34608,0.128937,0,112.729,-108.569,-0.0078125,0.0078125,240.369,360296
-0.00256348,0.0971069,0.937012,0.15213,-0.15213,0.15213,2.35686,0.109924,0,82.3035,-93.6382,-0.0078125,0.0078125,240.389,360326
-0.0409546,0.0962524,0.974426,-0,-0.30426,-0.15213,2.36237,0.100449,0,53.3913,-81.2579,-0.0078125,0.0078125,240.408,360341
-0.0045166,0.114319,0.950134,0.15213,0.45639,-0,2.36798,0.0909882,0,45.5852,-75.2471,-0.0078125,0.0078125,240.429,360356
-0.0343018,0.112427,0.954102,2.12982,0.912781,-1.21704,2.37956,0.0721436,0,59.485,-57.2123,-0.0078125,0.0078125,240.448,360386
0.00982666,0.118103,0.918701,-0.15213,0.760651,1.21704,2.38553,0.0627747,0,52.8287,-42.8715,-0.0078125,0.0078125,240.468,360401
0.0108643,0.0966187,0.96991,0.760651,0.608521,1.21704,2.3916,0.0533905,0,48.7424,-36.962,-0.0078125,0.0078125,240.488,360416
-0.0180054,0.0846558,0.957703,0.608521,0.608521,0.15213,2.40398,0.0533905,0,38.2134,-23.8755,-0.0078125,0.0078125,240.508,360446
-0.00567627,0.0882568,0.950928,-0,-0.30426,-0.608521,2.41028,0.0533905,0,38.2134,-23.8755,-0.0078125,0.0078125,240.528,360461
0.00628662,0.0891113,0.950073,0.45639,0.15213,-0.15213,2.41664,0.0533905,0,38.2134,-23.8755,-0.0078125,0.0078125,240.549,360476
-0.0253906,0.0507812,0.948425,-0.45639,-0.45639,0.15213,2.42957,0.0533905,0,38.2134,-23.8755,-0.0078125,0.0078125,240.568,360506
-0.0152588,0.0341797,0.951965,0.912781,0.608521,-0.15213,2.42957,0.0533905,0,4.82068,-23.8755,-0.0078125,0.0078125,240.588,360521
-0.00390625,0.0298462,0.956787,-0.30426,-0.15213,-0.608521,2.42957,0.0533905,0,4.82068,-23.8755,-0.0078125,0.0078125,240.609,360536
-0.00701904,0.0231323,0.953857,-0,-0,0.45639,2.42957,0.0533905,0,0,-3.16311,-0.0078125,0.0078125,240.628,360566
-0.012146,0.0153809,0.953796,0.45639,0.30426,0.15213,2.42957,0.0533905,0,-3.69267,-3.16311,-0.0078125,0.0078125,240.649,360581
-0.00610352,0.013855,0.949158,-0.15213,-0,-0.30426,2.42947,0.0533905,0,-6.39535,0,-0.0078125,0.0078125,240.672,360611
-0.00811768,0.0136719,0.955566,0.30426,0.30426,0.15213,2.4294,0.0533905,0,-10.009,2.58501,-0.0078125,0.0078125,240.688,360626
-0.00561523,0.0088501,0.958496,-0,0.15213,0.30426,2.42928,0.0533905,0,-10.009,2.58501,-0.0078125,0.0078125,240.708,360641
-0.0088501,0.00769043,0.947144,-0,-0,-0,2.42914,0.0533905,0,-10.009,2.58501,-0.0078125,0.0078125,240.728,360656
-0.00939941,0.0109253,0.946716,0.30426,-0,-0.30426,2.42874,0.0533905,0,-10.009,2.58501,-0.0078125,0.0078125,240.748,360686
-0.00964355,0.0137939,0.952942,0.30426,0.30426,-0.15213,2.42851,0.0533905,0,-10.009,2.58501,-0.0078125,0.0078125,240.768,360701
-0.00939941,0.0198975,0.955688,0.15213,0.15213,0.45639,2.42851,0.0533905,0,-10.009,2.58501,-0.0078125,0.0078125,240.788,360716
-0.0101318,0.0245361,0.956177,0.45639,0.45639,-0,2.42851,0.0533905,0,-10.009,2.58501,-0.0078125,0.0078125,240.808,360746
-0.00756836,0.0274658,0.954224,0.45639,-0,-0,2.42851,0.0533905,0,-10.009,2.58501,-0.0078125,0.0078125,240.828,360761
-0.0101929,0.0292358,0.954651,0.30426,0.45639,0.15213,2.42851,0.0533905,0,-10.009,2.58501,-0.0078125,0.0078125,240.848,360776
-0.0109253,0.0274048,0.948486,0.15213,0.30426,-0,2.42851,0.0533905,0,-10.009,2.58501,-0.0078125,0.0078125,240.868,360806
-0.010437,0.0236816,0.950195,-0,0.15213,-0,2.42851,0.0533905,0,-10.009,2.58501,-0.0078125,0.0078125,240.888,360821
-0.00878906,0.0200195,0.947876,0.45639,0.15213,-0,2.42851,0.0533905,0,-10.009,2.58501,-0.0078125,0.0078125,240.908,360836
-0.012207,0.0215454,0.949951,0.15213,0.15213,-0,2.42851,0.0533905,0,-10.009,2.58501,0,0.0078125,240.928,360866
-0.00958252,0.0203857,0.951599,0.15213,0.45639,-0.15213,2.42851,0.0533905,0,-10.009,2.58501,0.015748,0.0078125,240.948,360881
-0.00994873,0.0216675,0.947144,0.15213,0.15213,-0,2.42851,0.0533905,0,-10.009,2.58501,0.0551181,0.0078125,240.968,360896
-0.0125122,0.0282593,0.952759,0.15213,0.30426,0.30426,2.42851,0.0533905,0,-10.009,2.58501,0.0944882,0.0078125,240.988,360926
-0.0100708,0.024292,0.950684,0.30426,0.15213,0.15213,2.42851,0.0533905,0,-10.009,2.58501,0.133858,0.0078125,241.008,360941
-0.0043335,0.0263062,0.944824,0.45639,0.45639,-0.15213,2.42851,0.0533905,0,-2.51495,2.58501,0.149606,0.0078125,241.028,360956
0.00714111,0.126892,0.893799,0.30426,-1.36917,-2.58621,2.42857,0.0533905,0,-59.2847,2.58501,0.165354,0.0078125,241.048,360986
-0.0739136,0.137878,1.02173,0.30426,0.45639,-2.28195,2.42876,0.0534515,0,-47.7599,55.9488,0.173228,-0.0787402,241.068,361001
-0.0784912,0.125549,0.965759,-0.760651,0.912781,-0.15213,2.42905,0.0536194,0,-33.4604,38.645,0.188976,-0.149606,241.088,361016
-0.0734253,0.0516357,0.96228,0.30426,-0.760651,-1.06491,2.42986,0.0539703,0,-46.7857,49.1769,0.19685,-0.181102,241.108,361046
-0.0139771,0.0533447,0.903259,1.82556,1.97769,0.912781,2.42986,0.054184,0,-73.3253,53.9379,0.19685,-0.204724,241.128,361061
0.0585938,0.0848999,0.948364,-2.12982,-1.5213,-1.36917,2.42992,0.0543671,0,-76.7001,63.3651,0.19685,-0.212598,241.148,361076
-0.0198975,0.155823,0.873413,-1.21704,-0,0.760651,2.43022,0.0547791,0,-79.2905,142.342,0.19685,-0.212598,241.168,361106
-0.0557861,0.261658,0.944275,-0.15213,1.67343,5.32455,2.43065,0.0551147,0,-107.828,108.72,0.19685,-0.212598,241.188,361121
0.147339,0.102539,0.993042,-0.912781,0.760651,4.5639,2.43127,0.0554199,0,-122.584,128.598,0.19685,-0.220472,241.208,361136
-0.121887,0.0964966,0.949158,1.97769,0.608521,-3.65112,2.43288,0.056015,0,-149.504,138.333,0.19685,-0.220472,241.228,361166
0.0214844,0.0634766,1.00037,-2.28195,2.12982,-1.97769,2.43376,0.056427,0,-148.421,164.245,0.19685,-0.220472,241.249,361181
0.00921631,0.14801,0.884644,2.89047,1.21704,0.15213,2.43474,0.056839,0,-164.332,162.76,0.19685,-0.220472,241.268,361196
-0.0118408,0.0856323,0.961487,-0,0.912781,1.5213,2.43695,0.056839,0,-175.63,159.435,0.19685,-0.220472,241.288,361226
0.00305176,0.0557251,0.970459,-0.45639,0.608521,0.15213,2.43813,0.056839,0,-210.46,192.78,0.19685,-0.220472,241.308,361241
-0.0333252,0.0604248,0.96759,0.15213,1.36917,-0.760651,2.43813,0.056839,0,-175.835,181.291,0.19685,-0.220472,241.328,361256
-0.0114136,0.0606079,0.93335,0.760651,1.67343,-0.912781,2.43813,0.0568237,0,-191.252,180.858,0.19685,-0.220472,241.348,361286
-0.00146484,0.0455322,0.938904,0.15213,1.36917,-0.45639,2.43813,0.0568237,0,-202.93,191.624,0.19685,-0.220472,241.368,361301
-0.00775146,0.0708618,0.964722,-0.45639,-0.608521,-0,2.43814,0.0568237,0,-230.771,188.104,0.19685,-0.220472,241.389,361316
0.0215454,0.0317383,0.953552,-1.5213,-2.28195,-1.21704,2.43823,0.0568085,0,-215.008,223.851,0.19685,-0.220472,241.408,361346
-0.0452881,0.0950928,0.915466,1.21704,-1.21704,-2.12982,2.43831,0.0568085,0,-211.629,203.407,0.19685,-0.220472,241.428,361361
-0.010376,0.0712891,0.969482,-1.5213,-2.12982,-0.760651,2.43842,0.0568237,0,-222.809,177.702,0.19685,-0.220472,241.448,361376
-0.0299683,0.0422363,0.918762,1.06491,0.30426,-0.760651,2.43854,0.0568237,0,-228.765,213.927,0.204724,-0.220472,241.468,361406
0.00891113,0.0552979,1.01935,-1.21704,-0.30426,-0.15213,2.43854,0.0568237,0,-221.939,234.022,0.204724,-0.220472,241.488,361421
0.0151978,0.0105591,0.916321,0.45639,1.36917,-0,2.43854,0.056778,0,-223.891,210.79,0.204724,-0.220472,241.508,361436
-0.0584106,0.0609741,0.96521,0.15213,1.82556,-1.21704,2.43852,0.0567322,0,-235.347,272.851,0.204724,-0.220472,241.528,361466
0.000976562,0.00866699,0.964111,-0.45639,1.67343,-1.67343,2.43849,0.0567474,0,-233.013,256.614,0.204724,-0.228346,241.548,361481
-0.0526123,0.0530396,0.939941,-0.45639,-0.30426,-1.21704,2.43845,0.056778,0,-212.671,226.296,0.204724,-0.228346,241.568,361496
0.0203857,0.0161743,1.0022,-0.30426,0.760651,1.5213,2.43835,0.0568695,0,-243.235,209.848,0.204724,-0.228346,241.588,361526
-0.013855,0.0178833,0.902466,0.760651,0.608521,-0.30426,2.43826,0.0568695,0,-270.018,259.828,0.204724,-0.228346,241.608,361541
0.0405884,-0.00921631,0.974182,0.15213,1.36917,-1.5213,2.43813,0.0568085,0,-244.218,257.699,0.204724,-0.228346,241.628,361556
-0.000427246,0.0236816,0.922363,-0.912781,1.21704,-0.45639,2.43779,0.0566254,0,-242.418,226.109,0.204724,-0.228346,241.648,361586
0.0297241,0.0218506,0.952759,2.28195,2.73834,0.608521,2.43779,0.0565033,0,-262.867,259.027,0.204724,-0.228346,241.668,361601
-0.0101318,0.0275269,0.982361,0.912781,0.912781,-0.15213,2.43779,0.0563354,0,-233.446,248.933,0.204724,-0.228346,241.688,361616
-0.0720215,0.00299072,0.98175,0.608521,-1.5213,-3.34686,2.43773,0.055954,0,-263.713,222.398,0.204724,-0.228346,241.708,361646
-0.0203857,0.0335693,0.853149,1.97769,0.760651,-2.12982,2.43764,0.0558167,0,-266.951,228.472,0.204724,-0.228346,241.728,361661
0.0408325,0.00976562,0.996094,-0.45639,0.912781,0.45639,2.43753,0.0556335,0,-223.339,200.823,0.204724,-0.228346,241.748,361676
-0.00311279,0.0428467,0.953491,-0,-1.06491,-1.97769,2.43727,0.0550232,0,-243.894,250.718,0.204724,-0.228346,241.768,361705
-0.0811157,0.0267944,0.906921,0.30426,-1.97769,-1.5213,2.4371,0.054718,0,-241.581,241.208,0.204724,-0.228346,241.789,361720
0.0043335,-0.0227051,0.971741,-1.5213,-0,-0.608521,2.43689,0.0544434,0,-266.788,216.986,0.204724,-0.228346,241.808,361736
0.0740967,-0.0349731,1.01288,-2.28195,0.15213,0.912781,2.43637,0.0538483,0,-255.712,255.676,0.204724,-0.228346,241.829,361765
0.0217285,0.0377808,0.971924,0.30426,1.06491,-1.67343,2.43608,0.0534363,0,-257.437,254.107,0.204724,-0.228346,241.848,361780
-0.0395508,0.0637817,0.979431,-1.82556,-0.30426,-1.21704,2.43608,0.053009,0,-208.921,245.842,0.204724,-0.228346,241.868,361795
-0.00732422,0.0303955,0.923279,2.12982,0.45639,-0.45639,2.43597,0.0520782,0,-241.973,308.024,0.204724,-0.228346,241.888,361825
0.00341797,0.0220337,0.962952,0.30426,1.36917,0.45639,2.43588,0.0515594,0,-257.076,244.063,0.204724,-0.228346,241.908,361840
-0.0408325,0.0322266,0.948303,-0.30426,0.15213,-0.45639,2.43588,0.0510406,0,-246.719,247.091,0.204724,-0.228346,241.928,361855
0.0285645,0.0153198,0.95929,0.30426,-0.30426,-0.912781,2.43588,0.0500946,0,-263.724,219.032,0.212598,-0.228346,241.948,361885
-0.0106201,-0.000549316,0.988831,0.608521,0.608521,-1.67343,2.43585,0.0495605,0,-217.581,261.421,0.212598,-0.251969,241.968,361900
-0.0493164,0.017334,0.956482,-1.67343,-0.912781,-1.67343,2.43576,0.049057,0,-229.466,250.47,0.220472,-0.283465,241.989,361915
-0.00817871,0.0834351,0.953979,0.45639,-0.760651,0.760651,2.4355,0.0479889,0,-247.228,274.891,0.23622,-0.299213,242.008,361945
-0.0367432,0.119873,0.975647,-2.73834,-1.21704,0.760651,2.43544,0.0474701,0,-253.2,259.346,0.259843,-0.307087,242.028,361960
-0.0187378,0.0551758,0.948059,-1.5213,-1.21704,0.30426,2.43544,0.0469971,0,-255.997,286.837,0.283465,-0.322835,242.048,361975
-0.0306396,0.0952148,0.975098,-1.21704,-0.30426,0.45639,2.43542,0.0460205,0,-300.711,260.695,0.322835,-0.330709,242.069,362005
-0.0452271,0.184021,1.03967,-2.43408,1.21704,0.30426,2.43555,0.0455933,0,-306.697,390.9,0.322835,-0.330709,242.089,362020
0.0165405,0.115173,0.93335,-1.82556,1.97769,-0.912781,2.43579,0.0451965,0,-316.776,346.747,0.354331,-0.330709,242.109,362035
-0.0214233,0.0993652,0.875977,2.73834,1.36917,-2.58621,2.43652,0.0445557,0,-353.513,308.029,0.385827,-0.330709,242.129,362065
0.0924072,0.0858765,0.904236,-0.608521,0.912781,0.15213,2.43698,0.04422,0,-309.933,345.614,0.401575,-0.330709,242.148,362080
0.048645,0.109741,1.15704,-2.73834,-3.0426,-1.82556,2.43755,0.0437775,0,-387.222,360.464,0.409449,-0.330709,242.169,362095
-0.0670166,0.128113,0.762817,1.82556,-0.912781,-4.10751,2.43887,0.0429688,0,-385.26,351.426,0.409449,-0.330709,242.188,362125
-0.000976562,0.108704,0.977173,-2.43408,0.45639,-2.28195,2.43967,0.0426483,0,-413.967,421.763,0.417323,-0.267717,242.208,362140
0.0499268,0.167664,1.09247,-3.95538,0.608521,-2.89047,2.44057,0.0423126,0,-313.268,359.073,0.425197,-0.220472,242.228,362155
0.0988159,0.111938,0.929077,1.21704,-0.760651,-2.28195,2.44275,0.0415344,0,-415.628,459.876,0.425197,-0.110236,242.248,362185
-0.0389404,0.0985718,0.9021,-0.30426,-2.89047,-4.10751,2.44398,0.0410614,0,-466.027,396.755,0.440945,-0.0551181,242.268,362200
-0.130615,0.101562,0.915222,0.760651,1.82556,-3.95538,2.44525,0.0407257,0,-477.692,343.838,0.480315,-0,242.288,362215
0.15387,-0.190857,1.07239,7.15012,4.86816,-5.47668,2.44777,0.0401001,0,-442.84,367.667,0.535433,0.0078125,242.308,362245
0.265869,-0.326843,0.959351,3.49899,-5.17242,-19.6248,2.44862,0.0393066,0,-483.442,494.645,0.559055,0.0078125,242.328,362260
0.0189819,0.120789,0.784973,1.21704,1.82556,-22.211,2.44936,0.038269,0,-465.593,411.929,0.582677,0.0078125,242.348,362275
-0.13269,0.133179,1.15399,3.65112,-5.17242,-7.60651,2.45125,0.0366669,0,-498.915,488.043,0.598425,0.0078125,242.371,362305
-0.0535278,0.0369873,0.437622,4.41177,-2.58621,-11.5619,2.45227,0.0361023,0,-484.896,439.85,0.598425,0.0078125,242.389,362320
-0.0214844,0.00408936,1.17175,-8.51929,0.30426,-16.7343,2.45326,0.0355682,0,-584.402,475.998,0.598425,0.0078125,242.408,362335
0.19989,0.133362,0.917114,1.82556,-5.62881,-17.9514,2.45523,0.0346832,0,-589.032,431.388,0.598425,0.0078125,242.429,362365
-0.0401611,0.196533,0.857544,-0.15213,-2.12982,-17.0386,2.45645,0.0341644,0,-557.072,542.402,0.598425,0.0078125,242.448,362380
-0.0117188,0.103027,1.09967,-3.0426,2.73834,-14.7566,2.45778,0.0337067,0,-528.681,477.989,0.598425,0.0078125,242.468,362396
-0.0106201,0.138306,0.900146,-2.43408,6.23734,-15.6694,2.46046,0.0328522,0,-671.592,480.042,0.598425,0.0078125,242.488,362425
-0.129944,0.219177,1.12476,0.30426,-4.10751,-14.1481,2.46194,0.0325623,0,-614.439,479.398,0.598425,0.0078125,242.508,362440
0.115051,0.0615845,0.979431,2.12982,-3.95538,-14.7566,2.46352,0.0323029,0,-513.426,368.48,0.606299,0.0078125,242.527,362455
-0.00463867,0.0769043,0.83429,3.65112,4.41177,-12.1704,2.46684,0.0319366,0,-724.533,362.805,0.606299,0.0078125,242.547,362485
-0.0907593,0.0916138,0.927307,2.89047,2.58621,-10.9534,2.46857,0.0318604,0,-651.572,459.485,0.614173,0.0078125,242.569,362500
-0.141541,0.0944824,1.12372,-0.45639,-0,-10.6491,2.47028,0.0319366,0,-657.052,584.129,0.614173,0.0078125,242.588,362515
-0.139526,0.170532,0.732117,0.15213,0.760651,-10.3448,2.47379,0.032135,0,-638.978,511.078,0.614173,0.0078125,242.608,362545
0.0498657,0.0506592,0.900574,-2.58621,3.34686,-6.23734,2.47565,0.0323181,0,-624.356,584.864,0.614173,0.0078125,242.628,362560
-0.0570068,0.120728,1.00604,-2.89047,0.45639,-7.60651,2.47754,0.0325012,0,-679.279,664.319,0.614173,0.0078125,242.648,362575
-0.0750122,0.00512695,0.936523,-1.36917,-3.19473,-8.36716,2.48135,0.03302,0,-656.168,598.964,0.614173,0.0078125,242.669,362605
-0.0283203,0.0634766,0.88446,6.38947,3.80325,-7.45438,2.48318,0.0333405,0,-563.968,585.566,0.614173,0.0078125,242.689,362620
0.00744629,0.0591431,0.947449,-3.80325,-3.49899,-8.51929,2.48503,0.0336761,0,-723.589,673.809,0.614173,0.0078125,242.708,362635
0.0239258,0.104309,0.900391,0.45639,-0.608521,-9.43207,2.4888,0.0342102,0,-684.205,672.292,0.614173,0.0078125,242.741,362665
-0.178589,0.106018,0.817932,2.28195,6.38947,-10.1927,2.49075,0.0345764,0,-636.011,603.173,0.464567,0.0078125,242.75,362680
-0.0424805,0.00830078,1.01947,11.1055,-3.80325,-9.5842,2.49464,0.0355377,0,-639.795,539.113,0.283465,0.0078125,242.777,362710
-0.106689,-0.0712891,1.09247,6.08521,-4.25964,-6.99799,2.49643,0.0360565,0,-599.197,568.263,0.15748,0.0078125,242.788,362725
-0.161499,-0.0445557,0.527588,7.15012,-1.67343,-6.69373,2.49803,0.0366974,0,-569.963,545.926,0.023622,0.0078125,242.808,362740
0.0424194,-0.171509,1.14667,-4.71603,0.760651,-0.608521,2.50052,0.0383453,0,-540.176,582.819,-0.0078125,-0.0944882,242.83,362770
-0.106384,-0.0319824,0.837097,1.36917,7.45438,-0,2.5014,0.0391388,0,-495.184,556.003,-0.0078125,-0.133858,242.848,362785
0.0222168,-0.238647,1.30157,-7.30225,-5.32455,0.30426,2.50204,0.0398712,0,-532.694,466.603,-0.0078125,-0.133858,242.868,362800
0.118958,-0.353516,0.810364,14.9088,13.0832,-5.47668,2.50226,0.0403595,0,-473.272,469.065,-0.0078125,-0.0393701,242.888,362815
-0.0301514,-0.156738,0.91095,4.41177,5.93307,-4.25964,2.50166,0.0408173,0,-495.786,500.2,0.0866142,-0,242.908,362845
-0.0615234,-0.0296631,0.967712,-5.62881,-7.45438,-0.760651,2.50104,0.0409851,0,-480.065,462.289,0.275591,0.0078125,242.928,362860
0.0628662,-0.0337524,0.877747,-1.5213,-0.912781,3.65112,2.50032,0.0411224,0,-449.186,522.425,0.472441,0.0078125,242.949,362875
0.0107422,-0.022644,1.20483,-3.0426,-4.71603,0.45639,2.49823,0.0410309,0,-356.113,349.369,0.582677,0.0078125,242.969,362905
0.100769,-0.0240479,0.757324,10.497,-5.02029,-1.21704,2.49701,0.0408325,0,-565.531,328.823,0.606299,0.0078125,242.988,362920
0.119324,-0.100281,1.08392,-6.99799,-1.36917,-0.45639,2.49573,0.0404358,0,-597.3,212.35,0.622047,0.0078125,243.008,362935
0.0322876,0.275391,1.29004,-13.0832,-2.12982,-16.2779,2.49342,0.0390778,0,-485.508,386.787,0.653543,0.0234375,243.028,362965
0.368652,-0.0397949,0.450928,17.0386,1.36917,-21.2982,2.49258,0.0381317,0,-576.701,400.681,0.685039,0.078125,243.048,362980
-0.0749512,0.0662842,1.18256,-1.82556,-10.497,-22.8195,2.49179,0.0369568,0,-551.42,254.991,0.716535,0.109375,243.068,362995
0.436157,-0.0296021,0.714966,-1.97769,-9.5842,-26.0143,2.49185,0.0344696,0,-583.55,217.235,0.76378,0.148438,243.089,363025
0.295837,-0.312073,1.06171,0.912781,1.06491,-41.2273,2.49179,0.0325012,0,-677.897,230.089,0.779528,0.15625,243.111,363040
0.124756,-0.177673,1.12488,-6.69373,-0.30426,-58.418,2.49147,0.0301514,0,-804.085,238.254,0.787402,0.164062,243.128,363055
0.0799561,-0.111816,0.82196,-1.5213,0.760651,-71.349,2.49025,0.0245972,0,-842.389,182.862,0.787402,0.179688,243.148,363085
0.211182,-0.214722,0.970093,8.82355,3.34686,-77.2821,2.4894,0.0214233,0,-708.943,198.693,0.787402,0.1875,243.168,363100
0.259521,-0.164978,0.843994,-1.97769,-5.78094,-85.0407,2.48836,0.0178833,0,-780.214,148.239,0.787402,0.1875,243.188,363115
0.126526,-0.086792,1.04779,0.15213,-5.32455,-101.319,2.48605,0.00971985,0,-667,72.7281,0.787402,0.1875,243.208,363145
0.318176,-0.180603,0.748535,7.91077,4.41177,-108.317,2.48479,0.00515747,0,-740.823,80.814,0.795276,0.1875,243.229,363160
0.128723,-0.0993042,1.06226,3.95538,4.5639,-116.075,2.48343,0.000274658,0,-759.071,64.3666,0.795276,0.195312,243.248,363175
0.197327,-0.0907593,0.819641,2.12982,5.02029,-123.225,2.48203,-0.010025,0,-743.799,30.5022,0.795276,0.195312,243.278,363205
0.337891,-0.027832,1.18024,-0.45639,-1.5213,-126.877,2.48207,-0.0156097,0,-779.059,22.2071,0.795276,0.195312,243.288,363220
0.110413,-0.0319214,0.985352,1.97769,-3.0426,-139.199,2.4821,-0.0266876,0,-780.396,22.2071,0.795276,0.203125,243.314,363250
0.0637207,0.212891,1.01685,5.02029,5.93307,-139.655,2.48222,-0.0321808,0,-874.355,7.46311,0.795276,0.203125,243.331,363265
-0.111694,0.0656738,0.894348,3.19473,2.58621,-137.982,2.48245,-0.0375366,0,-803.988,7.46311,0.795276,0.203125,243.348,363280
0.115295,0.117065,0.783203,0.15213,-3.34686,-137.982,2.48277,-0.0428009,0,-883.236,7.46311,0.795276,0.203125,243.369,363295
-0.0305786,0.0775146,0.985962,-1.36917,2.58621,-141.633,2.48364,-0.0527496,0,-925.712,7.46311,0.795276,0.203125,243.388,363325
-0.154053,0.114685,0.938477,4.25964,5.93307,-140.568,2.4841,-0.0574188,0,-834.516,7.46311,0.795276,0.203125,243.408,363340
0.15332,0.132874,0.842834,0.760651,3.19473,-140.416,2.48515,-0.06633,0,-891.424,7.46311,0.795276,0.203125,243.432,363370
-0.00598145,0.0112305,0.906067,0.15213,3.49899,-141.177,2.48584,-0.0708008,0,-1041.29,7.46311,0.795276,0.203125,243.448,363385
-0.138916,0.104309,1.09143,0.760651,-4.10751,-140.72,2.48651,-0.0751038,0,-919.963,7.46311,0.795276,0.203125,243.468,363400
0.0945435,0.138672,1.0368,1.97769,2.58621,-141.025,2.48724,-0.0792847,0,-881.99,7.46311,0.724409,0.203125,243.489,363415
0.199402,0.16449,1.1319,8.97568,3.65112,-142.09,2.489,-0.0871429,0,-884.917,7.46311,0.724409,0.203125,243.509,363444
-0.0941772,0.153625,0.749023,-3.95538,-1.5213,-144.219,2.49013,-0.0909119,0,-943.53,7.46311,0.724409,0.210938,243.528,363460
0.147949,0.0129395,0.887329,2.73834,-0.30426,-141.937,2.49132,-0.094635,0,-978.282,0,0.692913,0.21875,243.548,363474
0.266907,0.0592651,0.889954,-2.43408,-0,-145.132,2.4939,-0.101746,0,-886.446,0,0.661417,0.226562,243.568,363504
-0.122925,0.0620117,0.695435,7.75864,-1.82556,-146.501,2.49533,-0.10527,0,-825.048,0,0.622047,0.242188,243.588,363519
-0.145447,0.0585327,1.05621,0.45639,-3.0426,-146.349,2.49667,-0.108597,0,-786.102,0,0.598425,0.304688,243.608,363534
0.0905762,0.116028,0.967163,2.28195,-5.32455,-147.262,2.49927,-0.114777,0,-666.689,0,0.559055,0.335938,243.628,363564
-0.0169678,0.0755005,1.13464,-3.19473,-0.760651,-148.023,2.50069,-0.117752,0,-707.039,-1.35047,0.480315,0.367188,243.649,363579
-0.0345459,0.000183105,0.826111,8.82355,6.5416,-149.24,2.50209,-0.120667,0,-605.895,-62.3438,0.267717,0.367188,243.67,363594
0.105469,-0.0921631,0.722595,7.30225,-0,-155.173,2.50478,-0.126556,0,-468.713,-107.855,0.0787402,0.375,243.694,363624
-0.0562744,-0.0380859,1.11395,4.25964,2.89047,-157.303,2.50728,-0.132874,0,-325.919,-119.641,0.00787402,0.375,243.717,363654
-0.0562744,-0.0380859,1.11395,4.25964,2.89047,-157.303,2.50728,-0.132874,0,-295.116,-121.844,-0.0078125,0.382812,243.728,363654
-0.254456,-0.219849,0.854492,-0.15213,-5.32455,-145.741,2.5089,-0.139343,0,-304.035,-156.577,-0.0078125,0.382812,243.748,363684
-0.233704,-0.148621,1.10406,4.71603,3.49899,-141.785,2.50908,-0.142593,0,-243.194,-190.371,-0.0078125,0.382812,243.768,363699
-0.120544,-0.118103,0.777039,1.97769,1.21704,-139.503,2.50893,-0.145844,0,-232.045,-216.399,-0.0078125,0.382812,243.789,363714
-0.25946,-0.113525,1.07312,1.82556,2.73834,-125.507,2.50763,-0.152191,0,-154.057,-223.969,-0.03125,0.382812,243.809,363744
-0.247437,-0.109375,0.844727,5.02029,4.41177,-114.858,2.50641,-0.155258,0,-149.924,-239.421,-0.0859375,0.382812,243.829,363759
-0.224365,-0.116211,0.998291,-3.0426,0.45639,-106.491,2.50482,-0.158264,0,-118.122,-247.485,-0.125,0.390625,243.848,363774
-0.22052,-0.115295,0.921265,0.608521,1.21704,-98.2761,2.50072,-0.164093,0,-56.3959,-299.504,-0.164062,0.390625,243.868,363804
-0.195251,-0.0803223,0.979858,-2.73834,1.97769,-90.8217,2.49818,-0.166946,0,-50.0065,-286.73,-0.179688,0.421875,243.889,363819
-0.249084,-0.0403442,0.953064,0.760651,-0,-80.4768,2.49538,-0.169708,0,12.6837,-279.345,-0.195312,0.429688,243.908,363834
-0.179199,-0.135071,0.939392,1.06491,-0.30426,-67.0894,2.48885,-0.174973,0,147.339,-222.655,-0.226562,0.46875,243.934,363864
-0.236694,-0.135803,0.890686,1.5213,0.760651,-63.7425,2.48512,-0.177612,0,157.877,-331.071,-0.296875,0.5,243.948,363879
-0.122681,-0.173767,0.91925,2.58621,1.21704,-45.9433,2.47665,-0.182556,0,229.727,-428.66,-0.320312,0.515625,243.976,363910
-0.0728149,-0.238159,1.11243,2.28195,-0.15213,-42.2922,2.47206,-0.185165,0,248.654,-498.716,-0.328125,0.539062,243.991,363924
-0.173462,-0.116028,0.781067,0.30426,-0.30426,-39.5538,2.46722,-0.187897,0,266.032,-411.159,-0.328125,0.5625,244.008,363939
-0.198242,-0.00701904,0.999756,-3.0426,-0.45639,-31.6431,2.46216,-0.190598,0,315.647,-393.414,-0.335938,0.570312,244.028,363954
-0.208069,-0.119263,0.90094,-1.82556,1.21704,-19.3205,2.45135,-0.195953,0,349.926,-434.443,-0.34375,0.570312,244.048,363984
-0.150879,-0.138,1.04236,-5.62881,0.760651,-15.6694,2.44557,-0.198685,0,356.271,-457.959,-0.34375,0.570312,244.068,363999
-0.0300293,-0.16803,1.00879,-1.06491,-1.5213,-7.45438,2.4335,-0.204239,0,413.411,-514.734,-0.359375,0.570312,244.092,364030
-0.0806885,-0.0493164,1.00623,3.95538,0.760651,-5.62881,2.42731,-0.207123,0,473.788,-422.217,-0.359375,0.585938,244.108,364044
0.10144,-0.146484,1.05536,-1.67343,0.760651,-4.25964,2.41481,-0.213043,0,494.523,-520.075,-0.359375,0.601562,244.137,364074
0.10144,-0.146484,1.05536,-1.67343,0.760651,-4.25964,2.41481,-0.213043,0,478.171,-539.709,-0.382812,0.609375,244.149,364074
0.0119019,-0.166199,1.07581,-1.97769,3.0426,-5.32455,2.40248,-0.21965,0,558.644,-415.679,-0.421875,0.617188,244.168,364104
-0.0647583,-0.0184937,1.01208,2.58621,-1.97769,-5.78094,2.39629,-0.223114,0,489.524,-573.691,-0.492188,0.625,244.189,364119
-0.020874,-0.0806274,0.829407,0.912781,3.49899,-3.34686,2.39006,-0.226608,0,554.847,-525.901,-0.53125,0.625,244.208,364134
-0.0338745,-0.163513,0.96283,0.30426,0.760651,-4.5639,2.37744,-0.234009,0,612.501,-658.415,-0.539062,0.625,244.229,364164
-0.0247192,-0.147949,1.26874,-1.06491,3.65112,-3.19473,2.37102,-0.23793,0,627.825,-809.782,-0.546875,0.625,244.253,364179
0.0953369,-0.17926,1.03558,-5.02029,-6.99799,1.5213,2.35796,-0.246246,0,642.694,-659.065,-0.546875,0.625,244.274,364209
-0.00238037,-0.150208,0.774475,3.80325,-0.912781,-0.912781,2.35141,-0.250702,0,672.54,-693.529,-0.546875,0.625,244.291,364224
0.0668335,-0.125854,0.859924,-6.5416,-3.34686,-0.15213,2.34486,-0.25531,0,645.557,-706.664,-0.546875,0.625,244.309,364239
-0.138977,-0.0560303,1.24957,-0.15213,6.69373,1.21704,2.33827,-0.259995,0,707.064,-617.951,-0.546875,0.625,244.328,364254
0.0383911,-0.0880127,0.942932,3.80325,5.93307,-0.30426,2.32507,-0.269531,0,792.079,-688.302,-0.546875,0.625,244.349,364284
0.0380859,-0.104858,0.796631,1.5213,0.15213,-1.36917,2.31854,-0.274475,0,743.633,-689.465,-0.546875,0.625,244.368,364299
-0.0223999,-0.0770874,1.00745,-5.62881,-7.75864,-1.36917,2.312,-0.279495,0,758.869,-573.773,-0.546875,0.625,244.388,364314
-0.171692,-0.0375366,1.19879,-8.97568,7.45438,-1.06491,2.31192,-0.289642,0,785.546,-820.311,-0.546875,0.625,244.408,364344
-0.0534058,-0.0974731,1.03571,4.86816,2.28195,1.06491,2.31174,-0.294678,0,771.426,-854.957,-0.546875,0.625,244.428,364359
0.0509644,-0.074707,0.683411,2.89047,1.82556,-0.912781,2.31129,-0.304825,0,729.847,-916.8,-0.546875,0.625,244.455,364389
0.0576172,0.0722656,1.3446,-17.3428,-0.912781,-2.73834,2.31119,-0.309921,0,840.831,-928.462,-0.546875,0.625,244.468,364404
0.0258789,-0.0878906,0.824463,12.7789,4.10751,-3.95538,2.3112,-0.315002,0,849.907,-903.424,-0.546875,0.625,244.489,364419
-0.029541,-0.0466919,0.832642,0.45639,-3.49899,-2.73834,2.3112,-0.320145,0,823.52,-984.737,-0.546875,0.625,244.508,364434
0.0704956,-0.167725,0.758057,7.45438,-1.21704,-2.28195,2.31149,-0.330368,0,912.034,-920.853,-0.546875,0.625,244.529,364464
-0.00518799,0.0444946,1.07489,-3.19473,2.12982,-3.0426,2.31174,-0.335556,0,797.416,-904.568,-0.546875,0.625,244.548,364479
0.010437,-0.0701904,0.932129,1.06491,-2.58621,-4.41177,2.31204,-0.340744,0,757.174,-832.882,-0.546875,0.625,244.569,364494
0.0736084,-0.0402832,0.804688,8.36716,-3.0426,-0.608521,2.31264,-0.350891,0,780.427,-990.982,-0.546875,0.625,244.588,364524
-0.101562,0.0744629,1.04962,-0.608521,-3.0426,-0.912781,2.31299,-0.355881,0,798.371,-941.575,-0.546875,0.625,244.608,364539
-0.0172729,-0.0787964,0.78717,9.27994,-8.21503,0.15213,2.31332,-0.360794,0,765.609,-975.705,-0.546875,0.625,244.628,364554
-0.104248,0.0723267,1.28259,-8.21503,8.82355,-3.19473,2.31412,-0.370575,0,832.778,-942.863,-0.546875,0.625,244.648,364584
0.0271606,-0.012146,1.23846,5.17242,-3.65112,-0.912781,2.31458,-0.37532,0,848.536,-884.056,-0.546875,0.625,244.669,364599
0.167419,0.0808105,0.838684,8.36716,1.36917,-1.82556,2.31523,-0.380051,0,798.722,-561.498,-0.546875,0.625,244.688,364614
-0.0166016,0.0246582,1.35211,-4.86816,-10.497,0.30426,2.31685,-0.380005,0,829.738,-967.399,-0.546875,0.625,244.708,364644
-0.0222778,-0.00628662,0.886414,4.86816,12.9311,-2.12982,2.31772,-0.379898,0,875.542,-820.446,-0.546875,0.625,244.728,364659
-0.0548706,-0.0248413,0.792725,-4.5639,-4.25964,-1.82556,2.31857,-0.379761,0,806.614,-955.932,-0.546875,0.625,244.749,364674
0.00476074,0.0100708,0.693787,1.06491,-3.65112,0.15213,2.32021,-0.379135,0,897.183,-958.589,-0.546875,0.625,244.769,364704
-0.0817871,0.0151978,1.20917,-2.28195,1.5213,0.15213,2.32104,-0.378693,0,917.221,-976.944,-0.554688,0.625,244.788,364719
0.131226,-0.00299072,0.972168,1.06491,5.32455,-1.21704,2.32196,-0.37822,0,903.873,-882.535,-0.554688,0.625,244.808,364734
-0.0166626,-0.017334,1.00787,1.06491,-0.45639,-1.06491,2.32379,-0.377075,0,881.756,-814.996,-0.554688,0.625,244.829,364764
-0.0490723,0.015686,0.750549,10.8012,-4.71603,0.912781,2.32379,-0.376434,0,840.124,-716.255,-0.554688,0.625,244.848,364779
0.0272827,-0.010498,0.764282,-3.80325,7.45438,-0.45639,2.32382,-0.375748,0,927.902,-908.306,-0.554688,0.625,244.868,364794
0.0983276,-0.0332031,0.880859,7.30225,11.4098,-2.12982,2.32376,-0.374435,0,947.239,-883.08,-0.554688,0.625,244.888,364824
-0.0318604,0.0670166,0.919312,1.82556,-1.06491,-2.28195,2.32382,-0.373779,0,909.463,-832.432,-0.554688,0.625,244.908,364839
-0.0615845,0.0552979,0.921082,5.62881,5.17242,-0.608521,2.3239,-0.373001,0,902.568,-886.721,-0.5625,0.554688,244.93,364854
-0.0980225,0.0804443,1.37292,-4.5639,3.49899,-2.43408,2.32436,-0.37146,0,885.465,-961.723,-0.5625,0.546875,244.949,364884
0.179077,-0.0771484,0.843506,3.95538,10.8012,-2.58621,2.32474,-0.370682,0,891.345,-992.26,-0.570312,0.546875,244.968,364899
-0.0702515,0.0394287,1.09729,-0.912781,-1.5213,-0.760651,2.32521,-0.369934,0,908.389,-925.198,-0.570312,0.546875,244.988,364914
-0.126709,0.0317383,0.803711,-6.84586,-4.10751,0.15213,2.32625,-0.368118,0,911.494,-911.66,-0.570312,0.546875,245.008,364944
0.00396729,0.0883789,1.30292,-6.84586,4.25964,2.12982,2.32678,-0.367035,0,761.586,-952.925,-0.570312,0.546875,245.028,364959
0.119202,0.0386353,1.05432,14.3002,2.58621,2.58621,2.32747,-0.365875,0,901.266,-921.914,-0.570312,0.539062,245.048,364974
0.0217285,0.0648804,0.757202,2.12982,0.45639,2.89047,2.32893,-0.363174,0,906.043,-927.945,-0.570312,0.539062,245.069,365004
-0.17572,0.133606,0.726624,1.97769,-1.36917,3.80325,2.32967,-0.361572,0,944.287,-865.089,-0.570312,0.539062,245.088,365019
-0.0132446,0.0666504,1.25769,-14.9088,-3.34686,5.32455,2.33037,-0.359756,0,904.404,-840.301,-0.570312,0.539062,245.108,365034
-0.208496,0.0403442,0.927429,12.3225,9.5842,2.73834,2.33231,-0.356216,0,861.438,-851.607,-0.570312,0.539062,245.128,365064
-0.105591,0.0296021,1.13654,0.30426,-1.36917,2.43408,2.33319,-0.354279,0,825.287,-952.562,-0.570312,0.539062,245.148,365079
0.0415649,0.0820312,0.545593,3.80325,-5.17242,2.28195,2.33409,-0.352234,0,867.98,-1045.92,-0.578125,0.539062,245.168,365094
-0.0380249,0.0779419,1.3941,1.82556,1.21704,1.06491,2.33643,-0.348251,0,855.725,-904.977,-0.578125,0.539062,245.188,365124
-0.0872803,-0.00811768,0.620117,6.84586,-2.89047,1.21704,2.33765,-0.346161,0,776.337,-893.615,-0.585938,0.53125,245.208,365139
0.170959,0.0841675,1.21094,-10.1927,2.28195,2.73834,2.33897,-0.344055,0,882.535,-741.785,-0.59375,0.5,245.228,365154
-0.0603638,0.00152588,0.841614,-2.58621,-0.30426,3.49899,2.34187,-0.339813,0,1033,-717.566,-0.609375,0.484375,245.249,365183
-0.0894775,0.0090332,1.27081,-3.65112,-3.65112,3.19473,2.34326,-0.337616,0,843.989,-615.82,-0.617188,0.46875,245.269,365198
-0.0841675,0.0670166,1.36835,-7.45438,7.45438,3.49899,2.3446,-0.335312,0,928.721,-1155.67,-0.625,0.46875,245.289,365213
-0.0414429,-0.00128174,0.812561,-3.80325,1.97769,4.71603,2.34729,-0.330597,0,964.367,-970.167,-0.632812,0.46875,245.308,365243
-0.0473022,-0.0386353,0.903015,0.608521,7.45438,5.02029,2.3486,-0.328232,0,986.729,-879.507,-0.640625,0.46875,245.328,365258
-0.00793457,0.0396118,1.0556,-7.60651,0.45639,6.08521,2.3499,-0.325836,0,932.966,-888.849,-0.640625,0.46875,245.348,365273
0.039978,-0.0424194,0.752441,5.62881,0.15213,5.02029,2.35254,-0.320923,0,1017.4,-743.854,-0.640625,0.46875,245.369,365303
